idx,t,px,py,pz,vx,vy,vz,ax,ay,az,yaw,mode,ledr,ledg,ledb
0,0.0,-4.5,-3.0,0.0,-2.565043819316382e-18,-1.8559283032017736e-18,0.018783751262842874,3.0780525831796585e-17,2.2271139638421284e-17,-0.5126050151541145,0,70,255.0,255.0,255.0
1,0.05,-4.5,-3.0,0.0003002150454623434,-1.1799201568855357e-18,-8.537270194728157e-19,-0.006739474419092278,2.4624420665437268e-17,1.781691171073703e-17,-0.5083240121232916,0,70,255.0,255.0,255.0
2,0.1,-4.5,-3.0,-0.0006703799393835423,-1.0260175277265527e-19,-7.423713212807072e-20,-0.03204864994948628,1.846831549907795e-17,1.336268378305277e-17,-0.5040430090924687,0,70,255.0,255.0,255.0
3,0.15000000000000002,-4.5,-3.0,-0.0029010824469606,6.669113930222599e-19,4.825413588324617e-19,-0.057143775328339155,1.2312210332718631e-17,8.908455855368511e-18,-0.4997620060616457,0,70,255.0,255.0,255.0
4,0.2,-4.5,-3.0,-0.006381189969691772,1.1286192804992082e-18,8.166084534087807e-19,-0.08202485055565086,6.156105166359317e-18,4.454227927684256e-18,-0.49548100303082276,0,70,255.0,255.0,255.0
5,0.25,-4.5,-3.0,-0.0111,1.282521909658191e-18,9.279641516008868e-19,-0.10669187563142143,0.0,0.0,-0.4912000000000003,0,70,255.0,255.0,255.0
6,0.30000000000000004,-4.5,-3.0,-0.017046810030308234,1.1286192804992078e-18,8.166084534087802e-19,-0.1311448505556509,-6.156105166359322e-18,-4.454227927684261e-18,-0.4869189969691773,0,70,255.0,255.0,255.0
7,0.35000000000000003,-4.5,-3.0,-0.024210917553039408,6.669113930222589e-19,4.825413588324608e-19,-0.1553837753283392,-1.2312210332718639e-17,-8.908455855368517e-18,-0.4826379939383543,0,70,255.0,255.0,255.0
8,0.4,-4.5,-3.0,-0.03258162006061646,-1.0260175277265566e-19,-7.42371321280712e-20,-0.1794086499494863,-1.8468315499077954e-17,-1.3362683783052773e-17,-0.4783569909075313,0,70,255.0,255.0,255.0
9,0.45,-4.5,-3.0,-0.042148215045462345,-1.1799201568855363e-18,-8.537270194728162e-19,-0.20321947441909233,-2.4624420665437268e-17,-1.781691171073703e-17,-0.47407598787670835,0,70,255.0,255.0,255.0
10,0.5,-4.5,-3.0,-0.0529,-2.565043819316382e-18,-1.8559283032017736e-18,-0.22681624873715717,-3.078052583179659e-17,-2.227113963842128e-17,-0.469794984845886,0,70,255.0,255.0,255.0
11,0.55,-4.5,-3.0,-0.06482497492422944,-3.334556965111297e-18,-2.4127067941623055e-18,-0.25012112335830433,2.465190328815662e-32,2.1570415377137042e-32,-0.46239999999999987,0,70,255.0,255.0,255.0
12,0.6000000000000001,-4.5,-3.0,-0.07790594984845889,-2.56504381931638e-18,-1.855928303201772e-18,-0.2730562487371572,3.078052583179664e-17,2.2271139638421324e-17,-0.45500501515411373,0,70,255.0,255.0,255.0
13,0.65,-4.5,-3.0,-0.09212443731057358,-2.565043819316369e-19,-1.8559283032017655e-19,-0.2956216248737157,6.156105166359318e-17,4.454227927684257e-17,-0.44761003030822766,0,70,255.0,255.0,255.0
14,0.7000000000000001,-4.5,-3.0,-0.10746194984845889,3.5910613470429416e-18,2.598299624482487e-18,-0.31781725176798,9.23415774953898e-17,6.681341891526388e-17,-0.4402150454623415,0,70,255.0,255.0,255.0
15,0.75,-4.5,-3.0,-0.1239,8.977653367607337e-18,6.495749061206208e-18,-0.3396431294199499,1.2312210332718636e-16,8.908455855368514e-17,-0.4328200606164567,0,70,255.0,255.0,255.0
16,0.8,-4.5,-3.0,-0.14142049027277406,1.2209608579945979e-17,8.834218723240444e-18,-0.3611226560111319,6.1561051663592245e-18,4.4542279276841755e-18,-0.4263610030308233,0,70,255.0,255.0,255.0
17,0.8500000000000001,-4.5,-3.0,-0.1600068830531252,9.593263884243261e-18,6.941171853974626e-18,-0.3822792297230323,-1.1080989299446792e-16,-8.017610269831679e-17,-0.4199019454451899,0,70,255.0,255.0,255.0
18,0.9,-4.5,-3.0,-0.17964303069708926,1.1286192804992012e-18,8.166084534087768e-19,-0.4031128505556509,-2.277758911552948e-16,-1.6480643332431755e-16,-0.4134428878595565,0,70,255.0,255.0,255.0
19,0.9500000000000001,-4.5,-3.0,-0.20031278556070223,-1.3184325231286237e-17,-9.539471478457132e-18,-0.4236235185089879,-3.44741889316122e-16,-2.494367639503185e-16,-0.4069838302739231,0,70,255.0,255.0,255.0
20,1.0,-4.5,-3.0,-0.222,-3.334556965111297e-17,-2.412706794162306e-17,-0.44381123358304314,-4.617078874769486e-16,-3.340670945763193e-16,-0.40052477268829323,0,70,255.0,255.0,255.0
21,1.05,-4.5,-3.0,-0.2446890639846744,-4.550387735467262e-17,-3.2924168098799466e-17,-0.46370825259716825,-2.46244206654368e-17,-1.781691171073675e-17,-0.3953559878767103,0,70,255.0,255.0,255.0
22,1.1,-4.5,-3.0,-0.26836651793904054,-3.580801171765665e-17,-2.5908759112696742e-17,-0.48334683237071424,4.1245904614607505e-16,2.984332711548458e-16,-0.39018720306512733,0,70,255.0,255.0,255.0
23,1.1500000000000001,-4.5,-3.0,-0.29301943990106954,-4.25797274006508e-18,-3.080840983314849e-18,-0.5027269729036811,8.49542512957587e-16,6.146834540204284e-16,-0.3850184182535444,0,70,255.0,255.0,255.0
24,1.2000000000000002,-4.5,-3.0,-0.31863490790873233,4.914623957810213e-17,3.5559586289346144e-17,-0.5218486741960686,1.2866259797690987e-15,9.309336368860109e-16,-0.37984963344196143,0,70,255.0,255.0,255.0
25,1.25,-4.5,-3.0,-0.3452,1.2440462523684453e-16,9.001252270528603e-17,-0.5407119362478772,1.7237094465806087e-15,1.2471838197515918e-15,-0.37468084863037987,0,70,255.0,255.0,255.0
26,1.3,-4.5,-3.0,-0.37270085378852846,1.6980590083874447e-16,1.2286245367195741e-16,-0.5592603336001952,9.234157749538807e-17,6.681341891526278e-17,-0.3672550454623419,0,70,255.0,255.0,255.0
27,1.35,-4.5,-3.0,-0.4011198451907129,1.3363878298638334e-16,9.66938645968123e-17,-0.5774374407941114,-1.5390262915898326e-15,-1.1135569819210663e-15,-0.35982924229430396,0,70,255.0,255.0,255.0
28,1.4000000000000001,-4.5,-3.0,-0.430438409698633,1.5903271679761092e-17,1.1506755479850684e-17,-0.5952432578296256,-3.1703941606750526e-15,-2.2939273827573957e-15,-0.352403439126266,0,70,255.0,255.0,255.0
29,1.4500000000000002,-4.5,-3.0,-0.4606379828043688,-1.8340063308112224e-16,-1.3269887367892745e-16,-0.6126777847067381,-4.801762029760274e-15,-3.4742977835937246e-15,-0.344977635958228,0,70,255.0,255.0,255.0
30,1.5,-4.5,-3.0,-0.4917,-4.642729312962651e-16,-3.3592302287952107e-16,-0.6297410214254485,-6.433129898845485e-15,-4.6546681844300495e-15,-0.3375518327901963,0,70,255.0,255.0,255.0
31,1.55,-4.5,-3.0,-0.5236067208612117,-6.337197260003053e-16,-4.585256465890303e-16,-0.6464824130020516,-3.447418893161158e-16,-2.49436763950315e-16,-0.33210383027392487,0,70,255.0,255.0,255.0
32,1.6,-4.5,-3.0,-0.5563437012981084,-4.987471202278768e-16,-3.6086669927455255e-16,-0.662951404452841,5.743646120213254e-15,4.1557946565294194e-15,-0.3266558277576534,0,70,255.0,255.0,255.0
33,1.6500000000000001,-4.5,-3.0,-0.5898973213043991,-5.935511397897943e-17,-4.294618093608773e-17,-0.6791479957778169,1.1832034129742623e-14,8.561026077009155e-15,-0.321207825241382,0,70,255.0,255.0,255.0
34,1.7000000000000002,-4.5,-3.0,-0.6242539608737931,6.844562927463865e-16,4.952359084263638e-16,-0.6950721869769793,1.7920422139271992e-14,1.2966257497488888e-14,-0.3157598227251105,0,70,255.0,255.0,255.0
35,1.75,-4.5,-3.0,-0.6594,1.732687099948216e-15,1.2536795688127982e-15,-0.7107239780503279,2.4008810148801333e-14,1.7371488917968604e-14,-0.3103118202088426,0,70,255.0,255.0,255.0
36,1.8,-4.5,-3.0,-0.6953210627666246,2.3650730031624766e-15,1.7112401326841633e-15,-0.7260580143915982,1.2866259797690768e-15,9.30933636885995e-16,-0.30304963344196395,0,70,255.0,255.0,255.0
37,1.85,-4.5,-3.0,-0.7319997496168541,1.8613496979251237e-15,1.3467729325013977e-15,-0.7410289413945244,-2.143555818926318e-14,-1.5509621644196614e-14,-0.29578744667508533,0,70,255.0,255.0,255.0
38,1.9000000000000001,-4.5,-3.0,-0.7694179050837714,2.2151718423615645e-16,1.6027796826450116e-16,-0.7556367590591068,-4.4157742358295436e-14,-3.1950176925279226e-14,-0.28852525990820665,0,70,255.0,255.0,255.0
39,1.9500000000000002,-4.5,-2.9999999999999996,-0.807557373700459,-2.5544245379044227e-15,-1.848244760026528e-15,-0.769881467385345,-6.687992652732769e-14,-4.839073220636183e-14,-0.28126307314132803,0,70,255.0,255.0,255.0
40,2.0,-4.5,-3.0,-0.8464,-6.4664754684965985e-15,-4.678795252371672e-15,-0.7837630663732396,-8.960211069635987e-14,-6.483128748744436e-14,-0.2740008863744503,0,70,255.0,255.0,255.0
41,2.0500000000000003,-4.5,-3.0000000000000004,-0.8859282280722902,-8.826572286649604e-15,-6.386434884147624e-15,-0.7973175294315566,-4.8017620297598224e-15,-3.4742977835933964e-15,-0.268177635958229,0,70,255.0,255.0,255.0
42,2.1,-4.500000000000002,-3.000000000000001,-0.9261269002344755,-6.9466516714726186e-15,-5.0262250307310395e-15,-0.8105808299690624,7.999858663683947e-14,5.788269192025704e-14,-0.26235438554200774,0,70,255.0,255.0,255.0
43,2.15,-4.500000000000001,-3.000000000000001,-0.966981458360516,-8.267136229656844e-16,-5.98165692121942e-16,-0.8235529679857573,1.6479893530343875e-13,1.1923968162410745e-13,-0.2565311351257865,0,70,255.0,255.0,255.0
44,2.2,-4.5,-3.0000000000000004,-1.008477344324371,9.533241858871309e-15,6.897743131679742e-15,-0.8362339434816412,2.495992839700388e-13,1.8059667132795844e-13,-0.2507078847095652,0,70,255.0,255.0,255.0
45,2.25,-4.5,-3.0,-1.0506,2.413321477403818e-14,1.746150144067389e-14,-0.8486237564567138,3.343996326366381e-13,2.4195366103180883e-13,-0.2448846342933475,0,70,255.0,255.0,255.0
46,2.3000000000000003,-4.499999999999999,-2.9999999999999987,-1.0933348249442156,3.294121614343594e-14,2.3834499403906334e-14,-0.8607198678821755,1.79204221392703e-14,1.2966257497487625e-14,-0.23895982272511307,0,70,255.0,255.0,255.0
47,2.35,-4.4999999999999964,-2.999999999999998,-1.136667049445244,2.592525698796535e-14,1.8758127190422755e-14,-0.8725197387292252,-2.9855878835809467e-13,-2.1602114603683156e-13,-0.23303501115687872,0,70,255.0,255.0,255.0
48,2.4000000000000004,-4.4999999999999964,-2.9999999999999973,-1.1805818614741648,3.0853373076262965e-15,2.2323848002230584e-15,-0.8840233689978634,-6.150379988554626e-13,-4.450085495711527e-13,-0.22711019958864428,0,70,255.0,255.0,255.0
49,2.45,-4.499999999999997,-2.999999999999998,-1.225064449002057,-3.5578542897580815e-14,-2.5742727766692457e-14,-0.8952307586880895,-9.315172093528274e-13,-6.739959531054719e-13,-0.22118538802040993,0,70,255.0,255.0,255.0
50,2.5,-4.5,-3.0,-1.2701,-9.006638362765612e-14,-6.516721051032389e-14,-0.9061419077999042,-1.2479964198501927e-12,-9.029833566397911e-13,-0.21526057645217733,0,70,255.0,255.0,255.0
51,2.5500000000000003,-4.500000000000005,-3.000000000000004,-1.3156732721508477,-1.2293829228709416e-13,-8.895156273147772e-14,-0.916730999039742,-6.687992652732152e-14,-4.839073220635728e-14,-0.20830307314132843,0,70,255.0,255.0,255.0
52,2.6,-4.5000000000000115,-3.0000000000000084,-1.3617673019845484,-9.67543762803888e-14,-7.000628373096e-14,-0.926972215114037,1.1142365667955392e-12,8.062018922270688e-13,-0.20134556983047958,0,70,255.0,255.0,255.0
53,2.6500000000000004,-4.500000000000014,-3.00000000000001,-1.408364695742826,-1.1514635607539571e-14,-8.3313735087704e-15,-0.9368655560227899,2.2953530601184106e-12,1.6607945166605028e-12,-0.19438806651963064,0,70,255.0,255.0,255.0
54,2.7,-4.5000000000000115,-3.0000000000000084,-1.4554480596674022,1.3278092973145194e-13,9.607316793509005e-14,-0.9464110217660002,3.476469553441271e-12,2.5153871410939287e-12,-0.1874305632087818,0,70,255.0,255.0,255.0
55,2.75,-4.5,-3.0,-1.503,3.3613231973658633e-13,2.4320734060062166e-13,-0.955608612343668,4.6575860467641315e-12,3.369979765527355e-12,-0.18047305989793472,0,70,255.0,255.0,255.0
56,2.8000000000000003,-4.499999999999979,-2.9999999999999853,-1.551003286452394,4.588119530049406e-13,3.319717515220045e-13,-0.9644681359588557,2.4959928397001407e-13,1.8059667132794085e-13,-0.17390788470957116,0,70,255.0,255.0,255.0
57,2.85,-4.499999999999958,-2.9999999999999694,-1.599441342616562,3.6109224813358975e-13,2.612670077334172e-13,-0.9729994008146252,-4.158387478824065e-12,-3.008786422871445e-12,-0.16734270952120767,0,70,255.0,255.0,255.0
58,2.9000000000000004,-4.499999999999947,-2.999999999999962,-1.6482977555545333,4.2973205122532025e-14,3.109310923485832e-14,-0.9812024069109765,-8.566374241618182e-12,-6.198169517070859e-12,-0.16077753433284409,0,70,255.0,255.0,255.0
59,2.95,-4.4999999999999565,-2.999999999999969,-1.697556112328336,-4.955451760282272e-13,-3.5854994397366783e-13,-0.9890771542479095,-1.297436100441226e-11,-9.387552611270246e-12,-0.1542123591444806,0,70,255.0,255.0,255.0
60,3.0,-4.5,-3.0,-1.7472,-1.2544628953186892e-12,-9.076621518921627e-13,-0.9966236428254245,-1.7382347767206335e-11,-1.2576935705469632e-11,-0.1476471839561171,0,70,255.0,255.0,255.0
61,3.0500000000000003,-4.500000000000077,-3.000000000000056,-1.797213582039577,-1.7123095197326687e-12,-1.2389354433565405e-12,-1.0038764571248378,-9.315172093527378e-13,-6.739959531054079e-13,-0.14246538802041042,0,70,255.0,255.0,255.0
62,3.1,-4.500000000000157,-3.000000000000114,-1.847583327549204,-1.3476146162539704e-12,-9.75061747202709e-13,-1.0108701816274654,1.551931334850071e-11,1.122894379925871e-11,-0.13728359208470378,0,70,255.0,255.0,255.0
63,3.1500000000000004,-4.500000000000199,-3.000000000000144,-1.8982962820390439,-1.6037818488258802e-13,-1.160410634306632e-13,-1.017604816333308,3.197014390635431e-11,2.3131883551622933e-11,-0.1321017961489971,0,70,255.0,255.0,255.0
64,3.2,-4.500000000000159,-3.0000000000001155,-1.9493394910192552,1.849399774381456e-12,1.3381266079595815e-12,-1.0240803612423655,4.8420974464207756e-11,3.503482330398705e-11,-0.12692000021329047,0,70,255.0,255.0,255.0
65,3.25,-4.5,-3.0,-2.0007,4.68171926153817e-12,3.3874412669680293e-12,-1.030296816354637,6.487180502206122e-11,4.693776305635118e-11,-0.12173820427758741,0,70,255.0,255.0,255.0
66,3.3000000000000003,-4.4999999999997105,-2.999999999999791,-2.0523639853893,6.390426125925734e-12,4.623770021904157e-12,-1.036202035541796,3.4764695534409386e-12,2.5153871410936973e-12,-0.11447056320877064,0,70,255.0,255.0,255.0
67,3.35,-4.499999999999412,-2.9999999999995746,-2.1043141471866225,5.029366216882293e-12,3.638979981077419e-12,-1.0417438726755142,-5.791886591517878e-11,-4.190698877416338e-11,-0.10720292213995392,0,70,255.0,255.0,255.0
68,3.4000000000000004,-4.499999999999258,-2.9999999999994635,-2.1565323162892946,5.985395344078217e-13,4.3307114448779537e-13,-1.0469223277557915,-1.1931420138379907e-10,-8.632936468942088e-11,-0.09993528107113714,0,70,255.0,255.0,255.0
69,3.45,-4.499999999999403,-2.999999999999568,-2.2090003235946445,-6.9020539214976e-12,-4.993956487864656e-12,-1.051737400782628,-1.8070953685241878e-10,-1.3075174060467796e-10,-0.09266764000232042,0,70,255.0,255.0,255.0
70,3.5,-4.5,-3.0,-2.2617,-1.7472414150833993e-11,-1.2642102915979955e-11,-1.0561890917560235,-2.421048723210385e-10,-1.7517411651993502e-10,-0.08539999893350725,0,70,255.0,255.0,255.0
71,3.5500000000000003,-4.500000000001082,-3.0000000000007816,-2.314613676403223,-2.3849394983970267e-11,-1.7256144644260087e-11,-1.0603074007079734,-1.2974361004411004e-11,-9.387552611269323e-12,-0.07933235914448954,0,70,255.0,255.0,255.0
72,3.6,-4.500000000002194,-3.0000000000015876,-2.3677256837043066,-1.87698502512752e-11,-1.3580858177106963e-11,-1.0641223276704723,2.1615615031221448e-10,1.5639901129739488e-10,-0.07326471935547188,0,70,255.0,255.0,255.0
73,3.6500000000000004,-4.500000000002768,-3.000000000002002,-2.4210208528037795,-2.2337799527486963e-12,-1.6162435145205122e-12,-1.0676338726435206,4.45286661628842e-10,3.2218557520606055e-10,-0.06719707956645418,0,70,255.0,255.0,255.0
74,3.7,-4.500000000002227,-3.0000000000016107,-2.4744840146021674,2.575881591160894e-11,1.863769934349905e-11,-1.070842035627118,6.744171729454675e-10,4.879721391147248e-10,-0.061129439777436526,0,70,255.0,255.0,255.0
75,3.75,-4.5,-3.0,-2.5281,6.520793734179781e-11,4.718097039695179e-11,-1.0737468166212643,9.035476842620927e-10,6.53758703023389e-10,-0.055061799988425975,0,70,255.0,255.0,255.0
76,3.8000000000000003,-4.499999999995966,-2.999999999997082,-2.5818533089978093,8.900715380995534e-11,6.44008085551362e-11,-1.0763283616263075,4.842097446420309e-11,3.503482330398374e-11,-0.048200000213302695,0,70,255.0,255.0,255.0
77,3.85,-4.499999999991811,-2.9999999999940754,-2.6357271179961512,7.005003478821848e-11,5.068445272735043e-11,-1.0785668166425944,-8.067057353336791e-10,-5.836890564154162e-10,-0.04133820043817947,0,70,255.0,255.0,255.0
78,3.9000000000000004,-4.499999999989673,-2.9999999999925286,-2.6897042724955895,8.33658027658695e-12,6.031902913594262e-12,-1.0804621816701254,-1.6618324451315687e-09,-1.2024129361348214e-09,-0.03447640066305619,0,70,255.0,255.0,255.0
79,3.95,-4.49999999999169,-2.999999999993988,-2.743767617996685,-9.613320972493814e-11,-6.955684088613155e-11,-1.0820144567089003,-2.516959154929451e-09,-1.8211368158542213e-09,-0.02761460088793297,0,70,255.0,255.0,255.0
80,4.0,-4.5,-3.0,-2.7979,-2.433593352163572e-10,-1.760817786718272e-10,-1.083223641758919,-3.372085864727333e-09,-2.4398606955736206e-09,-0.02075280111281863,0,70,255.0,255.0,255.0
81,4.05,-4.500000000015054,-3.0000000000108917,-2.8520850876055404,-3.321792202558509e-10,-2.4034708957628466e-10,-1.0841391527867974,-1.8070953685243002e-10,-1.3075174060468566e-10,-0.015867640002322873,0,70,255.0,255.0,255.0
82,4.1000000000000005,-4.500000000030559,-3.0000000000221103,-2.906309844311088,-2.6143028890159746e-10,-1.8915695273229384e-10,-1.0848104057591512,3.01066679102253e-09,2.17835721436429e-09,-0.010982478891827033,0,70,255.0,255.0,255.0
83,4.15,-4.500000000038537,-3.000000000027883,-2.9605620572138642,-3.1112541153599164e-11,-2.2511368139856567e-11,-1.0852374006759802,6.202043118897433e-09,4.487466169333224e-09,-0.006097317781331279,0,70,255.0,255.0,255.0
84,4.2,-4.500000000031011,-3.0000000000224376,-3.0148295134110934,3.5877402298814355e-10,2.5958966420102696e-10,-1.0854201375372845,9.393419446772337e-09,6.796575124302159e-09,-0.0012121566708355215,0,70,255.0,255.0,255.0
85,4.25,-4.5,-3.0,-3.0691,9.08229403523631e-10,6.57146144290357e-10,-1.0853586163430637,1.2584795774647236e-08,9.105684079271095e-09,0.003673004439667338,0,70,255.0,255.0,255.0
86,4.3,-4.499999999943819,-2.9999999999593516,-3.1233599405800274,1.2397097272134484e-09,8.969875497500025e-10,-1.0849710272265076,6.744171729455069e-10,4.879721391147541e-10,0.01183056022257422,0,70,255.0,255.0,255.0
87,4.3500000000000005,-4.499999999885954,-2.999999999917483,-3.177590304759499,9.756711208181714e-10,7.059433582018252e-10,-1.0841755603208063,-1.1235961428756434e-08,-8.129739801041738e-09,0.019988116005481248,0,70,255.0,255.0,255.0
88,4.4,-4.499999999856178,-2.9999999998959384,-3.231770698648956,1.1611358433780973e-10,8.401356964583144e-11,-1.0829722156259596,-2.314634003045816e-08,-1.674745174119808e-08,0.02814567178838813,0,70,255.0,255.0,255.0
89,4.45,-4.499999999884269,-2.9999999999162625,-3.285880728358942,-1.3389628822276364e-09,-9.688018159179766e-10,-1.0813609931419677,-3.5056718632159896e-08,-2.536516368135442e-08,0.03630322757129501,0,70,255.0,255.0,255.0
90,4.5,-4.5,-3.0,-3.3399,-3.3895582788781667e-09,-2.452502798489601e-09,-1.07934189286883,-4.696709723386161e-08,-3.398287562151076e-08,0.044460783354205446,0,70,255.0,255.0,255.0
91,4.55,-4.500000000209665,-3.0000000001517027,-3.3938095500743493,-4.626659688597943e-09,-3.347603109423725e-09,-1.0770007383071731,-2.5169591549295974e-09,-1.8211368158543367e-09,0.04918539911207097,0,70,255.0,255.0,255.0
92,4.6000000000000005,-4.500000000425624,-3.000000000307959,-3.44759613665092,-3.641254194371088e-09,-2.6346164800750073e-09,-1.074423352957623,4.193317892400321e-08,3.0340601989802655e-08,0.053910014869936566,0,70,255.0,255.0,255.0
93,4.65,-4.50000000053675,-3.0000000003883636,-3.501247948190314,-4.3334179619763873e-10,-3.135429104434723e-10,-1.0716097368201796,8.638331700293522e-08,6.250234079545909e-08,0.05863463062780209,0,70,255.0,255.0,255.0
94,4.7,-4.500000000431917,-3.000000000312512,-3.5547531731531388,4.997077505922403e-09,3.6156175994708803e-09,-1.0685598898948427,1.3083345508186722e-07,9.466407960111551e-08,0.0633592463856676,0,70,255.0,255.0,255.0
95,4.75,-4.5,-3.0,-3.6081,1.2650003711989035e-08,9.152865049668046e-09,-1.0652738121816125,1.7528359316079918e-07,1.268258184067719e-07,0.0680838621435349,0,70,255.0,255.0,255.0
96,4.800000000000001,-4.499999999217516,-2.9999999994338364,-3.6612754591225745,1.7266929027178328e-08,1.2493424887944903e-08,-1.0616820195447954,9.393419446769932e-09,6.796575124300442e-09,0.07558784332914936,0,70,255.0,255.0,255.0
97,4.8500000000000005,-4.499999998411549,-2.9999999988506816,-3.714261948636825,1.3589345656666181e-08,9.832522562098198e-09,-1.0577150278486975,-1.5649675426725635e-07,-1.132326681581689e-07,0.08309182451476368,0,70,255.0,255.0,255.0
98,4.9,-4.499999997996823,-2.999999998550609,-3.7670407085897892,1.6172536004527477e-09,1.1701580721280523e-09,-1.053372837093319,-3.223869279812827e-07,-2.3326191144063825e-07,0.09059580570037801,0,70,255.0,255.0,255.0
99,4.95,-4.4999999983880645,-2.9999999988336903,-3.819592979028502,-1.8649347141461965e-08,-1.3493668581965535e-08,-1.0486554472786598,-4.882771016953089e-07,-3.532911547231076e-07,0.09809978688599233,0,70,255.0,255.0,255.0
100,5.0,-4.5,-3.0,-3.8719,-4.721045656907797e-08,-3.415895740018258e-08,-1.04356285840472,-6.541672754093352e-07,-4.7332039800557694e-07,0.10560376807160132,0,70,255.0,255.0,255.0
101,5.050000000000001,-4.500000002920269,-3.0000000021129503,-3.923943813435356,-6.444105642011538e-08,-4.6626096442355884e-08,-1.0381431835136474,-3.505671863215107e-08,-2.536516368134806e-08,0.1111832275712996,0,70,255.0,255.0,255.0
102,5.1000000000000005,-4.50000000592818,-3.0000000042893133,-3.9757096688017826,-5.0716128432293644e-08,-3.66954737683178e-08,-1.03244453564759,5.840538381450221e-07,4.225900706428729e-07,0.1167626870709978,0,70,255.0,255.0,255.0
103,5.15,-4.500000007475956,-3.0000000054092015,-4.0271836174505315,-6.035672605613354e-09,-4.367089378068756e-09,-1.0264669148065477,1.2031643949221955e-06,8.705453049670937e-07,0.12234214657069598,0,70,255.0,255.0,255.0
104,5.2,-4.500000006015822,-3.0000000043527266,-4.078351710732854,6.960031105992544e-08,5.0359056728391265e-08,-1.0202103209905204,1.8222749516993684e-06,1.3185005392913146e-06,0.12792160607039416,0,70,255.0,255.0,255.0
105,5.25,-4.5,-3.0,-4.1292,1.7619182256432285e-07,1.2748296455106228e-07,-1.0136747541995086,2.441385508476541e-06,1.7664557736155356e-06,0.13350106557008345,0,70,255.0,255.0,255.0
106,5.300000000000001,-4.499999989101407,-2.9999999921143616,-4.179714087136007,2.404972966532831e-07,1.740109608814786e-07,-1.0068332464006144,1.3083345508183355e-07,9.466407960109137e-08,0.14015924638567664,0,70,255.0,255.0,255.0
107,5.3500000000000005,-4.49999997787573,-2.9999999839920632,-4.229877776156049,1.8927516807250836e-07,1.3694937251117294e-07,-0.9996588295609408,-2.1797185983128325e-06,-1.5771276144133232e-06,0.1468174272012697,0,70,255.0,255.0,255.0
108,5.4,-4.49999997209935,-2.9999999798125847,-4.279674421608088,2.2525436822000627e-08,1.6298199440146892e-08,-0.9921515036804875,-4.490270651707499e-06,-3.2489193084277378e-06,0.15347560801686275,0,70,255.0,255.0,255.0
109,5.45,-4.499999977548647,-2.999999983755403,-4.329087378040084,-2.5975189709823987e-07,-1.8794255833159968e-07,-0.9843112687592547,-6.8008227051021656e-06,-4.920711002442152e-06,0.16013378883245583,0,70,255.0,255.0,255.0
110,5.5,-4.5,-3.0,-4.3781,-6.575568336882134e-07,-4.757729008040665e-07,-0.9761381247972422,-9.111374758496833e-06,-6.592502696456565e-06,0.16679196964804976,0,70,255.0,255.0,255.0
111,5.550000000000001,-4.500000040674103,-3.0000000294296014,-4.42669583802062,-8.975481301930174e-07,-6.494177470835585e-07,-0.9676438308838913,-4.882771016951861e-07,-3.532911547230184e-07,0.17297978688597934,0,70,255.0,255.0,255.0
112,5.6000000000000005,-4.500000082568898,-3.000000059742432,-4.474859226574025,-7.063845438577399e-07,-5.111020162763739e-07,-0.9588401461086442,8.134820555106305e-06,5.885920387010418e-06,0.1791676041239088,0,70,255.0,255.0,255.0
113,5.65,-4.500000104126642,-3.0000000753404605,-4.52257469611712,-8.406607468238937e-08,-6.08257083825188e-08,-0.9497270704715005,1.67579182119078e-05,1.2125131928743852e-05,0.1853554213618383,0,70,255.0,255.0,255.0
114,5.7,-4.500000083789591,-3.0000000606256596,-4.569826777106809,9.694072773330339e-07,7.01411176598007e-07,-0.9403046039724604,2.5381015868709294e-05,1.836434347047729e-05,0.19154323859976777,0,70,255.0,255.0,255.0
115,5.75,-4.5,-3.0,-4.6166,2.4540355121885307e-06,1.7756086386652035e-06,-0.9305727466115239,3.400411352551078e-05,2.4603555012210725e-05,0.19773105583769635,0,70,255.0,255.0,255.0
116,5.800000000000001,-4.499999848202182,-2.9999998901672305,-4.662878560781516,3.3496952241187853e-06,2.4236600274527553e-06,-0.9205114300638213,1.8222749516989044e-06,1.318500539290981e-06,0.20472160607039822,0,70,255.0,255.0,255.0
117,5.8500000000000005,-4.499999691848677,-2.999999777038209,-4.708645317547855,2.6362630073584506e-06,1.907458692594324e-06,-0.910100586004484,-3.03595636221124e-05,-2.196655393362835e-05,0.21171215630309995,0,70,255.0,255.0,255.0
118,5.9,-4.49999961139408,-2.999999718825573,-4.753882793923437,3.137388619075563e-07,2.27004634089928e-07,-0.8993402144335114,-6.25414021959237e-05,-4.5251608406547674e-05,0.21870270653580168,0,70,255.0,255.0,255.0
119,5.95,-4.499999687292989,-2.999999773741958,-4.798573513532679,-3.6178772122338968e-06,-2.6177021480604283e-06,-0.8882303153509039,-9.472324076973501e-05,-6.853666287946701e-05,0.22569325676850344,0,70,255.0,255.0,255.0
120,6.0,-4.5,-3.0,-4.8427,-9.158585215065909e-06,-6.626661653856748e-06,-0.8767708887566611,-0.00012690507934354624,-9.182171735238633e-05,0.23268380700120783,0,70,255.0,255.0,255.0
121,6.050000000000001,-4.500000566517169,-3.000000409901477,-4.886246718853319,-1.2501232766282124e-05,-9.045222362727463e-06,-0.8650784488608194,-6.800822705100418e-06,-4.920711002440897e-06,0.23501378883245239,0,70,255.0,255.0,255.0
122,6.1000000000000005,-4.500001150036396,-3.000000832104731,-4.929205903234556,-9.83866748557606e-06,-7.118732754100918e-06,-0.8532695098734157,0.00011330343393334326,8.198029534750299e-05,0.23734377066369688,0,70,255.0,255.0,255.0
123,6.15,-4.500001450297037,-3.0000010493572473,-4.971571728189134,-1.1708893729478367e-06,-8.471928279771953e-07,-0.8413440717944498,0.00023340769057178697,0.00016888130169744688,0.23967375249494138,0,70,255.0,255.0,255.0
124,6.2,-4.5000011670384525,-3.0000008444065087,-5.013338368762475,1.350210157160255e-05,9.769397415643706e-06,-0.8293021346239217,0.00035351194721023064,0.00025578230804739074,0.24200373432618588,0,70,255.0,255.0,255.0
125,6.25,-4.5,-3.0,-5.0545,3.41803053480751e-05,2.4731037976761788e-05,-0.8171436983618312,0.0004736162038486743,0.0003426833143973347,0.2443337161574366,0,70,255.0,255.0,255.0
126,6.300000000000001,-4.499997885729139,-2.999998470226863,-5.095041763805211,4.6655235841009705e-05,3.37572294234571e-05,-0.804326774492901,2.5381015868702883e-05,1.83643434704727e-05,0.26834323859976017,0,70,255.0,255.0,255.0
127,6.3500000000000005,-4.499995708005739,-2.9999968945428663,-5.1349126695139224,3.6718406934945806e-05,2.6567472323809355e-05,-0.7903093745018551,-0.00042285417211126053,-0.00030595462745638355,0.2923527610420833,0,70,255.0,255.0,255.0
128,6.4,-4.499994587417769,-2.9999960837454394,-5.174052693320028,4.369818629883796e-06,3.1617666778188523e-06,-0.7750914983886928,-0.000871089360091224,-0.0006302735983832399,0.3163622834844064,0,70,255.0,255.0,255.0
129,6.45,-4.4999956445531994,-2.999996848632008,-5.212401811417423,-5.039052907417627e-05,-3.6459887514514406e-05,-0.7586731461534146,-0.0013193245480711876,-0.0009545925693100962,0.34037180592672955,0,70,255.0,255.0,255.0
130,6.5,-4.5,-3.0,-5.2499,-0.0001275626361772345,-9.229749025319041e-05,-0.74105431779602,-0.0017675597360511507,-0.0012789115402369517,0.364381328369058,0,70,255.0,255.0,255.0
131,6.550000000000001,-4.500007890566272,-3.0000065091910724,-5.286480625925841,-0.00017411971059775667,-0.00017398369533120356,-0.7218384531675804,-9.472324076971093e-05,-0.001988536662883529,0.40425325676851664,0,70,255.0,255.0,255.0
132,6.6000000000000005,-4.500016017940648,-3.000017989723802,-5.322050618709759,-0.00013703496025420714,-0.0002911511565415437,-0.7006289921191682,0.001578113254511699,-0.002698161785530093,0.44412518516797456,0,70,255.0,255.0,255.0
133,6.65,-4.5000202000318845,-3.000036215660995,-5.3565102985307576,-1.6308385146587346e-05,-0.0004437998738842119,-0.6774259346507832,0.003250949749793109,-0.0034077869081766575,0.48399711356743247,0,70,255.0,255.0,255.0
134,6.7,-4.500016254748749,-3.0000629610654594,-5.389759985567838,0.00018806001472510258,-0.0006319298473592082,-0.6522292807624251,0.004923786245074519,-0.0041174120308232216,0.5238690419668903,0,70,255.0,255.0,255.0
135,6.75,-4.5,-3.0001,-5.4217,0.0004760702393608628,-0.0008555410769665326,-0.6250390304540941,0.006596622740355929,-0.004827037153469785,0.563740970366351,0,70,255.0,255.0,255.0
136,6.800000000000001,-4.499968952005771,-3.0001482930088486,-5.452258132491431,0.0007458236065502223,-0.0010658224481018713,-0.59750341283678,0.004193511947218299,-0.0035842176919436424,0.5376837343261981,0,70,255.0,255.0,255.0
137,6.8500000000000005,-4.499927420231672,-3.0002055465619257,-5.481472055647045,0.0008954214340826971,-0.0012139628461608999,-0.571270657021474,0.0017904011540807122,-0.002341398230417522,0.5116264982860457,0,70,255.0,255.0,255.0
138,6.9,-4.49988141245469,-3.0002686536105796,-5.509406912556946,0.000924863721958293,-0.0012999622711436227,-0.5463407630081756,-0.0006127096390568746,-0.0010985787688914013,0.4855692622458932,0,70,255.0,255.0,255.0
139,6.95,-4.499836936451804,-3.000334507106156,-5.53612784631123,0.0008341504701770098,-0.0013238207230500396,-0.5227137307968849,-0.0030158204321944614,0.00014424069263471902,0.4595120262057407,0,70,255.0,255.0,255.0
140,7.0,-4.4998,-3.0004,-5.5617,0.000623281678738848,-0.0012855382018801505,-0.5003895603876019,-0.00541893122533205,0.001387060154160848,0.4334547901655874,0,70,255.0,255.0,255.0
141,7.050000000000001,-4.4997747014106455,-3.000462718773536,-5.58618284410844,0.00040682528440345026,-0.0012267265122589926,-0.47902789548529356,-0.003239324548083734,0.0009654074306854269,0.4210118059267307,0,70,255.0,255.0,255.0
142,7.1000000000000005,-4.499757501132661,-3.0005230240284955,-5.609613158702063,0.0002993492239304709,-0.001188997458811607,-0.4582883797949286,-0.0010597178708354566,0.0005437547072100132,0.40856882168787423,0,70,255.0,255.0,255.0
143,7.15,-4.499742950149355,-3.000581969896687,-5.632022051241465,0.000300853497319905,-0.0011723510415379917,-0.4381710133165063,0.0011198888064128205,0.00012210198373459953,0.39612583744901775,0,70,255.0,255.0,255.0
144,7.2,-4.499725599444032,-3.000640610509919,-5.653440629187246,0.00041133810457175254,-0.001176787260438147,-0.4186757960500269,0.0032994954836610985,-0.00029955073974081395,0.38368285321016127,0,70,255.0,255.0,255.0
145,7.25,-4.4997,-3.0007,-5.6739,0.0006308030456860138,-0.001202306115512073,-0.3998027279954904,0.005479102160909378,-0.0007212034632162207,0.37123986897130345,0,70,255.0,255.0,255.0
146,7.300000000000001,-4.4996626423516455,-3.000760831897008,-5.693431291074813,0.0008428752558352988,-0.0012272715028630696,-0.38155300522203583,0.0030037862450619005,-0.000277412030823634,0.35874904196686713,0,70,255.0,255.0,255.0
147,7.3500000000000005,-4.49961777523768,-3.0008223573240924,-5.712065709544707,0.0009311816701922077,-0.0012300473185944368,-0.36392782379880345,0.000528470329214467,0.0001663794015689448,0.34625821496243103,0,70,255.0,255.0,255.0
148,7.4,-4.49957158694789,-3.0008834668026734,-5.729834482477197,0.0008957222887567453,-0.0012106335627061753,-0.34692718372579284,-0.001946845586632967,0.0006101708339615237,0.3337673879579949,0,70,255.0,255.0,255.0
149,7.45,-4.499530265772067,-3.00094305085417,-5.746768836939791,0.0007364971115289116,-0.0011690302351982848,-0.33055108500300406,-0.004422161502480401,0.0010539622663541025,0.3212765609535588,0,70,255.0,255.0,255.0
150,7.5,-4.4995,-3.001,-5.7629,0.0004535061385087069,-0.0011052373360707654,-0.31479952763043717,-0.006897477418327833,0.0014977536987466882,0.30878573394912134,0,70,255.0,255.0,255.0
151,7.550000000000001,-4.49948512918277,-3.0010531536384324,-5.778260791592312,0.0001576736922461844,-0.0010161874762861275,-0.29976808362656504,-0.004935820432172899,0.0020642406926387803,0.29247202620575385,0,70,255.0,255.0,255.0
152,7.6000000000000005,-4.499482597916621,-3.0011011466751336,-5.7928904031191095,-4.007590470858741e-05,-0.0008988132668068867,-0.2855523250098616,-0.0029741634460179996,0.002630727686530862,0.27615831846238664,0,70,255.0,255.0,255.0
153,7.65,-4.499487502059086,-3.001142562892618,-5.8068296188497515,-0.0001397426523556145,-0.0007531147076330422,-0.2721522517803265,-0.0010125064598630997,0.003197214680422944,0.25984461071901943,0,70,255.0,255.0,255.0
154,7.7,-4.499494937467701,-3.0011759860734015,-5.820119223053594,-0.0001413265506948969,-0.0005790917987645934,-0.2595678639379598,0.0009491505262917994,0.003763701674315026,0.24353090297565222,0,70,255.0,255.0,255.0
155,7.75,-4.4995,-3.0012,-5.8328,-4.482759972643471e-05,-0.00037674454020154076,-0.24779916148276135,0.0029108075124466993,0.004330188668207111,0.22721719523228656,0,70,255.0,255.0,255.0
156,7.800000000000001,-4.499499240917275,-3.0012129535492615,-5.84491114255594,6.242997517637292e-05,-0.00013197859199021498,-0.23675066027169997,0.0013794954836655446,0.0054604492602457816,0.21472285321016266,0,70,255.0,255.0,255.0
157,7.8500000000000005,-4.49949503309584,-3.0012122559753722,-5.856485477978855,9.312194864012188e-05,0.00016930038582303926,-0.22632687616174496,-0.0001518165451155828,0.006590709852284432,0.20222851118803895,0,70,255.0,255.0,255.0
158,7.9,-4.499491204815768,-3.0011950816268524,-5.867554242123799,4.7248320664814694e-05,0.0005270923932382259,-0.21652780915289613,-0.0016831285738967104,0.007720970444323082,0.18973416916591526,0,70,255.0,255.0,255.0
159,7.95,-4.499491584357131,-3.001158604852222,-5.87814867084583,-7.519090874954864e-05,0.0009413974302553448,-0.20735345924515353,-0.003214440602677838,0.008851231036361732,0.17723982714379155,0,70,255.0,255.0,255.0
160,8.0,-4.4995,-3.0011,-5.8883,-0.00027419573960296803,0.0014122154968743959,-0.19880382643851707,-0.0047457526314589665,0.009981491628400393,0.16474548512166853,0,70,255.0,255.0,255.0
161,8.05,-4.499519507148133,-3.001017432164522,-5.898040238183927,-0.0005033935929514551,0.0018801018442434565,-0.19092527528663658,-0.004422161502480386,0.00873396226636177,0.1503965609535469,0,70,255.0,255.0,255.0
162,8.1,-4.499550069700021,-3.0009130294233772,-5.90740448496547,-0.0007164118898510057,0.0022856117235105717,-0.18376417034316242,-0.004098570373501817,0.007486432904323192,0.13604763678542575,0,70,255.0,255.0,255.0
163,8.15,-4.499590878677844,-3.000789910599972,-5.916428612655051,-0.0009132506303016349,0.002628745134675771,-0.17732051160809406,-0.0037749792445232366,0.00623890354228457,0.12169871261730413,0,70,255.0,255.0,255.0
164,8.200000000000001,-4.499641125103777,-3.0006511945177112,-5.9251484935630865,-0.0010939098143033347,0.002909502077739038,-0.17159429908143184,-0.003451388115544656,0.004991374180245947,0.10734978844918248,0,70,255.0,255.0,255.0
165,8.25,-4.4997,-3.0005,-5.9336,-0.0012583894418560998,0.0031278825527003666,-0.1665855327631758,-0.003127796986566088,0.003743844818207373,0.09300086428106202,0,70,255.0,255.0,255.0
166,8.3,-4.499766730490196,-3.0003381177926522,-5.941819104708352,-0.001408855603363162,0.0033635712150137448,-0.1623002385817572,-0.0028908494737163067,0.0056837016743276295,0.07841090297567954,0,70,255.0,255.0,255.0
167,8.35,-4.499840688104076,-3.0001620263311186,-5.949842182159264,-0.0015474743892277298,0.003696252720133124,-0.15874444246560784,-0.002653901960866534,0.007623558530447817,0.06382094167029756,0,70,255.0,255.0,255.0
168,8.4,-4.499921280472858,-2.999966875973259,-5.957705707256,-0.0016742457994498138,0.004125927068058527,-0.1559181444147275,-0.002416954448016753,0.009563415386568071,0.04923098036491507,0,70,255.0,255.0,255.0
169,8.450000000000001,-4.50000791522776,-2.999747817076933,-5.965446154901824,-0.0017891698340294086,0.004652594258789945,-0.15382134442911627,-0.0021800069351669716,0.011503272242688328,0.03464101905953258,0,70,255.0,255.0,255.0
170,8.5,-4.5001,-2.9995,-5.9731,-0.0018922464929665107,0.005276254292327353,-0.15245404250877426,-0.001943059422317199,0.013443129098808529,0.020051057754150392,0,70,255.0,255.0,255.0
171,8.55,-4.500197570891085,-2.9992196966648694,-5.980703342982667,-0.0020211839935918153,0.0059296132957063945,-0.1517937703863264,-0.0032144406026949042,0.012691231036352777,0.00635982714376338,0,70,255.0,255.0,255.0
172,8.6,-4.5003031778836755,-2.998907665252148,-5.988290786397474,-0.0022136905532359977,0.006545377395962627,-0.15181805979439789,-0.004485821783072564,0.011939332973897052,-0.007331403466623147,0,70,255.0,255.0,255.0
173,8.65,-4.500419999430725,-2.998565785506992,-5.995896558320949,-0.002469766171899072,0.0071235465930960945,-0.15252691073298874,-0.005757202963450269,0.011187434911441299,-0.02102263407701016,0,70,255.0,255.0,255.0
174,8.700000000000001,-4.500551213985183,-2.998195937174557,-6.003554886829615,-0.0027894108495810327,0.007664120887106773,-0.15392032320209895,-0.007028584143827974,0.010435536848985547,-0.03471386468739717,0,70,255.0,255.0,255.0
175,8.75,-4.5007,-2.9978,-6.0113,-0.003172624586281865,0.008167100277994646,-0.1559982972017284,-0.008299965324205606,0.009683638786529794,-0.04840509529778303,0,70,255.0,255.0,255.0
176,8.8,-4.500868585945466,-2.9973790955478696,-6.0191659233609816,-0.0035624084222749763,0.008677975602163712,-0.1587486798729434,-0.007291388115518636,0.010751374180232556,-0.061610211550815266,0,70,255.0,255.0,255.0
177,8.85,-4.501055400361221,-2.9969313126602883,-6.027185872250838,-0.0039017633978337277,0.009242237696017896,-0.16215931835680988,-0.0062828109068317015,0.011819109573935277,-0.07481532780384703,0,70,255.0,255.0,255.0
178,8.9,-4.501257921804242,-2.9964539819987728,-6.035392859460206,-0.004190689512958142,0.009859886559557237,-0.16623021265332807,-0.005274233698144731,0.012886844967638039,-0.08802044405687925,0,70,255.0,255.0,255.0
179,8.950000000000001,-4.5014736288315085,-2.9959444342248385,-6.043819897779716,-0.004429186767648208,0.010530922192781718,-0.1709613627624979,-0.00426565648945776,0.013954580361340799,-0.10122556030991149,0,70,255.0,255.0,255.0
180,9.0,-4.5017,-2.9954,-6.0525,-0.004617255161903919,0.011255344595691311,-0.1763527686843192,-0.0032570792807708124,0.015022315755043522,-0.11443067656294348,0,70,255.0,255.0,255.0
181,9.05,-4.501935285327051,-2.9948183211436517,-6.061467363573411,-0.004801182317302681,0.01201448429563482,-0.18247551012190388,-0.004100006935179567,0.015343272242696406,-0.13047898094044094,0,70,255.0,255.0,255.0
182,9.1,-4.502180820671442,-2.9941982841066968,-6.070760924599171,-0.005027255855421873,0.012789671819960945,-0.1894006667783632,-0.004942934589588292,0.01566422873034928,-0.14652728531793782,0,70,255.0,255.0,255.0
183,9.15,-4.502438713352305,-2.993539086497916,-6.080420803838228,-0.00529547577626151,0.013580907168669743,-0.19712823865369766,-0.005785862243997047,0.01598518521800216,-0.16257558969543526,0,70,255.0,255.0,255.0
184,9.200000000000001,-4.50271107068878,-2.99283992592609,-6.090487122051523,-0.005605842079821585,0.014388190341761184,-0.205658225747907,-0.006628789898405801,0.016306141705655045,-0.17862389407293272,0,70,255.0,255.0,255.0
185,9.25,-4.503,-2.9921,-6.101,-0.005958354766102086,0.015211521339235241,-0.21499062806099084,-0.00747171755281454,0.01662709819330789,-0.1946721984504296,0,70,255.0,255.0,255.0
186,9.3,-4.503307072746326,-2.991318819877524,-6.111997422345378,-0.006320862308518154,0.01603208721529289,-0.22499727963943733,-0.007028584143827938,0.01619553684899769,-0.20559386468742466,0,70,255.0,255.0,255.0
187,9.35,-4.503631716953011,-2.9904971509129243,-6.123508829352475,-0.006661213180484879,0.016831075024135007,-0.23555001452973323,-0.0065854507348413515,0.015763975504687507,-0.21651553092441933,0,70,255.0,255.0,255.0
188,9.4,-4.503972824786533,-2.989636072009564,-6.135561525186882,-0.006979407382002285,0.017608484765761635,-0.2466488327318792,-0.00614231732585475,0.015332414160377306,-0.22743719716141442,0,70,255.0,255.0,255.0
189,9.450000000000001,-4.50432928841337,-2.988736662070802,-6.148182814014194,-0.007275444913070362,0.018364316440172758,-0.258293734245875,-0.005699183916868147,0.014900852816067105,-0.23835886339840948,0,70,255.0,255.0,255.0
190,9.5,-4.5047,-2.9878,-6.1614,-0.007549325773689099,0.019098570047368344,-0.27048471907172006,-0.00525605050788152,0.014469291471756934,-0.24928052963540415,0,70,255.0,255.0,255.0
191,9.55,-4.505084423687644,-2.9868263993462545,-6.175233347045078,-0.007835368448622473,0.019857166843195686,-0.28279937132035293,-0.006185656489453296,0.015874580361336325,-0.24330556030990422,0,70,255.0,255.0,255.0
192,9.600000000000001,-4.505484311516513,-2.985813112241606,-6.189674957990932,-0.008167891422634438,0.020686028083501996,-0.2948152751027108,-0.007115262471025072,0.017279869250915715,-0.23733059098440432,0,70,255.0,255.0,255.0
193,9.65,-4.505901987501559,-2.9847566254638296,-6.204709895414246,-0.008546894695724975,0.02158515376828725,-0.3065324304187933,-0.008044868452596814,0.018685158140495053,-0.2313556216589046,0,70,255.0,255.0,255.0
194,9.700000000000001,-4.506339775657737,-2.9836534257907026,-6.220323221891706,-0.008972378267894118,0.0225545438975515,-0.31795083726860124,-0.00897447443416859,0.020090447030074447,-0.22538065233340468,0,70,255.0,255.0,255.0
195,9.75,-4.5068,-2.9825,-6.2365,-0.00944434213914183,0.023594198471294684,-0.3290704956521337,-0.009904080415740271,0.021495735919653786,-0.21940568300790497,0,70,255.0,255.0,255.0
196,9.8,-4.507284032503095,-2.981293982737458,-6.253227589474311,-0.009905663896995801,0.024635245411927194,-0.34002923507915417,-0.008548789898418336,0.020146141705646055,-0.21894389407290663,0,70,255.0,255.0,255.0
197,9.850000000000001,-4.507789436980935,-2.980037600120652,-6.270502538683804,-0.010299221128983675,0.025608812641859317,-0.3509648850594247,-0.0071934993810964,0.018796547491638328,-0.21848210513790825,0,70,255.0,255.0,255.0
198,9.9,-4.508312825207228,-2.978734226135117,-6.288323693156141,-0.01062501383510544,0.026514900161091023,-0.3618774455929449,-0.005838208863774512,0.017446953277630645,-0.2180203162029099,0,70,255.0,255.0,255.0
199,9.950000000000001,-4.508850808955682,-2.977387234766388,-6.306689898418986,-0.010883042015361121,0.027353507969622375,-0.37276691667971557,-0.0044829183464525765,0.016097359063622918,-0.21755852726791156,0,70,255.0,255.0,255.0
200,10.0,-4.5094,-2.976,-6.3256,-0.011073305669750698,0.028124636067453312,-0.383633298319736,-0.003127627829130619,0.01474776484961507,-0.21709673833291365,0,70,255.0,255.0,255.0
201,10.05,-4.509957846299978,-2.9745752697039123,-6.34505309505768,-0.011245975963399928,0.028865851509095375,-0.39449168836302007,-0.0037791839168385116,0.014900852816067064,-0.2172388633984413,0,70,255.0,255.0,255.0
202,10.100000000000001,-4.510525140559746,-2.973113287275785,-6.365049287273857,-0.011451224061434555,0.029614721349060038,-0.4053571846595805,-0.004430740004546404,0.015053940782519058,-0.217380988463969,0,70,255.0,255.0,255.0
203,10.15,-4.5111035116695275,-2.971613669995701,-6.385588931961193,-0.011689049963854567,0.030371245587347277,-0.41622978720941683,-0.005082296092254273,0.015207028748971048,-0.21752311352949666,0,70,255.0,255.0,255.0
204,10.200000000000001,-4.511694588519538,-2.970076035143745,-6.406672384432352,-0.01195945367065998,0.03113542422395714,-0.42710949601253007,-0.005733852179962165,0.015360116715423042,-0.21766523859502432,0,70,255.0,255.0,255.0
205,10.25,-4.5123,-2.9685,-6.4283,-0.012262435181850778,0.03190725725888958,-0.4379963110689192,-0.00638540826767002,0.015513204681874837,-0.21780736366055065,0,70,255.0,255.0,255.0
206,10.3,-4.512921382296995,-2.9668849384468916,-6.450471230294969,-0.012598432249397285,0.03270134855168855,-0.44883601146876834,-0.007054474434190095,0.016250447030083316,-0.21578065233340973,0,70,255.0,255.0,255.0
207,10.350000000000001,-4.5135604007800785,-2.9652292507762072,-6.473181912220772,-0.012967882625269798,0.03353230196189793,-0.45957437630226045,-0.007723540600710171,0.01698768937829179,-0.21375394100626885,0,70,255.0,255.0,255.0
208,10.4,-4.5142187281146615,-2.9635310938820787,-6.496426978999089,-0.013370786309468297,0.03440011748951772,-0.47021140556939517,-0.008392606767230222,0.01772493172650024,-0.21172722967912802,0,70,255.0,255.0,255.0
209,10.450000000000001,-4.514898036966164,-2.9617886246586327,-6.520201363851605,-0.013807143301992819,0.03530479513454795,-0.4807470992701732,-0.009061672933750299,0.01846217407470872,-0.2097005183519871,0,70,255.0,255.0,255.0
210,10.5,-4.5156,-2.96,-6.5445,-0.014276953602843324,0.03624633489698857,-0.49118145740459385,-0.009730739100270294,0.019199416422917115,-0.20767380702484495,0,70,255.0,255.0,255.0
211,10.55,-4.516325424512037,-2.9581641765085216,-6.569318783762446,-0.014728295039011604,0.03717675428415197,-0.5015722657619122,-0.008322918346460633,0.018017359063618437,-0.2079585272678827,0,70,255.0,255.0,255.0
212,10.600000000000001,-4.51707165631994,-2.9562833096193843,-6.5946574638430615,-0.0151092454374894,0.038048070803350445,-0.5119773101313824,-0.006915097592650972,0.01683530170431976,-0.20824324751092044,0,70,255.0,255.0,255.0
213,10.65,-4.5178351758718245,-2.9543603544759858,-6.6205167520424535,-0.0154198047982767,0.03886028445458394,-0.5223965905130041,-0.005507276838841361,0.015653244345021126,-0.20852796775395815,0,70,255.0,255.0,255.0
214,10.700000000000001,-4.518612463615806,-2.952398266221725,-6.646897360161232,-0.015659973121373533,0.039613395237852546,-0.5328301069067782,-0.0040994560850317,0.014471186985722449,-0.2088126879969959,0,70,255.0,255.0,255.0
215,10.75,-4.5194,-2.9504,-6.6738,-0.01582975040677987,0.040307403153156195,-0.5432778593127037,-0.002691635331222131,0.013289129626423979,-0.20909740824003187,0,70,255.0,255.0,255.0
216,10.8,-4.520195319654857,-2.948367955519022,-6.70122483465525,-0.015992387594559166,0.04097563431170227,-0.5537069254835804,-0.003813852179949611,0.013440116715418973,-0.20806523859502837,0,70,255.0,255.0,255.0
217,10.850000000000001,-4.5210001739401635,-2.946302310746256,-6.7291698324069875,-0.016211135624774834,0.04165141482469811,-0.5640843831722068,-0.0049360690286770915,0.013591103804413966,-0.20703306895002488,0,70,255.0,255.0,255.0
218,10.9,-4.521817368398041,-2.9442026882139785,-6.7576324128311,-0.01648599449742687,0.04233474469214367,-0.5744102323785828,-0.006058285877404531,0.013742090893408955,-0.20600089930502144,0,70,255.0,255.0,255.0
219,10.950000000000001,-4.522649708570613,-2.942068710454467,-6.7866099955034755,-0.01681696421251529,0.043025623914039,-0.5846844731027089,-0.007180502726132011,0.013893077982403948,-0.20496872966001795,0,70,255.0,255.0,255.0
220,11.0,-4.5235,-2.9399,-6.8161,-0.01720404477004007,0.043724052490384066,-0.5949071053445844,-0.00830271957485948,0.014044065071399214,-0.20393656001501181,0,70,255.0,255.0,255.0
221,11.05,-4.524370096868537,-2.9376960014153903,-6.846099477616555,-0.017590154582755004,0.044440708469037,-0.6050560323037599,-0.007141672933737653,0.01462217407471765,-0.20202051835200457,0,70,255.0,255.0,255.0
222,11.100000000000001,-4.525258047919407,-2.9354554473955936,-6.876604006528991,-0.017918212063413846,0.045186269897855846,-0.6151091571797851,-0.005980626292615827,0.015200283078036086,-0.20010447668899733,0,70,255.0,255.0,255.0
223,11.15,-4.526160950536012,-2.9331768926681017,-6.907608796633148,-0.018188217212016588,0.0459607367768406,-0.6250664799726595,-0.004819579651494041,0.0157783920813545,-0.19818843502599018,0,70,255.0,255.0,255.0
224,11.200000000000001,-4.527075902101742,-2.930858891960407,-6.93910905782487,-0.018400170028563246,0.0467641091059913,-0.634928000682384,-0.0036585330103722146,0.016356501084672938,-0.19627239336298294,0,70,255.0,255.0,255.0
225,11.25,-4.528,-2.9285,-6.9711,-0.01855407051305381,0.047596386885307894,-0.6446937193089578,-0.002497486369250429,0.01693461008799141,-0.194356351699974,0,70,255.0,255.0,255.0
226,11.3,-4.528931492870996,-2.926099238819418,-7.003578054878531,-0.018718994074411296,0.04842953181215064,-0.6544369453013821,-0.004099456085048809,0.016391186985718023,-0.19537268799699226,0,70,255.0,255.0,255.0
227,11.350000000000001,-4.529873234382204,-2.92365749967137,-7.036544541477053,-0.018964016121558694,0.049235505583879714,-0.6642309881086573,-0.0057014258008471885,0.015847763883444638,-0.19638902429401048,0,70,255.0,255.0,255.0
228,11.4,-4.530829229457915,-2.9211761411136146,-7.070002000636309,-0.019289136654496008,0.0500143082004951,-0.674075847730783,-0.007303395516645512,0.015304340781171273,-0.1974053605910287,0,70,255.0,255.0,255.0
229,11.450000000000001,-4.531803483022418,-2.9186565217039058,-7.103952973197046,-0.019694355673223248,0.05076593966199684,-0.6839715241677602,-0.008905365232443892,0.014760917678897888,-0.19842169688804695,0,70,255.0,255.0,255.0
230,11.5,-4.5328,-2.9161,-7.1384,-0.020179673177740394,0.051490399968384885,-0.6939180174195876,-0.01050733494824213,0.014217494576624301,-0.19943803318506426,0,70,255.0,255.0,255.0
231,11.55,-4.5338215316474795,-2.9135078433069412,-7.173344302869325,-0.020669869119600066,0.0521931642823606,-0.7038361864907143,-0.009100502726144523,0.013893077982403985,-0.19728872966000066,0,70,255.0,255.0,255.0
232,11.600000000000001,-4.534865814551774,-2.9108809539189258,-7.2087818275628015,-0.02108972345035486,0.0528797077666253,-0.7136468903855879,-0.007693670504046917,0.013568661388183668,-0.19513942613493704,0,70,255.0,255.0,255.0
233,11.65,-4.53592933163233,-2.90822014287744,-7.244707200821613,-0.02143923617000476,0.05355003042117896,-0.723350129104208,-0.006286838281949359,0.013244244793963364,-0.19299012260987353,0,70,255.0,255.0,255.0
234,11.700000000000001,-4.537008565808591,-2.90552622122397,-7.281115049386951,-0.02171840727854979,0.054204132246021636,-0.7329459026465752,-0.004880006059851752,0.012919828199743048,-0.19084081908480993,0,70,255.0,255.0,255.0
235,11.75,-4.5381,-2.9028,-7.318,-0.02192723677598993,0.054842013241153266,-0.742434211012689,-0.003473173837754223,0.012595411605522633,-0.1886915155597455,0,70,255.0,255.0,255.0
236,11.8,-4.539200780539085,-2.900042187952819,-7.3553575336441686,-0.02210552944719267,0.055469811058408175,-0.7518663087357579,-0.003658533010355233,0.012516501084673403,-0.18859239336299946,0,70,255.0,255.0,255.0
237,11.850000000000001,-4.540310707410696,-2.8972530846529265,-7.393186548271746,-0.02229309007702546,0.056093663349620626,-0.7612934503489892,-0.003843892182956243,0.012437590563824173,-0.18849327116625342,0,70,255.0,255.0,255.0
238,11.9,-4.541430244012765,-2.8944328873766247,-7.4314867960772375,-0.022489918665488294,0.056713570114790585,-0.7707156358523831,-0.004029251355557246,0.012358680042974945,-0.1883941489695074,0,70,255.0,255.0,255.0
239,11.950000000000001,-4.5425598537432235,-2.891581793400215,-7.470258029255153,-0.022696015212581185,0.05732953135391811,-0.7801328652459398,-0.004214610528158256,0.012279769522125715,-0.18829502677276136,0,70,255.0,255.0,255.0
240,12.0,-4.5437,-2.8887,-7.5095,-0.02291137971830412,0.05794154706700316,-0.7895451385296592,-0.0043999697007592875,0.012200859001276543,-0.1881959045760162,0,70,255.0,255.0,255.0
241,12.05,-4.54485134619618,-2.8857874048817824,-7.549211962554001,-0.023148013091633998,0.058567591484007434,-0.7989225785662607,-0.005065365232435735,0.01284091767889378,-0.18690169688803876,0,70,255.0,255.0,255.0
242,12.100000000000001,-4.54601535580544,-2.882842707469368,-7.589391179350221,-0.0234179162415477,0.059225638834892555,-0.8082353082184633,-0.005730760764112183,0.013480976356511017,-0.1856074892000613,0,70,255.0,255.0,255.0
243,12.15,-4.54719369231661,-2.879864307616062,-7.63003441486944,-0.023721089168045214,0.05991568911965853,-0.8174833274862668,-0.006396156295788607,0.01412103503412823,-0.1843132815120839,0,70,255.0,255.0,255.0
244,12.200000000000001,-4.548388019218521,-2.876850605175171,-7.67113843359244,-0.02405753187112656,0.060637742338305385,-0.8266666363696717,-0.007061551827465054,0.014761093711745468,-0.18301907382410645,0,70,255.0,255.0,255.0
245,12.25,-4.5496,-2.8738,-7.7127,-0.02442724435079172,0.061391798490833066,-0.8357852348686773,-0.00772694735914134,0.01540115238936246,-0.18172486613612637,0,70,255.0,255.0,255.0
246,12.3,-4.550830634676197,-2.8707113925200507,-7.754716216139833,-0.024790418186266865,0.062147823005560814,-0.8448593769992004,-0.0068000060598642645,0.014839828199746954,-0.1812408190847977,0,70,255.0,255.0,255.0
247,12.350000000000001,-4.552078269367544,-2.867585685469602,-7.797185534327379,-0.025107244956778157,0.06287578131080779,-0.8539093167771573,-0.0058730647605871895,0.014278504010131449,-0.18075677203346902,0,70,255.0,255.0,255.0
248,12.4,-4.553340586720792,-2.864424282159128,-7.8401067444450065,-0.02537772466232558,0.06357567340657395,-0.8629350542025473,-0.0049461234613101465,0.013717179820515964,-0.18027272498214034,0,70,255.0,255.0,255.0
249,12.450000000000001,-4.554615269382694,-2.8612285858991027,-7.88347863637509,-0.025601857302909165,0.06424749929285938,-0.8719365892753713,-0.0040191821620330715,0.013155855630900458,-0.17978867793081166,0,70,255.0,255.0,255.0
250,12.5,-4.5559,-2.858,-7.9273,-0.025779642878528887,0.064891258969664,-0.8809139219956285,-0.003092240862755835,0.012594531441284751,-0.17930463087947413,0,70,255.0,255.0,255.0
251,12.55,-4.557193315099033,-2.8547398250380147,-7.97156957288667,-0.02596231416330174,0.06551311649374926,-0.889863913436935,-0.0042146105281582625,0.012279769522125722,-0.1786950267727816,0,70,255.0,255.0,255.0
252,12.600000000000001,-4.558497166724385,-2.8514489506522245,-8.016285883340272,-0.02620110393134472,0.06611923592187659,-0.8987834246729068,-0.005336980193560691,0.011965007602966695,-0.17808542266608904,0,70,255.0,255.0,255.0
253,12.65,-4.559814360800221,-2.8481281637474263,-8.061447407350538,-0.02649601218265781,0.06670961725404594,-0.9076724557035438,-0.006459349858963078,0.011650245683807679,-0.17747581855939654,0,70,255.0,255.0,255.0
254,12.700000000000001,-4.561147703250705,-2.844778251228419,-8.107052620907206,-0.02684703891724103,0.06728426049025735,-0.9165310065288464,-0.0075817195243655065,0.01133548376464865,-0.176866214452704,0,70,255.0,255.0,255.0
255,12.75,-4.5625,-2.8414,-8.1531,-0.027254184135094353,0.0678431656305108,-0.925359077148814,-0.008704089189767839,0.011020721845489634,-0.17625661034600704,0,70,255.0,255.0,255.0
256,12.8,-4.563872904927675,-2.8379941073278903,-8.19958789231349,-0.02764832516052475,0.06839171101944168,-0.934148969253067,-0.007061551827447942,0.010921093711745832,-0.17533907382410624,0,70,255.0,255.0,255.0
257,12.850000000000001,-4.565263463734917,-2.8345609119215007,-8.246514132311539,-0.02796033931783916,0.06893527500168539,-0.9428929845312249,-0.005419014465128045,0.010821465578002029,-0.17442153730220544,0,70,255.0,255.0,255.0
258,12.9,-4.566667570078323,-2.8311006628511666,-8.293876426152844,-0.02819022660703756,0.0694738575772419,-0.9515911229832875,-0.003776477102808206,0.01072183744425823,-0.17350400078030467,0,70,255.0,255.0,255.0
259,12.950000000000001,-4.5680811176144855,-2.8276136091872215,-8.3416724799961,-0.028337987028119974,0.07000745874611121,-0.9602433846092553,-0.002133939740488309,0.010622209310514427,-0.17258646425840388,0,70,255.0,255.0,255.0
260,13.0,-4.5695,-2.8241,-8.3899,-0.02840362058108639,0.07053607850829333,-0.9688497694091277,-0.0004914023781683874,0.010522581176770851,-0.1716689277364969,0,70,255.0,255.0,255.0
261,13.05,-4.5709214651902705,-2.820559745650425,-8.438556457859375,-0.028468385194591963,0.07108003942848523,-0.9773962095508093,-0.0020991821620545423,0.011235855630904954,-0.1701886779307612,0,70,255.0,255.0,255.0
262,13.100000000000001,-4.572348178335946,-2.8169914016617725,-8.487638387413579,-0.028613538797291845,0.07165966407138384,-0.9858686372022041,-0.003706961945940697,0.01194913008503906,-0.1687084281250255,0,70,255.0,255.0,255.0
263,13.15,-4.573784158886486,-2.8133931848479086,-8.537142088038092,-0.028839081389186026,0.07227495243698913,-0.9942670523633118,-0.005314741729826794,0.012662404539173139,-0.16722817831928988,0,70,255.0,255.0,255.0
264,13.200000000000001,-4.5752334262913505,-2.8097633120226955,-8.587063859108405,-0.029145012970274525,0.07292590452530115,-1.0025914550341328,-0.006922521513712949,0.013375678993307242,-0.1657479285135542,0,70,255.0,255.0,255.0
265,13.25,-4.5767,-2.8061,-8.6374,-0.029531333540557314,0.07361252033631986,-1.010841845214667,-0.008530301297598908,0.01408895344744121,-0.1642676787078141,0,70,255.0,255.0,255.0
266,13.3,-4.578186834311244,-2.802402110070409,-8.688147876249012,-0.029934134061106427,0.0742961312666218,-1.019082192543681,-0.007581719524365424,0.013255483764635489,-0.1653462144527456,0,70,255.0,255.0,255.0
267,13.350000000000001,-4.5796926229213,-2.7986710814314066,-8.739309118034157,-0.030289505492993866,0.07493806871278343,-1.0273764666599419,-0.00663313775113194,0.012422014081829767,-0.1664247501976771,0,70,255.0,255.0,255.0
268,13.4,-4.581214994375732,-2.7949089977571995,-8.790886421694793,-0.03059744783621962,0.07553833267480477,-1.0357246675634486,-0.0056845559778984905,0.011588544399024075,-0.16750328594260858,0,70,255.0,255.0,255.0
269,13.450000000000001,-4.58275157722011,-2.7911179427219954,-8.842882483570289,-0.030857961090783714,0.07609692315268583,-1.0441267952542026,-0.004735974204665008,0.010755074716218354,-0.16858182168754007,0,70,255.0,255.0,255.0
270,13.5,-4.5843,-2.7873,-8.8953,-0.031071045256686122,0.07661384014642658,-1.0525828497322027,-0.0037873924314314467,0.009921605033412106,-0.16966035743247154,0,70,255.0,255.0,255.0
271,13.55,-4.585858397564752,-2.783456614067938,-8.94814003714458,-0.031267078560984006,0.07712743550502496,-1.0609950202744751,-0.0040539397404838065,0.010622209310522922,-0.16682646425841516,0,70,255.0,255.0,255.0
272,13.600000000000001,-4.587426929978856,-2.7795866726126,-9.001397140449804,-0.0314764392307345,0.07767606107747889,-1.0692654961580443,-0.004320487049536166,0.011322813587633738,-0.16399257108435875,0,70,255.0,255.0,255.0
273,13.65,-4.589006263610583,-2.775688424123293,-9.05506422518274,-0.03169912726593763,0.07825971686378833,-1.0773942773829108,-0.004587034358588518,0.012023417864744528,-0.16115867791030244,0,70,255.0,255.0,255.0
274,13.700000000000001,-4.5905970648282075,-2.7717601170893236,-9.10913420661045,-0.031935142666593364,0.07887840286395334,-1.0853813639490748,-0.0048535816676408775,0.012724022141855345,-0.15832478473624606,0,70,255.0,255.0,255.0
275,13.75,-4.5922,-2.7678,-9.1636,-0.03218448543270171,0.07953211907797386,-1.0932267558565356,-0.005120128976693228,0.013424626418966135,-0.1554908915621951,0,70,255.0,255.0,255.0
276,13.8,-4.593815575429746,-2.763806633657838,-9.218455975172677,-0.03243755169496155,0.08020212671328071,-1.1010177263584282,-0.005002521513700285,0.01337567899330736,-0.15614792851350714,0,70,255.0,255.0,255.0
277,13.850000000000001,-4.595443657163277,-2.759779828118193,-9.273702320166638,-0.03268473758407174,0.08086968697730462,-1.1088415487078866,-0.004884914050707342,0.013326731567648586,-0.1568049654648192,0,70,255.0,255.0,255.0
278,13.9,-4.597083951181935,-2.7557197057496294,-9.32934067757426,-0.03292604310003228,0.08153479987004557,-1.11669822290491,-0.004767306587714403,0.013277784141989811,-0.15746200241613126,0,70,255.0,255.0,255.0
279,13.950000000000001,-4.598736163467061,-2.75162638892071,-9.385372689987921,-0.03316146824284318,0.08219746539150359,-1.1245877489494995,-0.00464969912472146,0.013228836716331037,-0.15811903936744331,0,70,255.0,255.0,255.0
280,14.0,-4.6004,-2.7475,-9.4418,-0.03339101301250443,0.08285768354167868,-1.1325101268416544,-0.004532091661728688,0.013179889290672597,-0.15877607631875534,0,70,255.0,255.0,255.0
281,14.05,-4.602075300716262,-2.743340851300709,-9.498623262164719,-0.03362271465916471,0.08350405764185084,-1.1404060742918116,-0.004735974204682073,0.012675074716213668,-0.15706182168753172,0,70,255.0,255.0,255.0
282,14.100000000000001,-4.603762441368035,-2.7391500149146264,-9.555839178883657,-0.03386461043297265,0.08412519101330006,-1.1482163090104078,-0.004939856747635457,0.012170260141754737,-0.15534756705630806,0,70,255.0,255.0,255.0
283,14.15,-4.605461931661678,-2.7349287528781905,-9.613443464520234,-0.034116700333928246,0.0847210836560263,-1.1559408309974426,-0.005143739290588835,0.011665445567295825,-0.1536333124250845,0,70,255.0,255.0,255.0
284,14.200000000000001,-4.607174281303547,-2.730678327227836,-9.671431833437873,-0.034378984362031524,0.08529173557002964,-1.1635796402529162,-0.00534762183354222,0.011160630992836896,-0.15191905779386086,0,70,255.0,255.0,255.0
285,14.25,-4.6089,-2.7264,-9.7298,-0.034651462517282475,0.08583714675531,-1.1711327367768285,-0.005551504376495764,0.010655816418377762,-0.15020480316263374,0,70,255.0,255.0,255.0
286,14.3,-4.610639221705205,-2.7220947611393265,-9.78854457616845,-0.034911589668385895,0.08637364271931594,-1.1786539764743018,-0.004853581667640862,0.01080402214185965,-0.1506447847362999,0,70,255.0,255.0,255.0
287,14.350000000000001,-4.6123905773645815,-2.717762512223299,-9.847665764298743,-0.03513682068404657,0.08691754896949598,-1.1861972152504587,-0.00415565895878596,0.01095222786534154,-0.15108476630996606,0,70,255.0,255.0,255.0
288,14.4,-4.614152322171353,-2.7134028827376073,-9.907164664344808,-0.03532715556426449,0.08746886550585009,-1.1937624531052986,-0.0034577362499310822,0.011100433588823422,-0.1515247478836322,0,70,255.0,255.0,255.0
289,14.450000000000001,-4.615922711318751,-2.7090155021679445,-9.967042376260583,-0.035482594309039675,0.08802759232837831,-1.2013496900388219,-0.00275981354107618,0.011248639312305311,-0.1519647294572984,0,70,255.0,255.0,255.0
290,14.5,-4.6177,-2.7046,-10.0273,-0.03560313691837211,0.08859372943708062,-1.208958926051028,-0.0020618908322211915,0.011396845035787195,-0.15240471103095565,0,70,255.0,255.0,255.0
291,14.55,-4.619483012462914,-2.7001561041419846,-10.087937633161483,-0.03572292666729494,0.08916137148088349,-1.2165300198109876,-0.002729699124691863,0.01130883671632723,-0.15043903936742528,0,70,255.0,255.0,255.0
292,14.600000000000001,-4.62127284917364,-2.695683936192178,-10.148951363921382,-0.035876106830841296,0.08972461310871335,-1.2240028299877708,-0.0033975074171625342,0.011220828396867263,-0.1484733677038949,0,70,255.0,255.0,255.0
293,14.65,-4.623071179652909,-2.691183716171379,-10.210336278100538,-0.03606267740901119,0.09028345432057021,-1.231377356581377,-0.004065315709633182,0.011132820077407301,-0.14650769604036462,0,70,255.0,255.0,255.0
294,14.700000000000001,-4.624879673421451,-2.686655664100387,-10.2720874615198,-0.036282638401804616,0.09083789511645407,-1.2386535995918073,-0.0047331240021038536,0.011044811757947335,-0.14454202437683422,0,70,255.0,255.0,255.0
295,14.75,-4.6267,-2.6821,-10.3342,-0.036535989809221577,0.09138793549636494,-1.2458315590190605,-0.005400932294574223,0.010956803438487372,-0.14257635271330393,0,70,255.0,255.0,255.0
296,14.8,-4.628533528443136,-2.677516822292736,-10.396669691185629,-0.036804703662425345,0.09194087135714826,-1.2529539442817395,-0.005347621833576299,0.011160630992845347,-0.1423190577938495,0,70,255.0,255.0,255.0
297,14.850000000000001,-4.630380425940858,-2.67290574300799,-10.459495180015743,-0.03707075199257921,0.09250399859564949,-1.2600634647984457,-0.005294311372578374,0.011364458547203322,-0.14206176287439512,0,70,255.0,255.0,255.0
298,14.9,-4.63224055921701,-2.6682662525768763,-10.522675823253039,-0.03733413479968318,0.0930773172118686,-1.267160120569179,-0.005241000911580451,0.011568286101561288,-0.1418044679549407,0,70,255.0,255.0,255.0
299,14.950000000000001,-4.634113794995441,-2.663597841430508,-10.586210977660228,-0.03759485208373725,0.09366082720580561,-1.2742439115939397,-0.005187690450582526,0.011772113655919262,-0.14154717303548628,0,70,255.0,255.0,255.0
300,15.0,-4.636,-2.6589,-10.6501,-0.03785290384474142,0.0942545285774605,-1.2813148378727277,-0.005134379989584326,0.011975941210277119,-0.14128987811603722,0,70,255.0,255.0,255.0
301,15.05,-4.637898873764537,-2.6541726066870712,-10.714342002096007,-0.03809825868300783,0.09483514309052507,-1.2883582030620617,-0.004679813541071647,0.01124863931230532,-0.14044472945732167,0,70,255.0,255.0,255.0
302,15.100000000000001,-4.639809447062928,-2.649417091775862,-10.77893511601566,-0.038320885198848596,0.09537939250869104,-1.2953593108184602,-0.004225247092558969,0.010521337414333521,-0.1395995807986061,0,70,255.0,255.0,255.0
303,15.15,-4.641730583479049,-2.644635273521117,-10.843877228887305,-0.038520783392263724,0.09588727683195841,-1.3023181611419223,-0.003770680644046306,0.009794035516361748,-0.13875443213989058,0,70,255.0,255.0,255.0
304,15.200000000000001,-4.643661146596779,-2.6398289701775814,-10.909166227839302,-0.038697953263253225,0.09635879606032723,-1.309234754032449,-0.0033161141955336277,0.00906673361838995,-0.137909283481175,0,70,255.0,255.0,255.0
305,15.25,-4.6456,-2.635,-10.9748,-0.038852394811817084,0.09679395019379743,-1.3161090894900398,-0.002861547747020854,0.008339431720418067,-0.13706413482246305,0,70,255.0,255.0,255.0
306,15.3,-4.6475461764987145,-2.630149550958977,-11.040776700430348,-0.03899426160554489,0.09723055628075626,-1.3229572434700212,-0.0028131240020911933,0.00912481175793468,-0.13686202437678432,0,70,255.0,255.0,255.0
307,15.350000000000001,-4.649499385807434,-2.6252762898885593,-11.107095555921632,-0.039133707212026206,0.09770643136959091,-1.3297952919277183,-0.0027647002571615327,0.009910191795451296,-0.13665991393110558,0,70,255.0,255.0,255.0
308,15.4,-4.6514595068667965,-2.6203782533386533,-11.173756061197746,-0.03927073163126104,0.09822157546030137,-1.3366232348631317,-0.002716276512231874,0.010695571832967881,-0.13645780348542685,0,70,255.0,255.0,255.0
309,15.450000000000001,-4.65342641861744,-2.6154534778591643,-11.240757710982574,-0.039405334863249396,0.09877598855288769,-1.3434410722762609,-0.0026678527673022136,0.011480951870484497,-0.13625569303974813,0,70,255.0,255.0,255.0
310,15.5,-4.6554,-2.6105,-11.3081,-0.03953751690799126,0.0993696706473498,-1.3502488041671066,-0.0026194290223723327,0.012266331908000527,-0.13605358259406763,0,70,255.0,255.0,255.0
311,15.55,-4.657380420240606,-2.6055163894770197,-11.375781596182614,-0.039684694894815235,0.0999706317864478,-1.3569968230578469,-0.0032676904505868003,0.011772113655919007,-0.13386717303553897,0,70,255.0,255.0,255.0
312,15.600000000000001,-4.659369009707339,-2.6005033486698985,-11.443797860297822,-0.039864285953049944,0.10054688201294172,-1.3636355214706606,-0.003915951878801268,0.011277895403837487,-0.13168076347701033,0,70,255.0,255.0,255.0
313,15.65,-4.661367389053767,-2.5954621131242686,-11.512143326321716,-0.040076290082695365,0.10109842132683156,-1.370164899405548,-0.0045642133070157125,0.010783677151755985,-0.12949435391848174,0,70,255.0,255.0,255.0
314,15.700000000000001,-4.663377178933464,-2.5903939183857587,-11.58081252823041,-0.04032070728375151,0.10162524972811732,-1.3765849568625086,-0.00521247473523018,0.010289458899674465,-0.1273079443599531,0,70,255.0,255.0,255.0
315,15.75,-4.6654,-2.5853,-11.6498,-0.04059753755621838,0.10212736721679898,-1.382895693841543,-0.005860736163444735,0.009795240647592629,-0.12512153480142096,0,70,255.0,255.0,255.0
316,15.8,-4.667436942538862,-2.580181691132946,-11.719101714839198,-0.04087495881519273,0.10259891657344898,-1.3891834642986072,-0.005236114195529198,0.009066733618407076,-0.12638928348113404,0,70,255.0,255.0,255.0
317,15.850000000000001,-4.6694869753632124,-2.575040715431846,-11.788719402887097,-0.04112114897577131,0.1030340405786397,-1.3955346221896567,-0.004611492227613661,0.008338226589221521,-0.12765703216084712,0,70,255.0,255.0,255.0
318,15.9,-4.671548536918133,-2.5698788941642734,-11.858656233515395,-0.0413361080379541,0.10343273923237112,-1.4019491675146918,-0.003986870259698145,0.007609719560035994,-0.12892478084056017,0,70,255.0,255.0,255.0
319,15.950000000000001,-4.673620065648701,-2.5646980485978,-11.928915376095798,-0.04151983600174112,0.1037950125346433,-1.4084271002737125,-0.003362248291782608,0.00688121253085044,-0.13019252952027324,0,70,255.0,255.0,255.0
320,16.0,-4.6757,-2.5595,-11.9995,-0.041672332867132365,0.10412086048545617,-1.4149684204667192,-0.0027376263238672593,0.00615270550166469,-0.13146027819998807,0,70,255.0,255.0,255.0
321,16.05,-4.6777870096039464,-2.5542856459911962,-12.070411544460603,-0.041807469844412026,0.1044657019197597,-1.4214693197477133,-0.0026678527673191887,0.007640951870476086,-0.1285756930397667,0,70,255.0,255.0,255.0
322,16.1,-4.679880688839811,-2.5490521896027163,-12.141644528153806,-0.041939118143864286,0.10488495567250379,-1.4278259897706962,-0.0025980792107711185,0.009129198239287482,-0.12569110787954535,0,70,255.0,255.0,255.0
323,16.150000000000002,-4.6819808632737026,-2.5437959102186385,-12.213191739616708,-0.04206727776548914,0.10537862174368846,-1.4340384305356677,-0.002528305654223048,0.010617444608098877,-0.12280652271932399,0,70,255.0,255.0,255.0
324,16.2,-4.6840873584717295,-2.538513087223041,-12.285045967386404,-0.04219194870928659,0.10594670013331366,-1.4401066420426283,-0.0024585320976749825,0.012105690976910166,-0.11992193755910283,0,70,255.0,255.0,255.0
325,16.25,-4.6862,-2.5332,-12.3572,-0.042313130975256644,0.10658919084137947,-1.4460306242915777,-0.0023887585411271894,0.013593937345721452,-0.11703735239887614,0,70,255.0,255.0,255.0
326,16.3,-4.688319019045354,-2.527854124902268,-12.429648107318396,-0.04245516180716527,0.10723427574751404,-1.451899256710549,-0.0032924747352176893,0.012209458899661189,-0.11770794435997269,0,70,255.0,255.0,255.0
327,16.35,-4.690446269277546,-2.5224777261572866,-12.502390484497694,-0.04264237844877842,0.10781013673134561,-1.4578014187275752,-0.004196190929308189,0.010824980453600924,-0.11837853632106922,0,70,255.0,255.0,255.0
328,16.400000000000002,-4.69258400998706,-2.517074264961172,-12.57542880801779,-0.042874780900096096,0.10831677379287416,-1.463737110342656,-0.005099907123398689,0.009440502007540659,-0.11904912828216577,0,70,255.0,255.0,255.0
329,16.45,-4.694734500464382,-2.5116472025100376,-12.648764754358588,-0.043152369161118274,0.10875418693209965,-1.4697063315557914,-0.006003623317489125,0.008056023561480493,-0.11971972024326226,0,70,255.0,255.0,255.0
330,16.5,-4.6969,-2.5062,-12.7224,-0.043475143231845,0.10912237614902218,-1.475709082366982,-0.00690733951157968,0.006671545115420896,-0.12039031220436236,0,70,255.0,255.0,255.0
331,16.55,-4.699081714214641,-2.5007354543997318,-12.796335226265821,-0.043779882926928956,0.10946119509017939,-1.4816856534100973,-0.005282248291778157,0.006881212530867711,-0.1186725295202361,0,70,255.0,255.0,255.0
332,16.6,-4.70127663405001,-2.4952537057681363,-12.870567133855442,-0.04400336806102283,0.10981049740210896,-1.487576335319006,-0.0036571570719766337,0.007090879946314527,-0.11695474683610985,0,70,255.0,255.0,255.0
333,16.650000000000002,-4.70348069677806,-2.4897542299366746,-12.945091428312153,-0.04414559863412663,0.11017028308481086,-1.4933811280937084,-0.0020320658521751104,0.007300547361761342,-0.11523696415198359,0,70,255.0,255.0,255.0
334,16.7,-4.70568983967074,-2.4842365027368087,-13.019903815179239,-0.044206574646240344,0.11054055213828508,-1.4991000317342038,-0.00040697463237370293,0.007510214777208144,-0.11351918146785744,0,70,255.0,255.0,255.0
335,16.75,-4.7079,-2.4787,-13.095,-0.044186296097363985,0.11092130456253167,-1.504733046240494,0.0012181165874275979,0.007719882192654848,-0.11180139878373296,0,70,255.0,255.0,255.0
336,16.8,-4.7101085240960865,-2.4731440574988057,-13.170376587618328,-0.04416930648512028,0.11132094389177082,-1.510334129649065,-0.0005385320976797031,0.008265690976910397,-0.11224193755911643,0,70,255.0,255.0,255.0
337,16.85,-4.712318394522416,-2.467567450770169,-13.246033780080557,-0.04424014930713196,0.11174787366022272,-1.5159572399964059,-0.002295180782787004,0.008811499761165947,-0.11268247633449989,0,70,255.0,255.0,255.0
338,16.900000000000002,-4.714534002900705,-2.4619688152921295,-13.32197267873362,-0.04439882456339899,0.11220209386788742,-1.5216023772825154,-0.004051829467894305,0.009357308545421496,-0.11312301510988336,0,70,255.0,255.0,255.0
339,16.95,-4.716759740852662,-2.456346786542727,-13.39819438492445,-0.04464533225392137,0.11268360451476485,-1.527269541507394,-0.005808478153001481,0.009903117329677006,-0.11356355388526679,0,70,255.0,255.0,255.0
340,17.0,-4.719,-2.4507,-13.4747,-0.04497967237869914,0.11319240560085511,-1.5329587326710417,-0.00756512683810906,0.010448926113932222,-0.11400409266064848,0,70,255.0,255.0,255.0
341,17.05,-4.721257789401015,-2.4450275156050445,-13.55148962326087,-0.0453188911325891,0.11370302934274011,-1.538609827993639,-0.006003623317489204,0.009976023561467555,-0.11203972024324746,0,70,255.0,255.0,255.0
342,17.1,-4.723530587860325,-2.439330091151186,-13.628559345822353,-0.045580034710448074,0.11419000795700188,-1.5441627046953668,-0.004442119796869348,0.009503121009002889,-0.11007534782584644,0,70,255.0,255.0,255.0
343,17.150000000000002,-4.7258144916191265,-2.433608908894805,-13.705904256753396,-0.04576310311227604,0.11465334144364041,-1.549617362776224,-0.002880616276249493,0.009030218456538222,-0.10811097540844541,0,70,255.0,255.0,255.0
344,17.2,-4.72810559691862,-2.427865151092283,-13.783519445122957,-0.04586809633807302,0.11509302980265569,-1.5549738022362107,-0.001319112755629748,0.008557315904073588,-0.10614660299104453,0,70,255.0,255.0,255.0
345,17.25,-4.7304,-2.4221,-13.8614,-0.045895014387839016,0.11550907303404777,-1.5602320230753282,0.0002423907649899415,0.008084413351609254,-0.10418223057364351,0,70,255.0,255.0,255.0
346,17.3,-4.732694718299851,-2.416314680081014,-13.93954171933819,-0.04589912898452361,0.11589893873726843,-1.5654345583763665,-0.00040697463237375584,0.00751021477721682,-0.10391918146788193,0,70,255.0,255.0,255.0
347,17.35,-4.734990454036284,-2.4105105846250847,-14.017943236630051,-0.04593571185107639,0.11626009451176945,-1.5706239412221163,-0.0010563400297374532,0.0069360162028243855,-0.10365613236212033,0,70,255.0,255.0,255.0
348,17.400000000000002,-4.73728883062279,-2.404689149128649,-14.096603894252816,-0.04600476298749736,0.11659254035755087,-1.5758001716125785,-0.0017057054271011505,0.006361817628431951,-0.10339308325635875,0,70,255.0,255.0,255.0
349,17.45,-4.739591471472865,-2.398851809088142,-14.175523034583716,-0.0461062823937865,0.11689627627461265,-1.5809632495477521,-0.002355070824464802,0.005787619054039558,-0.10313003415059718,0,70,255.0,255.0,255.0
350,17.5,-4.7419,-2.393,-14.2547,-0.04624027006994384,0.11717130226295482,-1.586113175027638,-0.0030044362218283327,0.005213420479646458,-0.10286698504483915,0,70,255.0,255.0,255.0
351,17.55,-4.7442161373995795,-2.387134564070898,-14.334133899386373,-0.04641259292931428,0.11745321570818769,-1.5912359385008916,-0.0038884781529889513,0.006063117329668522,-0.10204355388529328,0,70,255.0,255.0,255.0
352,17.6,-4.746541995994541,-2.3812539703484723,-14.413822907657458,-0.046629117885242745,0.11777761399592168,-1.5963175304161674,-0.00477252008414957,0.006912814179690587,-0.1012201227257474,0,70,255.0,255.0,255.0
353,17.650000000000002,-4.748879785889713,-2.375356094590598,-14.493764966235359,-0.04688984493772924,0.11814449712615675,-1.6013579507734663,-0.005656562015310189,0.007762511029712652,-0.10039669156620153,0,70,255.0,255.0,255.0
354,17.7,-4.751231717189922,-2.3694388125551487,-14.57395801654217,-0.04719477408677374,0.11855386509889293,-1.6063571995727874,-0.0065406039464707445,0.008612207879734657,-0.09957326040665572,0,70,255.0,255.0,255.0
355,17.75,-4.7536,-2.3635,-14.6544,-0.047543905332376304,0.1190057179141302,-1.611315276814132,-0.007424645877631253,0.00946190472975661,-0.09874982924710807,0,70,255.0,255.0,255.0
356,17.8,-4.755985532101831,-2.357538263635392,-14.735089083116328,-0.047858499298208464,0.11945619842997618,-1.6162456876200844,-0.005159112755654938,0.00855731590408245,-0.0984666029909917,0,70,255.0,255.0,255.0
357,17.85,-4.758383961985553,-2.351555133981024,-14.816024332740131,-0.048059816607941806,0.11986144950453845,-1.621161937113231,-0.0028935796336786246,0.007652727078408291,-0.09818337673487533,0,70,255.0,255.0,255.0
358,17.900000000000002,-4.760789625818357,-2.34555287250896,-14.897205040805774,-0.04814785726157633,0.12022147113781702,-1.626064025293572,-0.00062804651170231,0.006748138252734131,-0.09790015047875897,0,70,255.0,255.0,255.0
359,17.95,-4.763196859767441,-2.339533740691264,-14.978630499247604,-0.04812262125911204,0.12053626332981186,-1.6309519521611069,0.0016374866102738424,0.005843549427060037,-0.0976169242226426,0,70,255.0,255.0,255.0
360,18.0,-4.7656,-2.3335,-15.0603,-0.04798410860054894,0.12080582608052302,-1.6358257177158362,0.003903019732250157,0.004938960601386211,-0.09733369796651559,0,70,255.0,255.0,255.0
361,18.05,-4.7679953341930945,-2.327453181387533,-15.142212168148328,-0.047849409877854104,0.12107399057190867,-1.6406453110187644,0.0014849291755432694,0.005787619054039385,-0.09545003415061257,0,70,255.0,255.0,255.0
362,18.1,-4.770386956063249,-2.3213918937274314,-15.224362961382033,-0.04783561568299461,0.12138458798592697,-1.6453707211308977,-0.0009331613811636181,0.006636277506692558,-0.09356637033470955,0,70,255.0,255.0,255.0
363,18.150000000000002,-4.7727809108368575,-2.3153140153735627,-15.306747670541572,-0.04794272601597047,0.12173761832257793,-1.6500019480522357,-0.0033512519378705065,0.007484935959345731,-0.09168270651880653,0,70,255.0,255.0,255.0
364,18.2,-4.775183243740311,-2.309217424679797,-15.389361586467404,-0.04817074087678165,0.12213308158186152,-1.654538991782778,-0.005769342494577221,0.008333594411998844,-0.08979904270290365,0,70,255.0,255.0,255.0
365,18.25,-4.7776,-2.3031,-15.4722,-0.048519660265428186,0.12257097776377779,-1.6589818523225255,-0.00818743305128411,0.009182252864651463,-0.0879153788870024,0,70,255.0,255.0,255.0
366,18.3,-4.780035531125791,-2.296960210814474,-15.55525904429037,-0.048887861190372056,0.12301583928238723,-1.6633810683048669,-0.00654060394647069,0.0086122078797258,-0.08805326040665272,0,70,255.0,255.0,255.0
367,18.35,-4.78248741376145,-2.2907988911092487,-15.638538221731755,-0.04917372066007526,0.12343219855175039,-1.667787178363191,-0.00489377484165727,0.008042162894800137,-0.08819114192630302,0,70,255.0,255.0,255.0
368,18.400000000000002,-4.784951530834211,-2.284617465996786,-15.722037877027956,-0.0493772386745378,0.12382005557186726,-1.6722001824974975,-0.00324694573684385,0.007472117909874474,-0.08832902344595334,0,70,255.0,255.0,255.0
369,18.45,-4.787423765271315,-2.2784173605895495,-15.80575835488277,-0.04949841523375965,0.12417941034273781,-1.676620080707786,-0.0016001166320305472,0.006902072924948851,-0.08846690496560362,0,70,255.0,255.0,255.0
370,18.5,-4.7899,-2.2722,-15.8897,-0.04953725033774084,0.12451026286436212,-1.6810468729940578,4.6712472782872716e-05,0.006332027940022744,-0.08860478648525572,0,70,255.0,255.0,255.0
371,18.55,-4.792376941303739,-2.265966775354571,-15.9738628546902,-0.04954314536066431,0.12481465229853962,-1.6854624157617548,-0.000282513389721655,0.005843549427077203,-0.0880169242226259,0,70,255.0,255.0,255.0
372,18.6,-4.794854588890952,-2.2597189418355734,-16.05824575169096,-0.04956550167671301,0.12509461780706985,-1.6898485654163207,-0.0006117392522261827,0.005355070914131663,-0.08742906195999607,0,70,255.0,255.0,255.0
373,18.650000000000002,-4.797333765826296,-2.2534577206392914,-16.142847221346614,-0.049604319285886926,0.1253501593899528,-1.6942053219577546,-0.0009409651147307104,0.004866592401186122,-0.08684119969736626,0,70,255.0,255.0,255.0
374,18.7,-4.799815295174426,-2.247184332962006,-16.227665794001513,-0.04965959818818608,0.12558127704718844,-1.698532685386057,-0.0012701909772352147,0.004378113888240616,-0.08625333743473647,0,70,255.0,255.0,255.0
375,18.75,-4.8023,-2.2409,-16.3127,-0.04973133838361045,0.12578797077877685,-1.7028306557012283,-0.0015994168397394093,0.003889635375294631,-0.08566547517210132,0,70,255.0,255.0,255.0
376,18.8,-4.804788703659253,-2.234605487767243,-16.39794793694883,-0.049819557366968165,0.12599755152345898,-1.7070732686481045,-0.0019293424945690243,0.004493594411990385,-0.08403904270294722,0,70,255.0,255.0,255.0
377,18.85,-4.807282230674742,-2.2282997415484567,-16.48340597150442,-0.049924272633067354,0.12623733021997588,-1.711234559971523,-0.0022592681493986393,0.005097553448686138,-0.08241261023379311,0,70,255.0,255.0,255.0
378,18.900000000000002,-4.809781405860605,-2.221981251446048,-16.569070037585597,-0.05004548418190803,0.1265073068683276,-1.715314529671484,-0.0025891938042282544,0.0057015124853818915,-0.080786177764639,0,70,255.0,255.0,255.0
379,18.95,-4.812287054030978,-2.2156485075624266,-16.654936069111177,-0.050183192013490176,0.12680748146851406,-1.7193131777479869,-0.002919119459057846,0.006305471522077602,-0.07915974529548502,0,70,255.0,255.0,255.0
380,19.0,-4.8148,-2.2093,-16.741,-0.05033739612781381,0.12713785402053535,-1.7232305042010323,-0.003249045113887461,0.006909430558772911,-0.07753331282632381,0,70,255.0,255.0,255.0
381,19.05,-4.817321044059248,-2.2029344735764553,-16.827258197514478,-0.05050662517146207,0.12748314160762816,-1.7270925096458296,-0.0035201166320431724,0.00690207292494005,-0.07694690496556227,0,70,255.0,255.0,255.0
382,19.1,-4.819850888410078,-2.196551691970598,-16.913708762291364,-0.05068940779101813,0.12782806131302937,-1.7309251946975888,-0.003791188150198884,0.00689471529110719,-0.07636049710480071,0,70,255.0,255.0,255.0
383,19.150000000000002,-4.822390210731283,-2.190151673576514,-17.000350228311024,-0.05088574398648197,0.12817261313673892,-1.7347285593563098,-0.004062259668354596,0.006887357657274329,-0.07577408924403917,0,70,255.0,255.0,255.0
384,19.200000000000003,-4.824939688701658,-2.183734436788286,-17.087181129553784,-0.051095633757853594,0.1285167970787568,-1.7385026036219926,-0.004333331186510307,0.006880000023441468,-0.07518768138327761,0,70,255.0,255.0,255.0
385,19.25,-4.8275,-2.1773,-17.1742,-0.05131907710513299,0.12886061313908306,-1.7422473274946375,-0.004604402704666,0.0068726423896088296,-0.07460127352252499,0,70,255.0,255.0,255.0
386,19.3,-4.83007112010375,-2.170848617926934,-17.261405672993263,-0.051513941947180404,0.12918988204602938,-1.7459806927685708,-0.0031901909772305915,0.00629811388824452,-0.07473333743480026,0,70,255.0,255.0,255.0
387,19.35,-4.832650215684945,-2.1643814905691476,-17.348798179330117,-0.05163809620285605,0.12949042452790754,-1.7497206612381175,-0.0017759792497951828,0.005723585386880209,-0.07486540134707553,0,70,255.0,255.0,255.0
388,19.400000000000002,-4.835233751214264,-2.1579000542478943,-17.43637784917034,-0.05169153987215992,0.12976224058471741,-1.7534672329032783,-0.0003617675223597742,0.005149056885515899,-0.0749974652593508,0,70,255.0,255.0,255.0
389,19.450000000000003,-4.8378181911623885,-2.1514057452844266,-17.524145012673713,-0.051674272955092033,0.1300053302164591,-1.757220407764053,0.001052444205075634,0.004574528384151589,-0.07512952917162609,0,70,255.0,255.0,255.0
390,19.5,-4.8404,-2.1449,-17.6121,-0.05158629545165237,0.13021969342313258,-1.7609801858204408,0.0024666559325109416,0.0039999998827868755,-0.07526159308389424,0,70,255.0,255.0,255.0
391,19.55,-4.842976875525747,-2.1383838547158063,-17.70024231051247,-0.05150160703981627,0.1304293302082541,-1.7646967192799237,0.000920880540933178,0.004385471522073164,-0.07339974529542272,0,70,255.0,255.0,255.0
392,19.6,-4.845551448850141,-2.1318567457528084,-17.78856812038817,-0.05149420739755905,0.1306582405753399,-1.7683201603499832,-0.0006248948506445856,0.004770943161359453,-0.0715378975069512,0,70,255.0,255.0,255.0
393,19.650000000000002,-4.848127584411662,-2.125317709431906,-17.877072775007644,-0.051564096524880726,0.13090642452439005,-1.771850509030619,-0.0021706702422223494,0.005156414800645742,-0.06967604971847968,0,70,255.0,255.0,255.0
394,19.700000000000003,-4.850709146648788,-2.1187657820740027,-17.965751619751412,-0.05171127442178129,0.13117388205540448,-1.7752877653218313,-0.0037164456338001127,0.005541886439932031,-0.06781420193000816,0,70,255.0,255.0,255.0
395,19.75,-4.8533,-2.1122,-18.0546,-0.051935741088260726,0.13146061316838323,-1.7786319292236195,-0.005262221025377545,0.005927358079217848,-0.065952354141535,0,70,255.0,255.0,255.0
396,19.8,-4.855902977793262,-2.1056199632098385,-18.14361388495688,-0.0521756298935575,0.13173279712094982,-1.7819204301117388,-0.004333331186493137,0.004960000023446062,-0.0655876813832382,0,70,255.0,255.0,255.0
397,19.85,-4.85851678891449,-2.099027526419618,-18.23279173911721,-0.052369074206910046,0.13195661317072785,-1.7851906973619434,-0.003404441347608729,0.0039926419676742765,-0.0652230086249414,0,70,255.0,255.0,255.0
398,19.900000000000002,-4.861139111139086,-2.0924251080244787,-18.32213265079911,-0.05251607402831838,0.13213206131771726,-1.788442730974233,-0.0024755515087243212,0.0030252839119024907,-0.0648583358666446,0,70,255.0,255.0,255.0
399,19.950000000000003,-4.863767622242456,-2.085815126419559,-18.411635708320674,-0.05261662935778248,0.1322591415619181,-1.791676530948608,-0.001546661669839913,0.002057925856130705,-0.06449366310834781,0,70,255.0,255.0,255.0
400,20.0,-4.8664,-2.0792,-18.5013,-0.052670740195302365,0.13233785390333033,-1.7948920972850677,-0.0006177718309553493,0.001090567800358544,-0.06412899035004394,0,70,255.0,255.0,255.0
401,20.05,-4.869034413301205,-2.0725810924448402,-18.591124549660037,-0.05270787338594968,0.1324314813079434,-1.7980855602731116,-0.0008675557949369841,0.0026545283841643784,-0.06360952917171579,0,70,255.0,255.0,255.0
402,20.1,-4.871670995491898,-2.065955548568719,-18.681108123142998,-0.05275749577479607,0.13260330674174678,-1.8012530502022395,-0.0011173397589186189,0.004218488967970213,-0.06309006799338766,0,70,255.0,255.0,255.0
403,20.150000000000002,-4.874310371031989,-2.0593194584701786,-18.771249421795943,-0.05281960736184154,0.1328533302047404,-1.8043945670724506,-0.0013671237229002536,0.005782449551776048,-0.06257060681505952,0,70,255.0,255.0,255.0
404,20.200000000000003,-4.876953164381385,-2.0526689122477584,-18.86154714696593,-0.05289420814708609,0.1331815516969244,-1.8075101108837455,-0.0016169076868818885,0.007346410135581882,-0.06205114563673139,0,70,255.0,255.0,255.0
405,20.25,-4.8796,-2.046,-18.952,-0.052981298130529715,0.1335879712182986,-1.8105996816361236,-0.001866691650863339,0.008910370719387606,-0.06153168445839263,0,70,255.0,255.0,255.0
406,20.3,-4.882251369001916,-2.039310067010802,-19.042606316402996,-0.05307287656264641,0.13399727764728128,-1.8136413287958324,-0.001796445633804421,0.007461886439918898,-0.060134201929953314,0,70,255.0,255.0,255.0
407,20.35,-4.884907229117918,-2.0326014793055043,-19.133362968310813,-0.053160942693910154,0.1343341598622905,-1.816613101829119,-0.001726199616745503,0.006013402160450191,-0.058736719401513995,0,70,255.0,255.0,255.0
408,20.400000000000002,-4.88756740473296,-2.025877858094806,-19.224266462017134,-0.053245496524320965,0.1345986178633263,-1.8195150007359837,-0.0016559535996865853,0.004564917880981483,-0.05733923687307468,0,70,255.0,255.0,255.0
409,20.450000000000003,-4.890231720232001,-2.0191428245894043,-19.31531330381564,-0.053326538053878825,0.13479065165038864,-1.8223470255164267,-0.0015857075826276673,0.0031164336015127754,-0.05594175434463536,0,70,255.0,255.0,255.0
410,20.5,-4.8929,-2.0124,-19.4065,-0.05340406728258373,0.13491026122347757,-1.825109176170447,-0.0015154615655686432,0.001667949322044171,-0.05454427181620147,0,70,255.0,255.0,255.0
411,20.55,-4.89557211069113,-2.0056522395119507,-19.497823784728,-0.05348062036346851,0.13500340810293182,-1.8278451245435596,-0.0015466616698228135,0.0020579258561263247,-0.054893663108304486,0,70,255.0,255.0,255.0
412,20.6,-4.898248088036434,-1.9988993342092616,-19.589284803613772,-0.053558733449566014,0.13511605380909023,-1.8305985424812774,-0.0015778617740769838,0.0024479023902084784,-0.0552430544004075,0,70,255.0,255.0,255.0
413,20.650000000000002,-4.900928010036173,-1.9921403091505965,-19.68088393013554,-0.05363840654087622,0.13524819834195267,-1.8333694299836005,-0.001609061878331154,0.002837878924290632,-0.05559244569251051,0,70,255.0,255.0,255.0
414,20.700000000000003,-4.903611954690609,-1.9853741893946208,-19.772622037771544,-0.053719639637399126,0.13539984170151928,-1.8361577870505288,-0.0016402619825853244,0.003227855458372786,-0.055941836984613524,0,70,255.0,255.0,255.0
415,20.75,-4.9063,-1.9786,-19.8645,-0.05380243273913474,0.13557098388778996,-1.838963613682062,-0.001671462086839548,0.0036178319924540236,-0.05629122827672184,0,70,255.0,255.0,255.0
416,20.8,-4.908992188233565,-1.9718169749413934,-19.956517744685016,-0.0538846419834782,0.13574908994099097,-1.8417301730299005,-0.0016169076868989044,0.003506410135586123,-0.05437114563681324,0,70,255.0,255.0,255.0
417,20.85,-4.911688418736348,-1.965025183857448,-20.048671417234125,-0.05396412350782463,0.13592162490134857,-1.8444007282457435,-0.0015623532869582608,0.003394988278718222,-0.05245106299690464,0,70,255.0,255.0,255.0
418,20.900000000000002,-4.914388555122348,-1.9582249053028058,-20.140956217440724,-0.054040877312174024,0.1360885887688628,-1.8469752793295908,-0.0015077988870176172,0.003283566421850321,-0.05053098035699604,0,70,255.0,255.0,255.0
419,20.950000000000003,-4.9170924610055655,-1.951416417832109,-20.23336734509822,-0.05411490339652639,0.1362499815435336,-1.849453826281443,-0.0014532444870769736,0.0031721445649824202,-0.048610897717087445,0,70,255.0,255.0,255.0
420,21.0,-4.9198,-1.9446,-20.3259,-0.05418620176088172,0.136405803225361,-1.8518363691012993,-0.001398690087136223,0.003060722708114305,-0.04669081507717365,0,70,255.0,255.0,255.0
421,21.05,-4.92251113637461,-1.9377758607224744,-20.41855003653194,-0.054260811702625394,0.13656023213310167,-1.8541621833368434,-0.001585707582610521,0.0031164336015130807,-0.04634175434458853,0,70,255.0,255.0,255.0
422,21.1,-4.925226237018175,-1.930943930360945,-20.511315927449743,-0.05434477251914277,0.13671744658551233,-1.8564705445357583,-0.001772725078084819,0.0031721444949118563,-0.045992693612003414,0,70,255.0,255.0,255.0
423,21.150000000000002,-4.927945769474437,-1.9241040696381786,-20.604196800101576,-0.054438084210433876,0.13687744658259288,-1.8587614526980438,-0.001959742573559117,0.0032278553883106323,-0.04564363287941829,0,70,255.0,255.0,255.0
424,21.200000000000003,-4.930670201287133,-1.9172561392769412,-20.697191781835606,-0.05454074677649869,0.13704023212434338,-1.8610349078237,-0.002146760069033415,0.003283566281709408,-0.04529457214683317,0,70,255.0,255.0,255.0
425,21.25,-4.9334,-1.9104,-20.7903,-0.05465276021733721,0.13720580321076378,-1.863290909912727,-0.0023337775645074776,0.0033392771751075134,-0.04494551141424452,0,70,255.0,255.0,255.0
426,21.3,-4.936135266267997,-1.903535582168708,-20.88352050918722,-0.05475211120601453,0.137369981526601,-1.8655250936226995,-0.001640261982585235,0.0032278554583808445,-0.044421836984643186,0,70,255.0,255.0,255.0
427,21.35,-4.938874633190949,-1.8966630946987704,-20.976852072966913,-0.05481678641559574,0.13752858875660187,-1.8677330936111913,-0.0009467464006629924,0.0031164337416541756,-0.04389816255504185,0,70,255.0,255.0,255.0
428,21.400000000000002,-4.941616366979905,-1.8897828161444785,-21.070293382152986,-0.05484678584608083,0.1376816249007664,-1.8699149098782035,-0.0002532308187407498,0.0030050120249275067,-0.043374488125440515,0,70,255.0,255.0,255.0
429,21.450000000000003,-4.944358733845906,-1.8828950250601242,-21.163843127559378,-0.054842109497469815,0.13782908995909463,-1.8720705424237356,0.0004402847631814928,0.002893590308200838,-0.04285081369583918,0,70,255.0,255.0,255.0
430,21.5,-4.9471,-1.876,-21.2575,-0.05480275736976268,0.1379709839315865,-1.8741999912477876,0.0011338003451038525,0.002782168591474621,-0.0423271392662361,0,70,255.0,255.0,255.0
431,21.55,-4.949838998553403,-1.869097810602692,-21.351262326719162,-0.054762743473312545,0.1381198417604977,-1.876281442172371,0.00046675551290151934,0.0031721445649739942,-0.04093089771710117,0,70,255.0,255.0,255.0
432,21.6,-4.952576830218025,-1.862187690843972,-21.445126980682616,-0.05475608181847253,0.1382881983880839,-1.8782930810194978,-0.00020028931930081385,0.0035621205384733677,-0.03953465616796624,0,70,255.0,255.0,255.0
433,21.650000000000002,-4.9553151626059435,-1.8552686657839057,-21.539090471286492,-0.054782772405242625,0.13847605381434505,-1.8802349077891676,-0.0008673341515031468,0.0039520965119727415,-0.0381384146188313,0,70,255.0,255.0,255.0
434,21.700000000000003,-4.958055663329242,-1.8483397604825595,-21.63314930792691,-0.05484281523362284,0.13868340803928117,-1.8821069224813811,-0.0015343789837054802,0.0043420724854721145,-0.03674217306969637,0,70,255.0,255.0,255.0
435,21.75,-4.9608,-1.8414,-21.7273,-0.05493621030361316,0.13891026106289225,-1.8839091250961375,-0.0022014238159079325,0.004732048458971905,-0.035345931520556206,0,70,255.0,255.0,255.0
436,21.8,-4.9635495395183895,-1.834449175420522,-21.821539783936135,-0.05504491490073627,0.13911065143140916,-1.885685137687821,-0.0021467600690163948,0.00328356628170481,-0.03569457214678309,0,70,255.0,255.0,255.0
437,21.85,-4.966304445936951,-1.8274901419253398,-21.91586880430264,-0.0551508863105148,0.13923861769106274,-1.8874785823108158,-0.0020920963221248575,0.0018350841044377153,-0.03604321277300998,0,70,255.0,255.0,255.0
438,21.900000000000002,-4.969064582596318,-1.8205265207198966,-22.010287932701075,-0.05525412453294876,0.13929415984185295,-1.889289458965122,-0.00203743257523332,0.0003866019271706201,-0.03639185339923687,0,70,255.0,255.0,255.0
439,21.950000000000003,-4.971829812837123,-1.8135619330096353,-22.10479804073301,-0.05535462956803814,0.13927727788377978,-1.8911177676507396,-0.0019827688283417825,-0.0010618802500964742,-0.036740494025463755,0,70,255.0,255.0,255.0
440,22.0,-4.9746,-1.8066,-22.1994,-0.05545240141578294,0.13918797181684328,-1.8929635083676681,-0.0019281050814504153,-0.0025103624273641323,-0.03708913465168884,0,70,255.0,255.0,255.0
441,22.05,-4.977374843373039,-1.799643087715219,-22.2940937375363,-0.055537596923739975,0.1391015525138643,-1.894770007076357,-0.0014797152368310187,-0.000946409691794492,-0.03517081369585885,0,70,255.0,255.0,255.0
442,22.1,-4.98015338603417,-1.792688541454667,-22.388875402106844,-0.05560037293946604,0.13909333084766382,-1.896480589737254,-0.0010313253922116222,0.0006175430437751483,-0.03325249274002887,0,70,255.0,255.0,255.0
443,22.150000000000002,-4.982934507008782,-1.7857324513365058,-22.48374019790923,-0.05564072946296114,0.13916330681824182,-1.8980952563503597,-0.0005829355475922258,0.0021814957793447887,-0.03133417178419889,0,70,255.0,255.0,255.0
444,22.200000000000003,-4.985717085322262,-1.7787709074788964,-22.578683329141086,-0.05565866649422527,0.13931148042559832,-1.899614006915674,-0.00013454570297282927,0.003745448514914429,-0.02941585082836891,0,70,255.0,255.0,255.0
445,22.25,-4.9885,-1.7718,-22.6737,-0.055654184033258426,0.13953785166973326,-1.9010368414331966,0.0003138441416466464,0.005309401250484402,-0.027497529872528403,0,70,255.0,255.0,255.0
446,22.3,-4.991282286989454,-1.764816873718602,-22.76878606591867,-0.05563669740430958,0.13977913851313228,-1.902402834006751,0.0003856210163071815,0.00434207248547683,-0.02714217306964563,0,70,255.0,255.0,255.0
447,22.35,-4.9940636099263696,-1.7578228922559909,-22.863939987270008,-0.05561562193162771,0.13997205891828096,-1.9037510587401612,0.0004573978909677166,0.0033747437204692593,-0.02678681626676286,0,70,255.0,255.0,255.0
448,22.400000000000002,-4.996843789368555,-1.750820473934078,-22.959160875662015,-0.05559095761521281,0.14011661288517924,-1.9050815156334273,0.0005291747656282516,0.0024074149554616873,-0.026431459463880088,0,70,255.0,255.0,255.0
449,22.450000000000003,-4.999622645873828,-1.7438120370747767,-23.054447842702682,-0.05556270445506488,0.14021280041382714,-1.9063942046865492,0.0006009516402887868,0.0014400861904541157,-0.026076102660997316,0,70,255.0,255.0,255.0
450,22.5,-5.0024,-1.7368,-23.1498,-0.055530862451183924,0.14026062150422466,-1.907689125899527,0.0006727285149494833,0.00047275742544639066,-0.025720745858107463,0,70,255.0,255.0,255.0
451,22.55,-5.005176008669142,-1.7297862174103718,-23.245216398789037,-0.05551561345901884,0.1402938934336083,-1.9089626568966185,-6.276882834635943e-05,0.0008581197498984283,-0.0252204940255563,0,70,255.0,255.0,255.0
452,22.6,-5.007952174260354,-1.7227702895213686,-23.340695848813137,-0.055537139334018555,0.14034643347921452,-1.9102111753020827,-0.0007982661716422021,0.0012434820743504659,-0.024720242193005136,0,70,255.0,255.0,255.0
453,22.650000000000002,-5.010730335516996,-1.7157512529271797,-23.43623709944272,-0.05559544007618306,0.14041824164104333,-1.9114346811159193,-0.001533763514938045,0.0016288443988025033,-0.02421999036045397,0,70,255.0,255.0,255.0
454,22.700000000000003,-5.013512331182426,-1.7087281442219935,-23.531838900048207,-0.05569051568551237,0.14050931791909477,-1.912633174338128,-0.0022692608582338875,0.002014206723254541,-0.023719738527902805,0,70,255.0,255.0,255.0
455,22.75,-5.0163,-1.7017,-23.6275,-0.05582236616200645,0.1406196623133688,-1.9138066549687094,-0.003004758201529567,0.002399569047706329,-0.023219486695348124,0,70,255.0,255.0,255.0
456,22.8,-5.019094478333979,-1.6946662566399107,-23.723218738925194,-0.05594884875961933,0.14072528775243423,-1.914930538406801,-0.002054545702985364,0.0018254485149102801,-0.021735850828314418,0,70,255.0,255.0,255.0
457,22.85,-5.021894093032214,-1.6876279496585336,-23.81899181747746,-0.056027820732304986,0.14080220716485983,-1.9159802400515409,-0.001104333204441161,0.0012513279821142313,-0.020252214961280716,0,70,255.0,255.0,255.0
458,22.900000000000002,-5.0246964685634605,-1.6805865143572019,-23.914815526567132,-0.056059282080063444,0.14085042055064564,-1.9169557599029292,-0.00015412070589695785,0.0006772074493181823,-0.01876857909424701,0,70,255.0,255.0,255.0
459,22.950000000000003,-5.027499229396471,-1.6735433860372464,-24.010686157104534,-0.05604323280289469,0.14086992790979166,-1.9178570979609655,0.0007960917926472452,0.00010308691652213342,-0.017284943227213304,0,70,255.0,255.0,255.0
460,23.0,-5.0303,-1.6665,-24.1066,-0.055979672900798715,0.14086072924229787,-1.9186842542256504,0.0017463042911915472,-0.00047103361627431894,-0.015801307360169048,0,70,255.0,255.0,255.0
461,23.05,-5.0330972779949485,-1.6594575560299858,-24.202554245510196,-0.055920991502510856,0.14083695555665257,-1.9194911894761781,0.0006009516403229834,-0.00047991380953718034,-0.01647610266094511,0,70,255.0,255.0,255.0
462,23.1,-5.035893053610794,-1.6524163118444957,-24.29854968127704,-0.05591957773676642,0.14081273786134413,-1.920331864491745,-0.0005444010105455804,-0.0004887940028000417,-0.017150897961721177,0,70,255.0,255.0,255.0
463,23.150000000000002,-5.038690190229167,-1.6453762896440125,-24.394587994288788,-0.05597543160356541,0.1407880761563726,-1.9212062792723503,-0.001689753661414144,-0.0004976741960629031,-0.01782569326249724,0,70,255.0,255.0,255.0
464,23.200000000000003,-5.041491551231693,-1.6383375116290193,-24.490670871533695,-0.05608855310290783,0.14076297044173786,-1.9221144338179947,-0.002835106312282708,-0.0005065543893257645,-0.018500488563273305,0,70,255.0,255.0,255.0
465,23.25,-5.0443,-1.6313,-24.5868,-0.05625894223479367,0.14073742071744003,-1.9230563281286779,-0.003980458963150857,-0.0005154345825879592,-0.01917528386404399,0,70,255.0,255.0,255.0
466,23.3,-5.047117209686233,-1.6242635192401453,-24.68297547903404,-0.056415185230328714,0.1407268900209566,-1.9239367036884787,-0.0022692608582507304,9.420672325074239e-05,-0.016039738527986413,0,70,255.0,255.0,255.0
467,23.35,-5.049940092524612,-1.6172268029634824,-24.779191057414405,-0.05648586832061875,0.1407468413897651,-1.9246603019814765,-0.0005580627533506035,0.0007038480290894439,-0.012904193191928835,0,70,255.0,255.0,255.0
468,23.400000000000002,-5.052764370519874,-1.610188327066747,-24.875438896277746,-0.05647099150566377,0.14079727482386556,-1.9252271230076716,0.0011531353515495234,0.0013134893349281455,-0.00976864785587126,0,70,255.0,255.0,255.0
469,23.450000000000003,-5.055585765676757,-1.6031465674466745,-24.971711156760726,-0.056370554785463795,0.14087819032325793,-1.9256371667670638,0.00286433345644965,0.001923130640766847,-0.006633102519813682,0,70,255.0,255.0,255.0
470,23.5,-5.0584,-1.5961,-25.068,-0.05618455816001882,0.14098958788794225,-1.9258904332596531,0.004575531561349433,0.0025327719466057275,-0.0034975571837545516,0,70,255.0,255.0,255.0
471,23.55,-5.061204283260119,-1.5890475670094322,-25.16429983835365,-0.05600226757616944,0.14110348435952041,-1.926121995769926,0.0027160917926255814,0.002023086916521592,-0.0057649432271670836,0,70,255.0,255.0,255.0
472,23.6,-5.064001776290758,-1.5819900763015728,-25.260614089065363,-0.05591294898075626,0.1411918965795944,-1.9264669275823698,0.0008566520239017298,0.0015134018864374566,-0.008032329270579616,0,70,255.0,255.0,255.0
473,23.650000000000002,-5.066797127691336,-1.5749288020889975,-25.35694842060026,-0.05591660237377927,0.14125482454816418,-1.9269252286969842,-0.0010027877448221213,0.001003716856353321,-0.01029971531399215,0,70,255.0,255.0,255.0
474,23.700000000000003,-5.069594986061276,-1.5678650185842813,-25.45330850142344,-0.056013227755238475,0.14129226826522975,-1.927496899113769,-0.0028622275135459733,0.0004940318262691857,-0.012567101357404681,0,70,255.0,255.0,255.0
475,23.75,-5.0724,-1.5608,-25.5497,-0.05620282512513385,0.14130422773079107,-1.9281819388327248,-0.0047216672822694705,-1.5653203815579886e-05,-0.014834487400825935,0,70,255.0,255.0,255.0
476,23.8,-5.075215257273289,-1.5537350127221257,-25.646125967551377,-0.05639174446499722,0.14129117254096255,-1.9288233132318262,-0.0028351063122652965,-0.000506554389325549,-0.010820488563224671,0,70,255.0,255.0,255.0
477,23.85,-5.0780376023123575,-1.5466712918302246,-25.742578986324155,-0.05648633575636039,0.1412535722918585,-1.9292639876890472,-0.0009485453422611221,-0.0009974555748355181,-0.0068064897256234075,0,70,255.0,255.0,255.0
478,23.900000000000002,-5.080862318714783,-1.539610064577261,-25.839049021321248,-0.056486598999223335,0.141191426983479,-1.9295039622043884,0.0009380156277430524,-0.001488356760345487,-0.0027924908880221436,0,70,255.0,255.0,255.0
479,23.950000000000003,-5.0836846900781385,-1.5325525582161978,-25.935526037545564,-0.05639253419358608,0.14110473661582396,-1.9295432367778496,0.0028245765977472264,-0.0019792579458554563,0.0012215079495791203,0,70,255.0,255.0,255.0
480,24.0,-5.0865,-1.5255,-26.032,-0.05620414133944862,0.14099350118889348,-1.9293818114094305,0.004711137567751655,-0.0024701591313660565,0.0052355067871836525,0,70,255.0,255.0,255.0
481,24.05,-5.089305087646726,-1.5184531821020641,-26.128463491440865,-0.05601475456384359,0.1408838254766285,-1.9291767513027467,0.0028643334564495155,-0.0019168693592328011,0.002966897480166576,0,70,255.0,255.0,255.0
482,24.1,-5.092103014459811,-1.511411156377527,-26.224919565638032,-0.05591770799380367,0.1408018142529702,-1.9290851216614138,0.0010175293451473752,-0.0013635795870995458,0.0006982881731494991,0,70,255.0,255.0,255.0
483,24.150000000000002,-5.0948983974495325,-1.504372539601957,-26.321373894114764,-0.05591300162932886,0.14074746751791856,-1.929106922485432,-0.0008292747661547651,-0.0008102898149662905,-0.0015703211338675771,0,70,255.0,255.0,255.0
484,24.200000000000003,-5.09769585362617,-1.4973359485509248,-26.417832148394336,-0.05600063547041914,0.14072078527147355,-1.9292421537748008,-0.002676078877456905,-0.00025700004283303515,-0.0038389304408846543,0,70,255.0,255.0,255.0
485,24.25,-5.1005,-1.4903,-26.5143,-0.05618060951707453,0.14072176751363522,-1.9294908155295203,-0.004522882988758581,0.0002962897292995148,-0.006107539747890911,0,70,255.0,255.0,255.0
486,24.3,-5.103313992139809,-1.483263458869616,-26.610780866685165,-0.056365237279632135,0.14074152555252442,-1.929717681557155,-0.0028622275135456996,0.0004940318262688176,-0.00296710135749616,0,70,255.0,255.0,255.0
487,24.35,-5.106135139848401,-1.4762256826596667,-26.70726915112372,-0.0564668322684291,0.1407711706962621,-1.92978752566527,-0.0012015720383328184,0.0006917739232381204,0.00017333703289859094,0,70,255.0,255.0,255.0
488,24.400000000000002,-5.10895929148709,-1.4691861770149088,-26.803757002219704,-0.05648539448346542,0.14081070294484824,-1.9297003478538652,0.00045908343688006326,0.0008895160202074232,0.003313775423293343,0,70,255.0,255.0,255.0
489,24.450000000000003,-5.111782295417185,-1.4621444475801006,-26.900236568877123,-0.056420923924741094,0.14086012229828285,-1.9294561481229404,0.002119738912092944,0.001087258117176726,0.006454213813688093,0,70,255.0,255.0,255.0
490,24.5,-5.1146,-1.4551,-26.9967,-0.05627342059225613,0.14091942875656593,-1.929054926472496,0.0037803943873058743,0.0012850002141462369,0.009594652204095055,0,70,255.0,255.0,255.0
491,24.55,-5.117409343794041,-1.4480529824194708,-27.093141041818477,-0.056108296317629376,0.1409500723132732,-1.9285925224686529,0.0028245765977643143,-5.925794585570328e-05,0.008901507949632393,0,70,255.0,255.0,255.0
492,24.6,-5.120211626146588,-1.4410061129838059,-27.189559829867083,-0.055990962932479696,0.14091350296198035,-1.9281647756775329,0.0018687588082227542,-0.0014035161058576434,0.008208363695169732,0,70,255.0,255.0,255.0
493,24.650000000000002,-5.123009236602114,-1.4339627523384058,-27.285958097006443,-0.05592142043680709,0.14080972070268744,-1.9277716860991359,0.0009129410186811942,-0.002747774265859583,0.00751521944070707,0,70,255.0,255.0,255.0
494,24.700000000000003,-5.125804564705094,-1.4269262611286702,-27.38233757609721,-0.05589966883061157,0.1406387255353944,-1.927413253733462,-4.287677086036584e-05,-0.004092032425861524,0.006822075186244407,0,70,255.0,255.0,255.0
495,24.75,-5.1286,-1.4199,-27.4787,-0.05592570811389313,0.14040051746010132,-1.9270894785805117,-0.0009986945604017472,-0.005436290585862702,0.006128930931783572,0,70,255.0,255.0,255.0
496,24.8,-5.131397432684027,-1.412886211452501,-27.575046166040934,-0.05596957744984013,0.14016218519438392,-1.9267442285682381,-0.00075607887747818,-0.004097000042832935,0.007681069559160414,0,70,255.0,255.0,255.0
497,24.85,-5.134196755565248,-1.4058826654051089,-27.67137312940797,-0.05600131600164095,0.13999081745581804,-1.9263213716245957,-0.0005134631945546129,-0.002757709499803169,0.009233208186537256,0,70,255.0,255.0,255.0
498,24.900000000000002,-5.136997362104455,-1.3988860136314665,-27.76767700975454,-0.056020923769295586,0.13988641424440362,-1.9258209077495845,-0.00027084751163104564,-0.001418418956773402,0.010785346813914097,0,70,255.0,255.0,255.0
499,24.950000000000003,-5.139798645762442,-1.3918929079052158,-27.863953926734073,-0.056028400752804054,0.13984897556014067,-1.9252428369432042,-2.823182870747849e-05,-7.912841374363606e-05,0.01233748544129094,0,70,255.0,255.0,255.0
500,25.0,-5.1426,-1.3849,-27.9602,-0.056023746952166345,0.13987850140302924,-1.9245871592054553,0.0002143838542160159,0.0012601621292869236,0.013889624068667672,0,70,255.0,255.0,255.0
501,25.05,-5.14540092546985,-1.3779045717705252,-28.056411894017796,-0.05601339388300894,0.13993718690919071,-1.9238865632583968,0.00019973891208036033,0.0010872581171728932,0.014134213813675703,0,70,255.0,255.0,255.0
502,25.1,-5.148201351592419,-1.3709064253957577,-28.152588452501057,-0.05600377306095831,0.13998722721474652,-1.9231737378240876,0.00018509396994470477,0.0009143541050588628,0.014378803558683735,0,70,255.0,255.0,255.0
503,25.150000000000002,-5.151001314980064,-1.3639059931357271,-28.248729063975418,-0.055994884486014466,0.14002862231969662,-1.9224486829025285,0.00017044902780904918,0.0007414500929448324,0.014623393303691766,0,70,255.0,255.0,255.0
504,25.200000000000003,-5.153800852245139,-1.3569037072504644,-28.344833116966523,-0.0559867281581774,0.14006137222404103,-1.9217113984937184,0.0001558040856733936,0.000568546080830802,0.014867983048699799,0,70,255.0,255.0,255.0
505,25.25,-5.1566,-1.3499,-28.4409,-0.05597930407744713,0.1400854769277797,-1.9209618845976584,0.00014115914353768355,0.00039564206871678387,0.015112572793711365,0,70,255.0,255.0,255.0
506,25.3,-5.159398865436574,-1.3428955014653978,-28.536928657887895,-0.05597684701812977,0.1400890671688513,-1.92017351839816,-4.287677084319468e-05,-0.00025203242585313066,0.01642207518622316,0,70,255.0,255.0,255.0
507,25.35,-5.162197838065075,-1.3358916330118602,-28.632916260587823,-0.05598359175453145,0.1400602736851944,-1.919319677079036,-0.00022691268522407292,-0.0008997069204230452,0.01773157757873495,0,70,255.0,255.0,255.0
508,25.400000000000002,-5.164997377975289,-1.3288900138256239,-28.72885953434381,-0.055999538286652176,0.139999096476809,-1.9184003606402866,-0.00041094859960495115,-0.0015473814149929597,0.019041079971246745,0,70,255.0,255.0,255.0
509,25.450000000000003,-5.167797945257003,-1.3218922630929246,-28.82475520539986,-0.05602468661449195,0.1399055355436951,-1.9174155690819112,-0.0005949845139858294,-0.0021950559095628742,0.020350582363758536,0,70,255.0,255.0,255.0
510,25.5,-5.1706,-1.3149,-28.9206,-0.05605903673805076,0.1397795908858527,-1.9163653024039107,-0.0007790204283666946,-0.0028427304041322987,0.021660084756270237,0,70,255.0,255.0,255.0
511,25.55,-5.173403612783855,-1.307914222367883,-29.016391074430636,-0.056079218044477186,0.1396585444154057,-1.915275363148972,-2.8231828690472994e-05,-0.001999128413747219,0.021937485441267772,0,70,255.0,255.0,255.0
512,25.6,-5.1762072961472825,-1.3009334425568004,-29.112127305147663,-0.056061859920919804,0.139579678044478,-1.9141715538597839,0.0007225567709857486,-0.0011555264233621392,0.022214886126265307,0,70,255.0,255.0,255.0
513,25.650000000000002,-5.179009173118781,-1.2939555515617767,-29.207807998649375,-0.056006962367378614,0.1395429917730695,-1.9130538745363457,0.0014733453706619703,-0.00031192443297705947,0.022492286811262842,0,70,255.0,255.0,255.0
514,25.700000000000003,-5.181807366726853,-1.2869784403778346,-29.303432461434067,-0.05591452538385361,0.13954848560118027,-1.9119223251786575,0.002224133970338192,0.0005316775574080203,0.022769687496260377,0,70,255.0,255.0,255.0
515,25.75,-5.1846,-1.28,-29.399,-0.0557845489703448,0.13959615952881033,-1.9107769057867197,0.002974922570014249,0.0013752795477932622,0.023047088181250786,0,70,255.0,255.0,255.0
516,25.8,-5.187385883428005,-1.2730188090630692,-29.494509444389585,-0.05565828080395315,0.13964475516952582,-1.9095890290059698,0.002075804085651754,0.0005685460808264039,0.024467983048744223,0,70,255.0,255.0,255.0
517,25.85,-5.190166577345799,-1.2660361967609364,-29.589957718821545,-0.05557696856177962,0.139653014136893,-1.908330107481845,0.001176685601289259,-0.0002381873861404544,0.02588887791623766,0,70,255.0,255.0,255.0
518,25.900000000000002,-5.192944329549587,-1.259054179927269,-29.685341271058714,-0.05554061224382422,0.13962093643091178,-1.9070001412143458,0.0002775671169267641,-0.001044920853107313,0.027309772783731097,0,70,255.0,255.0,255.0
519,25.950000000000003,-5.195721387835585,-1.2520747753957344,-29.780656548863927,-0.055549211850086946,0.13954852205158222,-1.9055991302034723,-0.0006215513674357308,-0.001851654320074171,0.02873066765122453,0,70,255.0,255.0,255.0
520,26.0,-5.1985,-1.2451,-29.8759,-0.0556027673805678,0.1394357709989044,-1.9041270744492238,-0.0015206698517983286,-0.0026583877870411943,0.03015156251871609,0,70,255.0,255.0,255.0
521,26.05,-5.20128165350412,-1.2381313413798396,-29.97106874801105,-0.0556556587397124,0.1393144349064895,-1.9026245208271608,-0.0005949845139858169,-0.002195055909554393,0.029950582363806075,0,70,255.0,255.0,255.0
522,26.1,-5.204064794469523,-1.2311681703994533,-30.06616261956618,-0.05566226583196638,0.13921626540794896,-1.9011320162128431,0.00033070082382669476,-0.001731724032067592,0.02974960220889606,0,70,255.0,255.0,255.0
523,26.150000000000002,-5.206847108682867,-1.2242093287291467,-30.161182117115796,-0.055622588657329726,0.13914126250328274,-1.899649560606271,0.0012563861616392063,-0.001268392154580791,0.02954862205398604,0,70,255.0,255.0,255.0
524,26.200000000000003,-5.209626281930809,-1.2172536580392266,-30.256127743110273,-0.05553662721580246,0.13908942619249087,-1.8981771540074446,0.002182071499451718,-0.0008050602770939899,0.029347641899076026,0,70,255.0,255.0,255.0
525,26.25,-5.2124,-1.2103,-30.351,-0.05540438150738457,0.1390607564755733,-1.8967147964163635,0.003107756837264497,-0.000341728399608332,0.02914666174415892,0,70,255.0,255.0,255.0
526,26.3,-5.215166702555517,-1.2033478254175718,-30.44579876356624,-0.0552710842371945,0.1390175052045182,-1.8952248876853555,0.0022241339703382586,-0.0013883224425961388,0.03044968749616894,0,70,255.0,255.0,255.0
527,26.35,-5.217927844776108,-1.1963991216412504,-30.540521402913743,-0.05518196811035073,0.1389219242313137,-1.8936698276667465,0.0013405111034120202,-0.0024349164855839455,0.03175271324817896,0,70,255.0,255.0,255.0
528,26.400000000000002,-5.220685635718941,-1.189456505156143,-30.635164660478125,-0.055137033126853294,0.13877401355595978,-1.8920496163605376,0.0004568882364857818,-0.003481510528571752,0.033055739000188974,0,70,255.0,255.0,255.0
529,26.450000000000003,-5.223442284441184,-1.1825225924473568,-30.729725278695007,-0.05513627928670216,0.1385737731784565,-1.8903642537667276,-0.0004267346304404566,-0.004528104571559559,0.034358764752199,0,70,255.0,255.0,255.0
530,26.5,-5.2262,-1.1756,-30.8242,-0.05517970658989733,0.13832120309880383,-1.8886137398853178,-0.0013103574973662435,-0.005574698614547957,0.03566179050420004,0,70,255.0,255.0,255.0
531,26.55,-5.228960336273812,-1.1686901569498718,-30.918585797723992,-0.05522800431151737,0.13808754427543815,-1.8868119284314326,-0.0006215513674357145,-0.003771654320078018,0.036410667651203724,0,70,255.0,255.0,255.0
532,26.6,-5.231722226426044,-1.161789743035544,-31.012880568778858,-0.0552418617266409,0.13794403766679603,-1.8849726731201975,6.725476249481457e-05,-0.0019686100256080794,0.0371595447982074,0,70,255.0,255.0,255.0
533,26.650000000000002,-5.234483948441368,-1.15489425064628,-31.107082440971727,-0.055221278835267895,0.13789068327287735,-1.883095973951612,0.0007560608924253435,-0.0001655657311381408,0.03790842194521108,0,70,255.0,255.0,255.0
534,26.700000000000003,-5.237243780304462,-1.147999172171344,-31.20118954210973,-0.05516625563739836,0.13792748109368222,-1.8811818309256763,0.0014448670223558726,0.0016374785633317982,0.038657299092214756,0,70,255.0,255.0,255.0
535,26.75,-5.24,-1.1411,-31.2952,-0.05507679213303231,0.13805443112921054,-1.8792302440423905,0.0021336731522866303,0.003440522857801165,0.03940617623922904,0,70,255.0,255.0,255.0
536,26.8,-5.242751152349234,-1.1341939467829403,-31.3891116455378,-0.05496889851673842,0.13816831769372828,-1.87722339858893,0.0021820714994688524,0.001114939722909381,0.04086764189918883,0,70,255.0,255.0,255.0
537,26.85,-5.245496849519718,-1.1272851062165725,-31.482921121970847,-0.054858584983085414,0.1381659251015015,-1.8751434798524715,0.0022304698466510745,-0.001210643411982403,0.04232910755914862,0,70,255.0,255.0,255.0
538,26.900000000000002,-5.2482369705155865,-1.1203792922587354,-31.576624775634997,-0.054745851532073314,0.13804725335253007,-1.872990487833015,0.0022788681938332965,-0.0035362265468741874,0.04379057321910842,0,70,255.0,255.0,255.0
539,26.950000000000003,-5.2509713943409695,-1.1134823188672653,-31.6702189528661,-0.054630698163702085,0.13781230244681406,-1.8707644225305606,0.0023272665410155186,-0.005861809681765971,0.04525203887906821,0,70,255.0,255.0,255.0
540,27.0,-5.2537,-1.1066,-31.7637,-0.05451312487797177,0.13746107238435348,-1.8684652839451084,0.0023756648881977926,-0.008187392816658479,0.04671350453902434,0,70,255.0,255.0,255.0
541,27.05,-5.256423054329255,-1.0997364559183676,-31.857065220124827,-0.054416401621527936,0.137095184949648,-1.8661504772128286,0.0014932653695552954,-0.006448104571559929,0.04587876475216389,0,70,255.0,255.0,255.0
542,27.1,-5.259142375495085,-1.0928890320981641,-31.950315743337775,-0.054363798341016234,0.13681626192719748,-1.863877407469892,0.0006108658509127978,-0.00470881632646138,0.04504402496530344,0,70,255.0,255.0,255.0
543,27.150000000000002,-5.261860169496288,-1.0860533803187766,-32.04345365648831,-0.054355315036436654,0.13662430331700187,-1.8616460747162984,-0.0002715336677296997,-0.0029695280813628305,0.04420928517844299,0,70,255.0,255.0,255.0
544,27.200000000000003,-5.264578642331662,-1.079225152359593,-32.1364810464259,-0.05439095170778921,0.1365193091190612,-1.8594564789520474,-0.001153933186372197,-0.001230239836264281,0.04337454539158254,0,70,255.0,255.0,255.0
545,27.25,-5.2673,-1.0724,-32.2294,-0.05447070835507388,0.13650127933337544,-1.8573086201771403,-0.0020363327050142432,0.0005090484088328129,0.042539805604723924,0,70,255.0,255.0,255.0
546,27.3,-5.2700254303337495,-1.065574629543589,-32.3222114739629,-0.05453349499714064,0.13650694250767953,-1.8551346925597203,-0.00047513297765640057,-0.000282521436668637,0.04441729909207164,0,70,255.0,255.0,255.0
547,27.35,-5.272752048499941,-1.0587499653907697,-32.414911904678064,-0.054518221652839524,0.13647302718970858,-1.852866890267933,0.001086066749701442,-0.0010740912821700869,0.04629479257941936,0,70,255.0,255.0,255.0
548,27.400000000000002,-5.27547595149926,-1.051927986466156,-32.50749659841179,-0.054424888322170496,0.13639953337946253,-1.8505052133017783,0.002647266477059285,-0.0018656611276715368,0.04817228606676708,0,70,255.0,255.0,255.0
549,27.450000000000003,-5.278193236332386,-1.0451106716943612,-32.59996086143034,-0.054253495005133594,0.13628646107694142,-1.8480496616612563,0.0042084662044171274,-0.0026572309731729866,0.0500497795541148,0,70,255.0,255.0,255.0
550,27.5,-5.2809,-1.0383,-32.6923,-0.054004041701728796,0.13613381028214525,-1.8455002353463668,0.005769665931775025,-0.00344880081867438,0.051927273041457056,0,70,255.0,255.0,255.0
551,27.55,-5.283593624335751,-1.0314978259072756,-32.78450968402359,-0.05375361838990914,0.13594904501963423,-1.8428787525483508,0.004247266541010964,-0.003941809681766146,0.052932038879181686,0,70,255.0,255.0,255.0
552,27.6,-5.28627663050515,-1.0247055063387556,-32.876587037949975,-0.05357931504762769,0.13573962931396863,-1.8402070314584484,0.0027248671502469023,-0.004434818544857913,0.053936804716906324,0,70,255.0,255.0,255.0
553,27.650000000000002,-5.288952824506673,-1.0179242738165977,-32.96852954986458,-0.05348113167488445,0.13550556316514842,-1.83748507207666,0.0012024677594828408,-0.00492782740794968,0.054941570554630954,0,70,255.0,255.0,255.0
554,27.700000000000003,-5.2916260123387975,-1.0111553608629598,-33.06033470785278,-0.05345906827167941,0.13524684657317365,-1.8347128744029852,-0.00031993163128122074,-0.005420836271041446,0.05594633639235559,0,70,255.0,255.0,255.0
555,27.75,-5.2943,-1.0044,-33.152,-0.053513124838012564,0.1349634795380443,-1.8318904384374246,-0.0018423310220452849,-0.005913845134132734,0.05695110223008015,0,70,255.0,255.0,255.0
556,27.8,-5.296977672323247,-0.9976588668273079,-33.243523389942766,-0.05358803144322257,0.13468887741378432,-1.8290462972468786,-0.0011539331863550397,-0.005070239836266432,0.05681454539175661,0,70,255.0,255.0,255.0
557,27.85,-5.2996582294794585,-0.9909304092542065,-33.33490474352205,-0.05362851815664807,0.13445645555441765,-1.826208983898249,-0.0004655353506647945,-0.00422663453840013,0.05667798855343306,0,70,255.0,255.0,255.0
558,27.900000000000002,-5.302339950474049,-0.984212518267451,-33.42614440212996,-0.05363458497828906,0.13426621395994429,-1.823378498391535,0.00022286248502545068,-0.0033830292405338277,0.056541431715109516,0,70,255.0,255.0,255.0
559,27.950000000000003,-5.305021114312424,-0.9775030848537969,-33.51724270715857,-0.05360623190814553,0.13411815263036425,-1.820554840726738,0.0009112603207156959,-0.0025394239426675255,0.05640487487678597,0,70,255.0,255.0,255.0
560,28.0,-5.3077,-0.9708,-33.6082,-0.053543458946217495,0.13401227156567758,-1.817738010903857,0.0015996581564057255,-0.0016958186448010615,0.05626831803847132,0,70,255.0,255.0,255.0
561,28.05,-5.310374886371261,-0.9641019067834922,-33.69901595620534,-0.05344625583719723,0.13390344532522822,-1.8148880584640497,0.0022884662044045587,-0.0026572309731730886,0.05772977955382752,0,70,255.0,255.0,255.0
