idx,t,px,py,pz,vx,vy,vz,ax,ay,az,yaw,mode,ledr,ledg,ledb
0,0.0,-4.5,3.0,0.0,-2.8296073122665753e-21,3.555799232053913e-20,0.017974594246339348,3.3955287747198905e-20,-4.266959078464695e-19,-0.5084951309560722,0,70,255.0,255.0,255.0
1,0.05,-4.5,3.0,0.00026468539286821644,-1.3016193636426246e-21,1.6356676467448e-20,-0.007355686646683905,2.716423019775912e-20,-3.413567262771756e-19,-0.5047161047648578,0,70,255.0,255.0,255.0
2,0.1,-4.5,3.0,-0.0007324194761757119,-1.1318429249066314e-22,1.4223196928215695e-21,-0.03249701623014644,2.0373172648319344e-20,-2.560175447078817e-19,-0.5009370785736433,0,70,255.0,255.0,255.0
3,0.15000000000000002,-4.5,3.0,-0.002981867041653749,7.356979011893103e-22,-9.245078003340178e-21,-0.05744939450404825,1.3582115098879558e-20,-1.7067836313858776e-19,-0.49715805238242894,0,70,255.0,255.0,255.0
4,0.2,-4.5,3.0,-0.006474209738087858,1.245027217397293e-21,-1.5645516621037204e-20,-0.08221282146838933,6.791057549439782e-21,-8.53391815692939e-20,-0.4933790261912145,0,70,255.0,255.0,255.0
5,0.25,-4.5,3.0,-0.0112,1.4148036561332877e-21,-1.7778996160269564e-20,-0.10678729712316967,0.0,0.0,-0.4895999999999998,0,70,255.0,255.0,255.0
6,0.30000000000000004,-4.5,3.0,-0.01714979026191215,1.2450272173972928e-21,-1.5645516621037213e-20,-0.13117282146838932,-6.791057549439787e-21,8.533918156929398e-20,-0.4858209738087854,0,70,255.0,255.0,255.0
7,0.35000000000000003,-4.5,3.0,-0.024314132958346255,7.356979011893091e-22,-9.245078003340169e-21,-0.15536939450404824,-1.3582115098879568e-20,1.7067836313858786e-19,-0.4820419476175711,0,70,255.0,255.0,255.0
8,0.4,-4.5,3.0,-0.032683580523824286,-1.1318429249066343e-22,1.4223196928215695e-21,-0.1793770162301464,-2.0373172648319347e-20,2.5601754470788176e-19,-0.4782629214263567,0,70,255.0,255.0,255.0
9,0.45,-4.5,3.0,-0.04224868539286821,-1.3016193636426252e-21,1.6356676467448007e-20,-0.20319568664668392,-2.716423019775912e-20,3.413567262771756e-19,-0.47448389523514234,0,70,255.0,255.0,255.0
10,0.5,-4.5,3.0,-0.053,-2.8296073122665753e-21,3.555799232053913e-20,-0.22682540575366067,-3.3955287747198905e-20,4.2669590784646957e-19,-0.4707048690439266,0,70,255.0,255.0,255.0
11,0.55,-4.5,3.0,-0.06492632434521964,-3.678489505946548e-21,4.622539001670086e-20,-0.2501610274797589,3.009265538105056e-35,-3.851859888774472e-34,-0.4627199999999996,0,70,255.0,255.0,255.0
12,0.6000000000000001,-4.5,3.0,-0.0780094486904393,-2.8296073122665727e-21,3.5557992320539087e-20,-0.27309740575366065,3.3955287747198965e-20,-4.2669590784647034e-19,-0.45473513095607254,0,70,255.0,255.0,255.0
13,0.65,-4.5,3.0,-0.0922294108630491,-2.8296073122665584e-22,3.5557992320538726e-21,-0.2956345405753661,6.791057549439782e-20,-8.533918156929394e-19,-0.4467502619121455,0,70,255.0,255.0,255.0
14,0.7000000000000001,-4.5,3.0,-0.10756624869043929,3.961450237173212e-21,-4.978118924875489e-20,-0.3177724319448752,1.0186586324159676e-19,-1.2800877235394095e-18,-0.4387653928682185,0,70,255.0,255.0,255.0
15,0.75,-4.5,3.0,-0.124,9.903625592933013e-21,-1.2445297312188696e-19,-0.3395110798621879,1.3582115098879562e-19,-1.706783631385878e-18,-0.43078052382429144,0,70,255.0,255.0,255.0
16,0.8,-4.5,3.0,-0.1415121123572093,1.3468930806388897e-20,-1.6925604344576627e-19,-0.3609350686125756,6.791057549439656e-21,-8.533918156929236e-20,-0.4261790261912144,0,70,255.0,255.0,255.0
17,0.8500000000000001,-4.5,3.0,-0.16008967227989668,1.058273134787698e-20,-1.329868912788162e-19,-0.3821289824813094,-1.222390358899163e-19,1.5361052682472934e-18,-0.42157752855813735,0,70,255.0,255.0,255.0
18,0.9,-4.5,3.0,-0.17972117602397936,1.2450272173972911e-21,-1.5645516621037174e-20,-0.4030928214683893,-2.5126912932927194e-19,3.1575497180638756e-18,-0.4169760309250603,0,70,255.0,255.0,255.0
19,0.9500000000000001,-4.5,3.0,-0.20039511984537475,-1.454418158505022e-20,1.8276808052757152e-19,-0.4238265855738154,-3.8029922276862795e-19,4.778994167880461e-18,-0.41237453329198326,0,70,255.0,255.0,255.0
20,1.0,-4.5,3.0,-0.2221,-3.678489505946548e-20,4.622539001670087e-19,-0.44433027479758763,-5.093293162079836e-19,6.400438617697045e-18,-0.4077730356589071,0,70,255.0,255.0,255.0
21,1.05,-4.5,3.0,-0.24482282622594312,-5.0197233719609045e-20,6.307987837663642e-19,-0.46451469806993884,-2.716423019775872e-20,3.4135672627717022e-19,-0.39960389523514184,0,70,255.0,255.0,255.0
22,1.1,-4.5,3.0,-0.26854466218997414,-3.9501318079241354e-20,4.963895727947258e-19,-0.48429066432110185,4.550008558124661e-19,-5.717725165142704e-18,-0.39143475481137663,0,70,255.0,255.0,255.0
23,1.1500000000000001,-4.5,3.0,-0.2932450850410336,-4.69714813836239e-21,5.902626725209326e-20,-0.5036581735510766,9.371659418226909e-19,-1.1776807056562576e-17,-0.38326561438761136,0,70,255.0,255.0,255.0
24,1.2000000000000002,-4.5,3.0,-0.31890367192806196,5.421527610302781e-20,-6.812911328615331e-19,-0.522617225759863,1.4193310278329159e-18,-1.7835888947982453e-17,-0.3750964739638461,0,70,255.0,255.0,255.0
25,1.25,-4.5,3.0,-0.3455,1.372359546449289e-19,-1.724562627546148e-18,-0.5411678209474611,1.901496113843138e-18,-2.3894970839402296e-17,-0.366927333540076,0,70,255.0,255.0,255.0
26,1.3,-4.5,3.0,-0.37301498273901823,1.8732000407204726e-19,-2.3539390916196907e-18,-0.5593901391076684,1.018658632415946e-19,-1.2800877235393905e-18,-0.3619653928682176,0,70,255.0,255.0,255.0
27,1.35,-4.5,3.0,-0.401434878960207,1.4742254096908838e-19,-1.852571399900087e-18,-0.577364360234283,-1.6977643873599487e-18,2.1334795392323515e-17,-0.3570034521963592,0,70,255.0,255.0,255.0
28,1.4000000000000001,-4.5,3.0,-0.43074728381188665,1.754356533605228e-20,-2.2045955238733697e-19,-0.5950904843273044,-3.497394637961492e-18,4.3949678508186424e-17,-0.3520415115245008,0,70,255.0,255.0,255.0
29,1.4500000000000002,-4.5,3.0,-0.4609397924423776,-2.023169228270611e-19,2.542396450918559e-18,-0.612568511386733,-5.297024888563035e-18,6.656456162404933e-17,-0.3470795708526424,0,70,255.0,255.0,255.0
30,1.5,-4.5,3.0,-0.492,-5.121589235202501e-19,6.435996610017583e-18,-0.6297984414125685,-7.096655139164569e-18,8.917944473991213e-17,-0.34211763018077956,0,70,255.0,255.0,255.0
31,1.55,-4.5,3.0,-0.5239148428179841,-6.9908278256858e-19,8.784957582712398e-18,-0.6467407454993876,-3.802992227686211e-19,4.7789941678803754e-18,-0.33557453329198433,0,70,255.0,255.0,255.0
32,1.6,-4.5,3.0,-0.5566686219691981,-5.501888457971122e-19,6.913896026805623e-18,-0.6633558947417669,6.336056693627327e-18,-7.962145640415138e-17,-0.3290314364031891,0,70,255.0,255.0,255.0
33,1.6500000000000001,-4.5,3.0,-0.5902449797114202,-6.547711320584687e-20,8.228119422972548e-19,-0.6796438891397065,1.3052412610023276e-17,-1.6402190697618315e-16,-0.3224883395143939,0,70,255.0,255.0,255.0
34,1.7000000000000002,-4.5,3.0,-0.6246275583024282,7.550524152052165e-19,-9.488294670812701e-18,-0.6956047286932063,1.9768768526419223e-17,-2.484223575482149e-16,-0.31594524262559864,0,70,255.0,255.0,255.0
35,1.75,-4.5,3.0,-0.6598,1.9113997394360715e-18,-2.4019423812524184e-17,-0.7112384134022662,2.6485124442815142e-17,-3.328228081202462e-16,-0.30940214573679903,0,70,255.0,255.0,255.0
36,1.8,-4.5,3.0,-0.6957456459890456,2.609011126202273e-18,-3.27858912392299e-17,-0.7265268788947822,1.419331027832888e-18,-1.7835888947982108e-17,-0.3021364739638404,0,70,255.0,255.0,255.0
37,1.85,-4.5,3.0,-0.7324466331630008,2.0533328422193608e-18,-2.580301270732239e-17,-0.7414520607986502,-2.3646462387149366e-17,2.97151030224282e-16,-0.29487080219088174,0,70,255.0,255.0,255.0
38,1.9000000000000001,-4.5,3.0,-0.7698847973424332,2.443648874873338e-19,-3.0707882168016784e-18,-0.7560139591138704,-4.871225580213161e-17,6.12137949396546e-16,-0.2876051304179231,0,70,255.0,255.0,255.0
39,1.9500000000000002,-4.5,3.0,-0.8080419743479105,-2.817892737993806e-18,3.541078223233227e-17,-0.7702125738404426,-7.377804921711387e-17,9.271248685688102e-16,-0.2803394586449645,0,70,255.0,255.0,255.0
40,2.0,-4.5,3.0,-0.8469,-7.133440034224035e-18,8.964169864007915e-17,-0.7840479049783668,-9.884384263209601e-17,1.2421117877410732e-15,-0.27307378687200945,0,70,255.0,255.0,255.0
41,2.0500000000000003,-4.5,3.0,-0.8864417732258338,-9.736961722240513e-18,1.2235860737420721e-16,-0.7975837389214833,-5.2970248885625385e-18,6.656456162404314e-17,-0.26835957085264145,0,70,255.0,255.0,255.0
42,2.1,-4.5,3.0,-0.9266544453787989,-7.66314252308033e-18,9.629815480248399e-17,-0.8108838620636311,8.82497928549701e-17,-1.1089826644929763e-15,-0.2636453548332735,0,70,255.0,255.0,255.0
43,2.15,-4.5,3.0,-0.9675262309188472,-9.11982436743533e-19,1.1460340924909958e-17,-0.8239482744048104,1.8179661059850271e-16,-2.284529890609996e-15,-0.25893113881390556,0,70,255.0,255.0,255.0
44,2.2,-4.5,3.0,-1.0090453443059306,1.0516518536770001e-17,-1.321548342585163e-16,-0.8367769759450215,2.7534342834203617e-16,-3.4600771167270257e-15,-0.25421692279453756,0,70,255.0,255.0,255.0
45,2.25,-4.5,3.0,-1.0512,2.6622360397460072e-17,-3.3454737074779243e-16,-0.8493699666842642,3.6889024608556887e-16,-4.635624342844046e-15,-0.24950270677516606,0,70,255.0,255.0,255.0
46,2.3000000000000003,-4.5,3.0,-1.09397686110762,3.6338835762759775e-17,-4.56648538257599e-16,-0.8616341654192834,1.9768768526417343e-17,-2.484223575481917e-16,-0.2410652426255982,0,70,255.0,255.0,255.0
47,2.35,-4.5,3.0,-1.1373563853218038,2.859923725010196e-17,-3.5938960650261365e-16,-0.8734764909468241,-3.293527090327311e-16,4.138779627747623e-15,-0.2326277784760304,0,70,255.0,255.0,255.0
48,2.4000000000000004,-4.5,3.0,-1.1813174789821779,3.4035648594864834e-18,-4.2770575482834345e-17,-0.8848969432668864,-6.784741865918825e-16,8.525981613043478e-15,-0.22419031432646253,0,70,255.0,255.0,255.0
49,2.45,-4.5,3.0,-1.2258390484283677,-3.924818140908622e-17,4.932085548017329e-16,-0.8958955223794703,-1.027595664151031e-15,1.2913183598339291e-14,-0.21575285017689472,0,70,255.0,255.0,255.0
50,2.5,-4.5,3.0,-1.2709,-9.935600155561625e-17,1.2485477843510905e-15,-0.9064722282845757,-1.3767171417101796e-15,1.7300385583635105e-14,-0.20731538602732247,0,70,255.0,255.0,255.0
51,2.5500000000000003,-4.5,3.0,-1.316481182343687,-1.3561838132879862e-16,1.7042355456561886e-15,-0.9167435994013831,-7.377804921710697e-17,9.271248685687198e-16,-0.20353945864496745,0,70,255.0,255.0,255.0
52,2.6,-4.5,3.0,-1.3625712133339862,-1.0673380647732752e-16,1.3412602712079699e-15,-0.9268261741490725,1.2291610432759542e-15,-1.544613584649752e-14,-0.19976353126261248,0,70,255.0,255.0,255.0
53,2.6500000000000004,-4.5,3.0,-1.4091606531524423,-1.2702277001202533e-17,1.5962196100642762e-16,-0.9367199525276444,2.5321001357690264e-15,-3.1819396561563906e-14,-0.19598760388025746,0,70,255.0,255.0,255.0
54,2.7,-4.5,3.0000000000000004,-1.4562400619805986,1.464762070995748e-16,-1.8406793849484163e-15,-0.9464249345370982,3.835039228262088e-15,-4.8192657276630146e-14,-0.1922116764979025,0,70,255.0,255.0,255.0
55,2.75,-4.5,3.0,-1.5038,3.708016458250049e-16,-4.6596437666565695e-15,-0.9559411201774345,5.13797832075515e-15,-6.45659179916964e-14,-0.18843574911554395,0,70,255.0,255.0,255.0
56,2.8000000000000003,-4.5,2.9999999999999996,-1.5518288095176327,5.061346895524347e-16,-6.360293644367156e-15,-0.9651354369751864,2.7534342834201122e-16,-3.4600771167267106e-15,-0.17933692279453103,0,70,255.0,255.0,255.0
57,2.85,-4.5,2.999999999999999,-1.6003059613422512,3.9833598865920824e-16,-5.005651478329267e-15,-0.9738748124568877,-4.587291464071085e-15,5.764576375824245e-14,-0.1702380964735182,0,70,255.0,255.0,255.0
58,2.9000000000000004,-4.5,2.999999999999999,-1.6492087084080542,4.740554314532365e-17,-5.957172685428791e-16,-0.9821592466225383,-9.449926356484224e-15,1.1875160463321215e-13,-0.1611392701525053,0,70,255.0,255.0,255.0
59,2.95,-4.5,2.9999999999999996,-1.6985143036492376,-5.466566469892129e-16,6.869508984991931e-15,-0.9899887394721382,-1.431256124889732e-14,1.798574455081813e-13,-0.15204044383149246,0,70,255.0,255.0,255.0
60,3.0,-4.5,3.0,-1.7482,-1.3838505817444035e-15,1.739002728227519e-14,-0.9973632910056873,-1.9175196141310418e-14,2.4096328638315057e-13,-0.14294161751047518,0,70,255.0,255.0,255.0
61,3.0500000000000003,-4.5,3.0000000000000013,-1.7982451795857837,-1.88892037688094e-15,2.373693903181244e-14,-1.0044106526978716,-1.0275956641509328e-15,1.2913183598338154e-14,-0.13895285017688755,0,70,255.0,255.0,255.0
62,3.1,-4.5,3.000000000000002,-1.8486377412970094,-1.486610148159505e-15,1.8681345642109105e-14,-1.011258576023376,1.712000481300839e-14,-2.1513691918647224e-13,-0.13496408284329994,0,70,255.0,255.0,255.0
63,3.1500000000000004,-4.5,3.0000000000000027,-1.8993677132153433,-1.7691989558009098e-16,2.2232471131650927e-15,-1.0179070609822014,3.5267605290167874e-14,-4.431870219712847e-13,-0.1309753155097123,0,70,255.0,255.0,255.0
64,3.2,-4.499999999999999,3.000000000000002,-1.9504251234224514,2.040150380857277e-15,-2.5637356555019297e-14,-1.0243561075743475,5.34152057673272e-14,-6.71237124756095e-13,-0.1269865481761247,0,70,255.0,255.0,255.0
65,3.25,-4.5,3.0,-2.0018,5.164600681152609e-15,-6.490046536244419e-14,-1.0306057157998139,7.156280624448651e-14,-8.992872275409057e-13,-0.1229977808425371,0,70,255.0,255.0,255.0
66,3.3000000000000003,-4.5,2.999999999999996,-2.0534808721392337,7.049546817971325e-15,-8.85874624828826e-14,-1.0365659522333253,3.835039228261727e-15,-4.819265727662549e-14,-0.11541167649791464,0,70,255.0,255.0,255.0
67,3.35,-4.499999999999999,2.9999999999999916,-2.105450273469712,5.548104603978812e-15,-6.971973109010713e-14,-1.0421468834496053,-6.389272778796248e-14,8.02901912987647e-13,-0.10782557215329226,0,70,255.0,255.0,255.0
68,3.4000000000000004,-4.499999999999999,2.99999999999999,-2.157689238730574,6.602740391750424e-16,-8.297271184117427e-15,-1.0473485094486543,-1.3162049480418725e-13,1.6539964832519271e-12,-0.1002394678086698,0,70,255.0,255.0,255.0
69,3.45,-4.499999999999999,2.9999999999999916,-2.210178802660957,-7.613944876439894e-15,9.567991723508536e-14,-1.0521708302304724,-1.9934826182041146e-13,2.5050910535161998e-12,-0.09265336346404741,0,70,255.0,255.0,255.0
70,3.5,-4.5,3.0,-2.2629,-1.9274552142866033e-14,2.422118341675016e-13,-1.0566138457950593,-2.670760288366357e-13,3.3561856237804724e-12,-0.08506725911943036,0,70,255.0,255.0,255.0
71,3.5500000000000003,-4.500000000000001,3.0000000000000147,-2.315834531857283,-2.6309266895004358e-14,3.30612910899718e-13,-1.0607175383688323,-1.431256124889597e-14,1.7985744550816385e-13,-0.07908044383148219,0,70,255.0,255.0,255.0
72,3.6,-4.500000000000003,3.0000000000000306,-2.3689667648241435,-2.0705808267755744e-14,2.601975787183195e-13,-1.0645218901782076,2.384509063388415e-13,-2.9964707327641164e-12,-0.07309362854353409,0,70,255.0,255.0,255.0
73,3.6500000000000004,-4.500000000000003,3.0000000000000386,-2.4222817318623635,-2.4641762611200803e-15,3.096583762330478e-14,-1.0680269012231858,4.912143739265813e-13,-6.1727989110364246e-12,-0.06710681325558591,0,70,255.0,255.0,255.0
74,3.7,-4.500000000000002,3.0000000000000306,-2.475764465933722,2.8415629124902308e-14,-3.5708231238532204e-13,-1.071232571503766,7.439778415143187e-13,-9.349127089308706e-12,-0.06111999796763781,0,70,255.0,255.0,255.0
75,3.75,-4.5,3.0,-2.5294,7.193360789031153e-14,-9.039468713075622e-13,-1.0741389010199494,9.967413091020563e-13,-1.2525455267580983e-11,-0.055133182679686144,0,70,255.0,255.0,255.0
76,3.8000000000000003,-4.499999999999996,2.999999999999944,-2.5831730004316373,9.818752076204612e-14,-1.2338641811159894e-12,-1.0767238942913446,5.341520576732219e-14,-6.71237124756032e-13,-0.04826654817612233,0,70,255.0,255.0,255.0
77,3.85,-4.499999999999991,2.9999999999998863,-2.637066667233715,7.727512846704417e-14,-9.710705837831707e-13,-1.0789655558375615,-8.899108975674035e-13,1.1182981018068813e-11,-0.04139991367255859,0,70,255.0,255.0,255.0
78,3.9000000000000004,-4.4999999999999885,2.999999999999857,-2.691063833819974,9.196431005305304e-15,-1.1556607930910192e-13,-1.0808638856586006,-1.8332370009021377e-12,2.3037199160893764e-11,-0.03453327916899478,0,70,255.0,255.0,255.0
79,3.95,-4.499999999999991,2.999999999999885,-2.745147333604155,-1.0604857162316932e-13,1.3326493323062024e-12,-1.082418883754461,-2.7765631042368633e-12,3.489141730371861e-11,-0.027666644665431027,0,70,255.0,255.0,255.0
80,4.0,-4.5,3.0,-2.7993,-2.6845987941838007e-13,3.373575651062747e-12,-1.0836305501251435,-3.719889207571588e-12,4.674563544654345e-11,-0.02080001016187083,0,70,255.0,255.0,255.0
81,4.05,-4.500000000000016,3.0000000000002087,-2.853505466416169,-3.6644081615318003e-13,4.604843813564237e-12,-1.0845468844657917,-1.9934826182042323e-13,2.5050910535163524e-12,-0.01585336346406125,0,70,255.0,255.0,255.0
82,4.1000000000000005,-4.500000000000034,3.0000000000004237,-2.907750566240998,-2.883947056004194e-13,3.624084756414344e-12,-1.0852158864715495,3.321192683930804e-12,-4.1735453339511534e-11,-0.010906716766251582,0,70,255.0,255.0,255.0
83,4.15,-4.500000000000042,3.000000000000534,-2.9620229328577423,-3.432154776010091e-14,4.312984796131018e-13,-1.085637556142417,6.841733629681969e-12,-8.597599773253863e-11,-0.005960070068442002,0,70,255.0,255.0,255.0
84,4.2,-4.500000000000034,3.0000000000004294,-3.0163101996496584,3.9577865736777505e-13,-4.9735150168394876e-12,-1.0858118934783938,1.0362274575433135e-11,-1.3021654212556573e-10,-0.00101342337063242,0,70,255.0,255.0,255.0
85,4.25,-4.5,3.0,-3.0706,1.0019059097832087e-12,-1.2590355732943426e-11,-1.0857388984794802,1.3882815521184297e-11,-1.7445708651859284e-10,0.003933223327173607,0,70,255.0,255.0,255.0
86,4.3,-4.499999999999938,2.999999999999221,-3.1248787339036883,1.367575743850674e-12,-1.7185511073140962e-11,-1.0853445678454914,7.439778415143638e-13,-9.349127089309287e-12,0.011840002032380397,0,70,255.0,255.0,255.0
87,4.3500000000000005,-4.499999999999874,2.999999999998419,-3.179127867802295,1.076303693934634e-12,-1.3525268441874212e-11,-1.0845548982762423,-1.2394859838155802e-11,1.5575883233997721e-10,0.019746780737587327,0,70,255.0,255.0,255.0
88,4.4,-4.499999999999841,2.9999999999980065,-3.2333276347490587,1.2808976003509869e-13,-1.6096278391433044e-12,-1.0833698897717325,-2.5533697517825736e-11,3.2086679176926077e-10,0.02765355944279412,0,70,255.0,255.0,255.0
89,4.45,-4.499999999999871,2.9999999999983955,-3.287458267797214,-1.4770660578479306e-12,1.8561410735051754e-11,-1.0817895423319628,-3.867253519749567e-11,4.859747511985443e-10,0.03556033814800091,0,70,255.0,255.0,255.0
90,4.5,-4.5,3.0,-3.3415,-3.7391637597144545e-12,4.6987847280710955e-11,-1.0798138559569324,-5.18113728771656e-11,6.51082710627828e-10,0.04346711685321303,0,70,255.0,255.0,255.0
91,4.55,-4.500000000000231,3.0000000000029066,-3.3954339979690795,-5.1038621592495155e-12,6.413720047899961e-11,-1.077498844152238,-2.7765631042370314e-12,3.489141730372082e-11,0.04913335533456083,0,70,255.0,255.0,255.0
92,4.6000000000000005,-4.50000000000047,3.0000000000059006,-3.449245162549823,-4.0168200701381166e-12,5.047698901108252e-11,-1.0749005204234763,4.6258246668692406e-11,-5.812998760203973e-10,0.05479959381590872,0,70,255.0,255.0,255.0
93,4.65,-4.5000000000005915,3.0000000000074407,-3.5029193281460262,-4.780374923802941e-13,6.007212876960116e-12,-1.072018884770647,9.529305644162097e-11,-1.1974911693445047e-09,0.06046583229725652,0,70,255.0,255.0,255.0
94,4.7,-4.500000000000477,3.000000000005987,-3.556442329161486,5.5124855740239494e-12,-6.92721279233675e-11,-1.0688539371937507,1.4432786621454956e-10,-1.8136824626686117e-09,0.06613207077860432,0,70,255.0,255.0,255.0
95,4.75,-4.5,3.0,-3.6098,1.395474912907461e-11,-1.753610333899004e-10,-1.0654056776927865,1.933626759874781e-10,-2.4298737559927184e-09,0.0717983092599539,0,70,255.0,255.0,255.0
96,4.800000000000001,-4.499999999999137,2.999999999989153,-3.6629780742199944,1.9047872893147398e-11,-2.3936329084285756e-10,-1.0616680555455538,1.0362274575430505e-11,-1.302165421255327e-10,0.07770657662935188,0,70,255.0,255.0,255.0
97,4.8500000000000005,-4.499999999998248,2.99999999997798,-3.715961881998415,1.499097658661783e-11,-1.8838268760245578e-10,-1.0576350200298512,-1.7263812683661383e-10,2.1694406717416116e-09,0.08361484399874974,0,70,255.0,255.0,255.0
98,4.9,-4.49999999999779,2.999999999972231,-3.768736652666838,1.7840602094860722e-12,-2.2419223668697133e-11,-1.0533065711456788,-3.556385282486582e-10,4.469097885608756e-09,0.08952311136814761,0,70,255.0,255.0,255.0
99,4.95,-4.499999999998222,2.9999999999776543,-3.821287615556841,-2.0572876238247855e-11,2.5852710095841834e-10,-1.0486827088930366,-5.386389296607024e-10,6.768755099475902e-09,0.09543137873754548,0,70,255.0,255.0,255.0
100,5.0,-4.5,3.0,-3.8736,-5.207983275658398e-11,6.544562862788906e-10,-1.0437634332719246,-7.216393310727469e-10,9.068412313343045e-09,0.10133964610693802,0,70,255.0,255.0,255.0
101,5.050000000000001,-4.500000000003222,3.0000000000404823,-3.9256585051509463,-7.108762941334006e-11,8.933159628924305e-10,-1.0385169336655506,-3.8672535197486014e-11,4.859747511984205e-10,0.10852033814801178,0,70,255.0,255.0,255.0
102,5.1000000000000005,-4.50000000000654,3.000000000082179,-3.9774457094565214,-5.5947086276333225e-11,7.030537613987408e-10,-1.0329113994571233,6.442942606777629e-10,-8.096462810946048e-09,0.11570103018908541,0,70,255.0,255.0,255.0
103,5.15,-4.500000000008248,3.0000000001036358,-4.028943661186624,-6.658203345564016e-12,8.366968179782847e-11,-1.0269468306466423,1.3272610565530116e-09,-1.6678900373090522e-08,0.12288172223015903,0,70,255.0,255.0,255.0
104,5.2,-4.5000000000066365,3.0000000000833946,-4.080134408611151,7.67790193789675e-11,-9.648362759103054e-10,-1.0206232272341074,2.01022785242826e-09,-2.526133793523499e-08,0.13006241427123266,0,70,255.0,255.0,255.0
105,5.25,-4.5,3.0,-4.131,1.943645818972613e-10,-2.442464111725662e-09,-1.0139405892195192,2.6931946483035085e-09,-3.384377549737947e-08,0.13724310631230097,0,70,255.0,255.0,255.0
106,5.300000000000001,-4.499999999987978,2.9999999998489177,-4.181523105176225,2.6530264476021285e-10,-3.333900560726865e-09,-1.0069362097922463,1.4432786621451285e-10,-1.813682462668153e-09,0.14293207077861475,0,70,255.0,255.0,255.0
107,5.3500000000000005,-4.499999999975594,2.9999999996933018,-4.231688880175503,2.0879736851871496e-10,-2.623832357992507e-09,-0.9996473821416577,-2.4045389158744373e-09,3.021641057204259e-08,0.14862103524492845,0,70,255.0,255.0,255.0
108,5.4,-4.499999999969222,2.9999999996132263,-4.281483102586669,2.4848753172769926e-11,-3.1225950352261705e-10,-0.9920741062677534,-4.953405697963387e-09,6.224650360675332e-08,0.15430999971124212,0,70,255.0,255.0,255.0
109,5.45,-4.499999999975233,2.9999999996887676,-4.330891549998557,-2.8654320127762203e-10,3.600818002682805e-09,-0.9842163821705335,-7.502272480052338e-09,9.427659664146407e-08,0.15999896417755582,0,70,255.0,255.0,255.0
110,5.5,-4.5,3.0,-4.3799,-7.253784948324612e-10,9.115400160623757e-09,-0.9760742098499979,-1.0051139262141287e-08,1.2630668967617479e-07,0.16568792864386772,0,70,255.0,255.0,255.0
111,5.550000000000001,-4.500000000044869,3.0000000005638463,-4.4284938741441575,-9.901229496275113e-10,1.244228628001503e-08,-0.9676262271654628,-5.386389296605657e-10,6.768755099474183e-09,0.17223137873753425,0,70,255.0,255.0,255.0
112,5.6000000000000005,-4.500000000091085,3.0000000011446137,-4.476657169841469,-7.792423877985266e-10,9.792275670571287e-09,-0.9588510719762444,8.973861402819986e-09,-1.127691794772243e-07,0.17877482883120066,0,70,255.0,255.0,255.0
113,5.65,-4.500000000114866,3.0000000014434587,-4.524373528466703,-9.273680934551597e-11,1.1653683322926389e-09,-0.9497487442823428,1.8486361735300537e-08,-2.323071140539228e-07,0.18531827892486707,0,70,255.0,255.0,255.0
114,5.7,-4.500000000092433,3.0000000011615358,-4.571626591394624,1.0693937857315209e-09,-1.3438435734820908e-08,-0.9403192440837578,2.7998862067781092e-08,-3.5184504863062127e-07,0.1918617290185335,0,70,255.0,255.0,255.0
115,5.75,-4.5,3.0,-4.6184,2.7071493974325835e-09,-3.4019136530769366e-08,-0.9305625713804895,3.7511362400261634e-08,-4.713829832073197e-07,0.19840517911219813,0,70,255.0,255.0,255.0
116,5.800000000000001,-4.499999999832545,2.999999997895699,-4.664677398247153,3.6951891537498323e-09,-4.643524455933325e-08,-0.9204788815459036,2.0102278524277455e-09,-2.5261337935228594e-08,0.20494241427123372,0,70,255.0,255.0,255.0
117,5.8500000000000005,-4.499999999660066,2.9999999957282433,-4.710442440458625,2.908172182675391e-09,-3.6545270324292626e-08,-0.9100683299533661,-3.349090669540552e-08,4.2086030733685465e-07,0.2114796494302692,0,70,255.0,255.0,255.0
118,5.9,-4.499999999571313,2.9999999946129394,-4.755678783546522,3.460984842092927e-10,-4.349213825647946e-09,-0.8993309166028767,-6.899204124323878e-08,8.669819526089378e-07,0.21801688458930468,0,70,255.0,255.0,255.0
119,5.95,-4.4999999996550395,2.9999999956650902,-4.800370084422947,-3.991031941648462e-09,5.015292493660083e-08,-0.8882666414944356,-1.0449317579107204e-07,1.313103597881021e-06,0.22455411974834016,0,70,255.0,255.0,255.0
120,6.0,-4.5,3.0,-4.8445,-1.0103219094897872e-08,1.269611459624537e-07,-0.8768755046280426,-1.3999431033890523e-07,1.7592252431531038e-06,0.2310913549073783,0,70,255.0,255.0,255.0
121,6.050000000000001,-4.500000000624949,3.00000000785336,-4.888052532867239,-1.3790633665371817e-08,1.7329869195731795e-07,-0.8651782466509189,-7.502272480050408e-09,9.427659664143995e-08,0.23679896417756466,0,70,255.0,255.0,255.0
122,6.1000000000000005,-4.500000001268653,3.0000000159424114,-4.931013068324034,-1.0853446342903036e-08,1.3638880562659924e-07,-0.8531956082102862,1.2498976537880203e-07,-1.5706720498701942e-06,0.24250657344775087,0,70,255.0,255.0,255.0
123,6.15,-4.500000001599883,3.000000020104784,-4.973367337347209,-1.2916571274916562e-09,1.6231486970299082e-08,-0.840927589306144,2.574818032376545e-07,-3.2356206963818286e-06,0.2482141827179371,0,70,255.0,255.0,255.0
124,6.2,-4.500000001287409,3.0000000161781033,-5.01510107091359,1.489473398086232e-08,-1.8717326401158242e-07,-0.8283741899384924,3.8997384109650696e-07,-4.900569342893462e-06,0.25392179198812337,0,70,255.0,255.0,255.0
125,6.25,-4.5,3.0,-5.0562,3.77057269821589e-08,-4.738254473190454e-07,-0.8155354101073318,5.224658789553593e-07,-6.565517989405096e-06,0.2596294012583087,0,70,255.0,255.0,255.0
126,6.300000000000001,-4.4999999976676595,2.9999999706908604,-5.096649270283894,5.146734550773744e-08,-6.467595232699385e-07,-0.8023761318504111,2.7998862067773952e-08,-3.518450486305327e-07,0.26674172901851145,0,70,255.0,255.0,255.0
127,6.3500000000000005,-4.4999999952653225,2.9999999405021085,-5.136431686245241,4.050561318893676e-08,-5.090099521821044e-07,-0.7888612372054805,-4.6646815481980253e-07,5.8618278921439205e-06,0.2738540567787141,0,70,255.0,255.0,255.0
128,6.4,-4.499999994029154,2.999999924967926,-5.175529467064641,4.820530025757322e-09,-6.057673405554862e-08,-0.7749907261725397,-9.609351717073792e-07,1.2075500832918375e-05,0.28096638453891676,0,70,255.0,255.0,255.0
129,6.45,-4.499999995195323,2.9999999396224957,-5.213924831922694,-5.558790398180081e-08,6.985401311097286e-07,-0.7607645987515889,-1.455402188594956e-06,1.8289173773692824e-05,0.2880787122991194,0,70,255.0,255.0,255.0
130,6.5,-4.5,3.0,-5.2516,-1.4071968883373772e-07,1.768340643313728e-06,-0.746182854942628,-1.9498692054825315e-06,2.450284671446728e-05,0.2951910400593194,0,70,255.0,255.0,255.0
131,6.550000000000001,-4.500000008704414,3.0000001093831976,-5.2885375859971875,-1.9207874836557785e-07,2.4137394011224365e-06,-0.7312692259474365,-1.0449317579104548e-07,1.3131035978806902e-06,0.30135411974833304,0,70,255.0,255.0,255.0
132,6.6000000000000005,-4.500000017670061,3.000000222049154,-5.324721786695003,-1.5116900641284395e-07,1.8996510031018185e-06,-0.7160474429677947,1.740882853900408e-06,-2.1876639518705487e-05,0.3075171994373465,0,70,255.0,255.0,255.0
133,6.65,-4.500000022283502,3.0000002800235124,-5.360137194394226,-1.799046297553769e-08,2.2607544925189535e-07,-0.700517506003702,3.5862588835918616e-06,-4.506638263529167e-05,0.31368027912636004,0,70,255.0,255.0,255.0
134,6.7,-4.500000017931295,3.000000225331913,-5.394768401395632,2.0745688194634088e-07,-2.606987260427332e-06,-0.6846794150551586,5.4316349132833144e-06,-6.825612575187784e-05,0.3198433588153735,0,70,255.0,255.0,255.0
135,6.75,-4.5,3.0,-5.4286,5.251730283527919e-07,-6.599537125935866e-06,-0.6685331701221648,7.277010942974768e-06,-9.144586886846402e-05,0.32600643850438615,0,70,255.0,255.0,255.0
136,6.800000000000001,-4.499999967514684,2.999999591776349,-5.46161718572736,7.168476479545742e-07,-9.008198081219806e-06,-0.6521149643598512,3.8997384109640754e-07,-4.900569342892205e-06,0.3307217919881489,0,70,255.0,255.0,255.0
137,6.8500000000000005,-4.499999934054433,2.999999171301275,-5.493807566974749,5.64170412462439e-07,-7.089594060225167e-06,-0.6354609909233497,-6.497063260781831e-06,8.164473018267807e-05,0.3354371454719115,0,70,255.0,255.0,255.0
138,6.9,-4.499999916836839,2.9999989549380257,-5.525159355358459,6.714132187639326e-08,-8.437250629520292e-07,-0.6185712498126602,-1.338410036266007e-05,0.00016819002970824834,0.3401524989556741,0,70,255.0,255.0,255.0
139,6.95,-4.499999933079498,2.9999991590498514,-5.555660762494778,-7.742396238035632e-07,9.729408910599606e-06,-0.6014457410277825,-2.0271137464538307e-05,0.00025473532923381856,0.34486785243943674,0,70,255.0,255.0,255.0
140,7.0,-4.5,3.0,-5.5853,-1.9599724245774298e-06,2.4629807860429737e-05,-0.5840844645687168,-2.7158174566416545e-05,0.00034128062875938875,0.3495832059231967,0,70,255.0,255.0,255.0
141,7.050000000000001,-4.500000121236852,3.000001523511406,-5.614061671093377,-2.6753118434527183e-06,3.3619052923756785e-05,-0.5662709166131584,-1.4554021885945879e-06,1.8289173773688202e-05,0.3629587122991307,0,70,255.0,255.0,255.0
142,7.1000000000000005,-4.500000246112207,3.000003092745746,-5.641915945406004,-2.1055126434369125e-06,2.6458725237798855e-05,-0.5477885933388035,2.424737018922691e-05,-0.0003047022812120067,0.37633421867506445,0,70,255.0,255.0,255.0
143,7.15,-4.500000310369138,3.0000039002243843,-5.668829384171943,-2.5057482453003587e-07,3.148824802556228e-06,-0.528637494745652,4.9950142567048405e-05,-0.0006276937361977015,0.3897097250509982,0,70,255.0,255.0,255.0
144,7.2,-4.5000002497507126,3.000003138468681,-5.694768548625255,2.8895016132679104e-06,-3.6310648381971075e-05,-0.5088176208337039,7.565291494486992e-05,-0.0009506851911833963,0.403085231426932,0,70,255.0,255.0,255.0
145,7.25,-4.5,3.0,-5.7197,7.314716669956928e-06,-9.191969431578308e-05,-0.4883289716029589,0.00010135568732269138,-0.0012736766461690914,0.4164607378028662,0,70,255.0,255.0,255.0
146,7.300000000000001,-4.499999547537912,2.9999943141780268,-5.7435929298991395,9.984399725856298e-06,-0.00012546801361380735,-0.46732936918750356,5.431634913281925e-06,-6.825612575186058e-05,0.42352335881533615,0,70,255.0,255.0,255.0
147,7.3500000000000005,-4.499999081496737,2.999988457715739,-5.76642705140124,7.857880161285207e-06,-9.874530689097025e-05,-0.4459766357214251,-9.049241749612582e-05,0.0011371643946653485,0.43058597982780605,0,70,255.0,255.0,255.0
148,7.4,-4.499998841686606,2.999985444164438,-5.788184707953771,9.351579762437507e-07,-1.1751574147272914e-05,-0.42427077120472306,-0.00018641646990553358,0.002342584915082558,0.4376486008402759,0,70,255.0,255.0,255.0
149,7.45,-4.499999067917651,2.9999882870754244,-5.808848243004202,-1.0783766829268082e-05,0.0001355131846172847,-0.40221177563739763,-0.00028234052231494125,0.0035480054354997677,0.44471122185274575,0,70,255.0,255.0,255.0
150,7.5,-4.5,3.0,-5.8284,-2.729889425525028e-05,0.0003430489694027026,-0.3797996490194487,-0.00037826457472434907,0.004753425955916976,0.4517738428652156,0,70,255.0,255.0,255.0
151,7.550000000000001,-4.5000016886114995,3.000022019776487,-5.846833009310068,-3.7262287059972476e-05,0.0005162530015315753,-0.35767560663683173,-2.027113746453323e-05,0.002174735329237833,0.4331878524394506,0,70,255.0,255.0,255.0
152,7.6000000000000005,-4.500003427900841,3.000049476391298,-5.864183048989038,-2.932600800170393e-05,0.0005605225023264894,-0.3364808637755034,0.0003377222997952763,-0.00040395529744126444,0.414601862013686,0,70,255.0,255.0,255.0
153,7.65,-4.500004322884434,3.000075923117864,-5.880496584012974,-3.4900570804449667e-06,0.00047585747178744895,-0.31621542043546325,0.0006957157370550859,-0.0029826459241203626,0.3960158715879213,0,70,255.0,255.0,255.0
154,7.7,-4.5000034785786855,3.0000949132296206,-5.895820079357939,4.024556570380439e-05,0.00026225790991445423,-0.2968792766167114,0.0010537091743148953,-0.00556133655079946,0.37742988116215664,0,70,255.0,255.0,255.0
155,7.75,-4.5,3.0001,-5.9102,0.00010188086035104419,-8.027618329249486e-05,-0.27847243231924773,0.0014117026115747044,-0.008140027177478555,0.358843890736392,0,70,255.0,255.0,255.0
156,7.800000000000001,-4.499993698016091,3.000086406716025,-5.9236798328605875,0.00013906474851403357,-0.00045154399250935226,-0.26081620426516416,7.565291494485062e-05,-0.00671068519119553,0.34740523142694263,0,70,255.0,255.0,255.0
157,7.8500000000000005,-4.499987206899896,3.000056036719071,-5.936291152642607,0.00010944615184553048,-0.0007513447024120528,-0.24373190917655327,-0.0012603967816849793,-0.00528134320491253,0.3359665721174934,0,70,255.0,255.0,255.0
158,7.9,-4.499983866775654,3.0000124633641057,-5.948062555994334,1.3025070345536096e-05,-0.0009796783130006036,-0.22721954705341488,-0.0025964464783148097,-0.0038520012186295293,0.3245279128080442,0,70,255.0,255.0,255.0
159,7.95,-4.499987017767609,2.999959260006093,-5.95902263956404,-0.00015019849598594956,-0.0011365448242750043,-0.211279117895749,-0.003932496174944639,-0.00242265923234653,0.31308925349859507,0,70,255.0,255.0,255.0
160,8.0,-4.5,2.9999,-5.9692,-0.00038022454714892645,-0.0012219442362352555,-0.1959106217035555,-0.00526854587157447,-0.0009933172460635225,0.30165059418914497,0,70,255.0,255.0,255.0
161,8.05,-4.500025119324135,2.999837153359415,-5.978624459247581,-0.0006149967069963673,-0.0013020770314992284,-0.18118757630250867,-0.004122340522323029,-0.0022119945644953542,0.28727122185271986,0,70,255.0,255.0,255.0
162,8.1,-4.500060544499575,2.999768776732418,-5.98733074044053,-0.00079245859938123,-0.001443143692684788,-0.16718349951828357,-0.0029761351730716278,-0.003430671882927142,0.27289184951629525,0,70,255.0,255.0,255.0
163,8.15,-4.500103410012949,2.999691823425714,-5.99535479200969,-0.000912610224303527,-0.0016451442197919436,-0.15389839135087927,-0.0018299298238201867,-0.0046493492013589734,0.25851247717987014,0,70,255.0,255.0,255.0
164,8.200000000000001,-4.500150850350881,2.9996032467460068,-6.0027325623859,-0.0009754515817632511,-0.0019080786128206919,-0.1413322518002962,-0.0006837244745687447,-0.005868026519790805,0.24413310484344505,0,70,255.0,255.0,255.0
165,8.25,-4.5002,2.9995,-6.0095,-0.0009809826717604032,-0.00223194687177102,-0.12948508086653485,0.0004624808746826487,-0.007086703838222592,0.2297537325070207,0,70,255.0,255.0,255.0
166,8.3,-4.50024902468737,2.999379379846317,-6.015692730149087,-0.000991077920534927,-0.002596147881496251,-0.1183374905248048,-0.0008662908256635998,-0.007481336550786455,0.21614988116217468,0,70,255.0,255.0,255.0
167,8.35,-4.500300215101804,2.9992400563512565,-6.021345085595268,-0.0010676117543267606,-0.002980080526849662,-0.10787009275031743,-0.0021950625260098015,-0.007875969263350305,0.20254602981732917,0,70,255.0,255.0,255.0
168,8.4,-4.500356893172553,2.999081042933038,-6.026491075966906,-0.0012105841731359088,-0.0033837448078312795,-0.09808288754307197,-0.0035238342263560502,-0.00827060197591417,0.18894217847248318,0,70,255.0,255.0,255.0
169,8.450000000000001,-4.500422380828868,2.9989013530098796,-6.031164710892362,-0.0014199951769623704,-0.003807140724441091,-0.08897587490306885,-0.0048526059267022985,-0.008665234688478032,0.17533832712763717,0,70,255.0,255.0,255.0
170,8.5,-4.5005,2.9987,-6.0354,-0.0016958447658061346,-0.00425026827667908,-0.0805490548303083,-0.0061813776270485,-0.009059867401041873,0.1617344757827912,0,70,255.0,255.0,255.0
171,8.55,-4.500592381926386,2.998475727255318,-6.039230220156072,-0.0019966916108562814,-0.004729331442513988,-0.07275846159827343,-0.005852496174957207,-0.010102659232354221,0.14988925349859952,0,70,255.0,255.0,255.0
172,8.6,-4.500699395093208,2.998226197862556,-6.042685717178398,-0.002281094383301854,-0.005260534199914496,-0.06556012948044837,-0.005523614722865926,-0.011145451063666533,0.13804403121440825,0,70,255.0,255.0,255.0
173,8.65,-4.500820217296839,2.997948804842134,-6.0457961041226875,-0.0025490530831428714,-0.00584387654888064,-0.05895405847683267,-0.005194733270774633,-0.012188242894978883,0.12619880893021657,0,70,255.0,255.0,255.0
174,8.700000000000001,-4.500954026333646,2.9976409412144744,-6.048590994044651,-0.0028005677103793247,-0.006479358489412401,-0.05294024858742655,-0.00486585181868334,-0.013231034726291231,0.11435358664602491,0,70,255.0,255.0,255.0
175,8.75,-4.5011,2.9973,-6.0511,-0.003035638265011204,-0.007166980021509756,-0.047518699812230204,-0.004536970366592057,-0.014273826557603508,0.10250836436183358,0,70,255.0,255.0,255.0
176,8.8,-4.501257447607086,2.99692411113241,-6.053354389226626,-0.003262155636040431,-0.007862526348444815,-0.042788663082098374,-0.004523724474576876,-0.01354802651979844,0.08669310484343695,0,70,255.0,255.0,255.0
177,8.85,-4.50142620452536,2.9965143521985205,-6.055392045691142,-0.0034880107124688905,-0.008521782673489598,-0.038849389327886515,-0.004510478582561696,-0.012822226481993397,0.0708778453250409,0,70,255.0,255.0,255.0
178,8.9,-4.5016062376400905,2.9960725376984256,-6.057252507542346,-0.0037132034942965984,-0.009144748996644147,-0.035700878549594334,-0.004497232690546515,-0.01209642644418833,0.05506258580664428,0,70,255.0,255.0,255.0
179,8.950000000000001,-4.501797513836547,2.995600482132221,-6.058975312929033,-0.003937733981523548,-0.009731425317908448,-0.033343130747222005,-0.0044839867985313345,-0.011370626406383262,0.03924732628824766,0,70,255.0,255.0,255.0
180,9.0,-4.502,2.9951,-6.0606,-0.004161602174149731,-0.010281811637282472,-0.031776145920769557,-0.004470740906516148,-0.01064482636857822,0.0234320667698516,0,70,255.0,255.0,255.0
181,9.05,-4.502213827645266,2.9945718282150415,-6.062164222937427,-0.004394685844979767,-0.010860563163708663,-0.030886886073332197,-0.00485260592668522,-0.012505234688469107,0.012138327127642318,0,70,255.0,255.0,255.0
182,9.1,-4.502439786805348,2.9940123933433624,-6.063698100057034,-0.00464686276681825,-0.011532335106129376,-0.030562313208005308,-0.005234470946854279,-0.014365643008359928,0.0008445874854334373,0,70,255.0,255.0,255.0
183,9.15,-4.502678832142798,2.993417044364162,-6.06522986570793,-0.004918132939665195,-0.012297127464544654,-0.030802427324788873,-0.005616335967023352,-0.016226051328250814,-0.010449152156775846,0,70,255.0,255.0,255.0
184,9.200000000000001,-4.502931918320164,2.992781130256641,-6.066787754239216,-0.005208496363520594,-0.013154940238954478,-0.03160722842368291,-0.005998200987192424,-0.018086459648141703,-0.02174289179898513,0,70,255.0,255.0,255.0
185,9.25,-4.5032,2.9921,-6.0684,-0.0055179530383844344,-0.014105773429358814,-0.03297671650468736,-0.006380066007361483,-0.019946867968032467,-0.03303663144119401,0,70,255.0,255.0,255.0
186,9.3,-4.503484041811849,2.9913701760074227,-6.070095919023666,-0.0058471009840363,-0.01507922099671701,-0.03497579262456702,-0.0067858518187129836,-0.018991034726294785,-0.04692641335399145,0,70,255.0,255.0,255.0
187,9.35,-4.503785048253246,2.99059287442803,-6.071909154080717,-0.006196538220255729,-0.016004876901988287,-0.03766935784008646,-0.007191637630064469,-0.018035201484557135,-0.060816195266788386,0,70,255.0,255.0,255.0
188,9.4,-4.504104033788718,2.9897704848449256,-6.073874429625935,-0.006566264747042746,-0.016882741145172714,-0.041057412151245865,-0.00759742344141597,-0.017079368242819453,-0.07470597717958583,0,70,255.0,255.0,255.0
189,9.450000000000001,-4.5044420128827936,2.9889053968412145,-6.076026470114103,-0.0069562805643973375,-0.017712813726270257,-0.045139955558045154,-0.008003209252767469,-0.016123535001081768,-0.08859575909238326,0,70,255.0,255.0,255.0
190,9.5,-4.5048,2.988,-6.0784,-0.007366585672319488,-0.01849509464528089,-0.049916988060484134,-0.008408995064118949,-0.015167701759344149,-0.1024855410051802,0,70,255.0,255.0,255.0
191,9.55,-4.505178805107336,2.9870554677552668,-6.081030500967908,-0.007784910218885101,-0.019302552849424177,-0.0554339434284073,-0.00832398679850533,-0.01713062640638694,-0.11819267371174341,0,70,255.0,255.0,255.0
192,9.600000000000001,-4.505578420181668,2.986068108944518,-6.083956483620096,-0.008198984352170032,-0.020208157285919612,-0.06173625543165864,-0.008238978532891711,-0.01909355105342973,-0.13389980641830662,0,70,255.0,255.0,255.0
193,9.65,-4.505998632702331,2.985033016256136,-6.087217215788331,-0.008608808072174269,-0.021211907954767142,-0.0688239240702379,-0.008153970267278095,-0.021056475700472452,-0.14960693912486928,0,70,255.0,255.0,255.0
194,9.700000000000001,-4.506439230148664,2.9839452823785027,-6.090851965304376,-0.00901438137889784,-0.02231380485596685,-0.07669694934414555,-0.008068962001664477,-0.02301940034751524,-0.16531407183143249,0,70,255.0,255.0,255.0
195,9.75,-4.5069,2.9828,-6.0949,-0.009415704272340716,-0.023513847989518655,-0.08535533125338104,-0.007983953736050875,-0.024982324994557964,-0.18102120453799486,0,70,255.0,255.0,255.0
196,9.8,-4.507380737758808,2.9815935529715087,-6.0993956771047,-0.009813258140421692,-0.024734567605586042,-0.09450443366180511,-0.00791820098718794,-0.023846459648136722,-0.18494289179896262,0,70,255.0,255.0,255.0
197,9.850000000000001,-4.507881271020085,2.980327489793897,-6.104353711438898,-0.01020752437105952,-0.02589849395433236,-0.10384962043327757,-0.007852448238325004,-0.022710594301715476,-0.1888645790599304,0,70,255.0,255.0,255.0
198,9.9,-4.508401435401957,2.979004650130531,-6.109783907220745,-0.01059850296425419,-0.02700562703575758,-0.11339089156779808,-0.0077866954894620696,-0.021574728955294272,-0.19278626632089801,0,70,255.0,255.0,255.0
199,9.950000000000001,-4.508941066522552,2.9776278736447765,-6.115696068668395,-0.010986193920005726,-0.02805596684986178,-0.1231282470653673,-0.007720942740599134,-0.02043886360887303,-0.1967079535818658,0,70,255.0,255.0,255.0
200,10.0,-4.5095,2.9762,-6.1221,-0.0113705972383141,-0.029049513396644883,-0.13306168692598458,-0.0076551899917362,-0.019302998262451687,-0.20062964084283275,0,70,255.0,255.0,255.0
201,10.05,-4.51007824385743,2.974723920358698,-6.128991590613291,-0.011762057219427125,-0.02998317672823333,-0.14235632192436581,-0.00800320925278451,-0.01804353500108578,-0.1711557590924116,0,70,255.0,255.0,255.0
202,10.100000000000001,-4.510676495737994,2.9732027318798946,-6.136311070624311,-0.012170918163592562,-0.030853866896753488,-0.150177262835226,-0.008351228513832819,-0.016784071739719873,-0.14168187734199048,0,70,255.0,255.0,255.0
203,10.15,-4.511295625689841,2.971639583221741,-6.143984755328687,-0.012597180070810402,-0.03166158390220532,-0.15652450965856488,-0.008699247774881116,-0.01552460847835401,-0.1122079955915704,0,70,255.0,255.0,255.0
204,10.200000000000001,-4.511936503761126,2.970037623042392,-6.151938960022042,-0.013040842941080672,-0.03240632774458888,-0.16139806239438292,-0.009047267035929426,-0.014265145216988101,-0.08273411384114926,0,70,255.0,255.0,255.0
205,10.25,-4.5126,2.9684,-6.1601,-0.013501906774403341,-0.03308809842390412,-0.16479792104267982,-0.009395286296977723,-0.013005681955621962,-0.05326023209072828,0,70,255.0,255.0,255.0
206,10.3,-4.513286286811468,2.966729165593697,-6.16840916044214,-0.013938512981869402,-0.03374872548148227,-0.16762227864073362,-0.008068962001664473,-0.01341940034750339,-0.05971407183142219,0,70,255.0,255.0,255.0
207,10.350000000000001,-4.513992746027942,2.9650247826865246,-6.176867606063857,-0.0143088029745698,-0.03443003845865448,-0.17076932822582214,-0.006742637706351225,-0.013833118739384821,-0.0661679115721161,0,70,255.0,255.0,255.0
208,10.4,-4.514716061838679,2.9632858169825047,-6.1854914714645055,-0.014612776752504525,-0.03513203735542074,-0.1742390697979452,-0.005416313411038022,-0.014246837131266236,-0.07262175131280979,0,70,255.0,255.0,255.0
209,10.450000000000001,-4.5154529184329455,2.961511234185657,-6.194296891243435,-0.0148504343156736,-0.0358547221717811,-0.17803150335710308,-0.004089989115724773,-0.014660555523147665,-0.0790755910535037,0,70,255.0,255.0,255.0
210,10.5,-4.5162,2.9597,-6.2033,-0.015021775664077005,-0.036598092907735504,-0.1821466289032955,-0.002763664820411557,-0.01507427391502908,-0.08552943079419628,0,70,255.0,255.0,255.0
211,10.55,-4.516955008896697,2.9578514172665136,-6.212513367618151,-0.015187890853102072,-0.037341921345833404,-0.1863705635126973,-0.003880942740591033,-0.014678863608886488,-0.08342795358187348,0,70,255.0,255.0,255.0
212,10.600000000000001,-4.517719720150244,2.9559661373740047,-6.221935305120259,-0.015409869938136112,-0.03806597926862417,-0.19048942426148296,-0.004998220660770509,-0.014283453302743897,-0.08132647636955069,0,70,255.0,255.0,255.0
213,10.65,-4.518496926955443,2.9540451488482398,-6.23156055881329,-0.015687712919179118,-0.038770266676107785,-0.19450321114965236,-0.006115498580949946,-0.013888042996601322,-0.07922499915722797,0,70,255.0,255.0,255.0
214,10.700000000000001,-4.519289422507096,2.952089440214983,-6.241383875004215,-0.016021419796231107,-0.0394547835682843,-0.19841192417720574,-0.007232776501129422,-0.013492632690458731,-0.07712352194490517,0,70,255.0,255.0,255.0
215,10.75,-4.5201,2.9501,-6.2514,-0.016410990569292058,-0.04011952994515366,-0.20221556334414284,-0.008350054421308872,-0.013097222384316043,-0.07502204473258245,0,70,255.0,255.0,255.0
216,10.8,-4.520930477601747,2.948077165340248,-6.261604569085251,-0.016797923605722707,-0.040803589135186266,-0.20596746730848578,-0.007127267035916823,-0.01426514521698799,-0.07505411384113354,0,70,255.0,255.0,255.0
217,10.850000000000001,-4.521778773371084,2.946018667817454,-6.271996773455106,-0.01712371727288375,-0.04154604446685248,-0.20972097472825632,-0.005904479650524773,-0.015433068049659937,-0.07508618294968464,0,70,255.0,255.0,255.0
218,10.9,-4.522641830339548,2.9439215876245357,-6.282576693282334,-0.017388371570775184,-0.04234689594015226,-0.2134760856034542,-0.004681692265132767,-0.016600990882331843,-0.07511825205823572,0,70,255.0,255.0,255.0
219,10.950000000000001,-4.523516591538675,2.9417830049544116,-6.293344408739708,-0.017591886499397025,-0.04320614355508565,-0.21723279993407987,-0.0034589048797407165,-0.01776891371500379,-0.07515032116678681,0,70,255.0,255.0,255.0
220,11.0,-4.5244,2.9396,-6.3043,-0.01773426205874926,-0.044123787311652625,-0.22099111772013288,-0.002236117494348794,-0.018936836547675806,-0.07518239027533746,0,70,255.0,255.0,255.0
221,11.05,-4.525290280696313,2.937371121372493,-6.315443556040841,-0.017892414724001528,-0.0450117221134229,-0.22475156725335416,-0.0040899891157418974,-0.01658055552313469,-0.07523559105351177,0,70,255.0,255.0,255.0
222,11.100000000000001,-4.526190786365418,2.935100791356178,-6.326775201059317,-0.01814326097032346,-0.04578184286396612,-0.22851467682548415,-0.005943860737135001,-0.01422427449859357,-0.07528879183168606,0,70,255.0,255.0,255.0
223,11.15,-4.527106151686365,2.932794900653617,-6.338295068057372,-0.018486800797715024,-0.046434149563282255,-0.23228044643652276,-0.007797732358528039,-0.011867993474052534,-0.07534199260986037,0,70,255.0,255.0,255.0
224,11.200000000000001,-4.528041011338208,2.9304593399673706,-6.350003290036951,-0.01892303420617626,-0.04696864221137136,-0.23604887608647018,-0.009651603979921142,-0.009511712449511416,-0.07539519338803466,0,70,255.0,255.0,255.0
225,11.25,-4.529,2.9281,-6.3619,-0.019451961195707135,-0.047385320808233405,-0.23981996577532622,-0.011505475601314152,-0.007155431424970549,-0.07544839416620874,0,70,255.0,255.0,255.0
226,11.3,-4.529985999612996,2.92572074916978,-6.3739852067513825,-0.019968417498268116,-0.04780552241111937,-0.24358626367810424,-0.00915277650112486,-0.009652632690467691,-0.07520352194490955,0,70,255.0,255.0,255.0
227,11.350000000000001,-4.530994881167244,2.9233173667578334,-6.386258422307627,-0.020367238845819636,-0.048350584077280184,-0.24734031796981729,-0.006800077400935567,-0.012149833955964834,-0.07495864972361037,0,70,255.0,255.0,255.0
228,11.4,-4.5320207629149944,2.9208836097609976,-6.39871903448818,-0.020648425238361676,-0.04902050580671584,-0.2510821286504652,-0.004447378300746358,-0.014647035221461886,-0.07471377750231119,0,70,255.0,255.0,255.0
229,11.450000000000001,-4.533057763108496,2.9184132351761076,-6.411366431112488,-0.020811976675894267,-0.049815287599426376,-0.25481169572004836,-0.0020946792005570643,-0.01714423648695903,-0.074468905281012,0,70,255.0,255.0,255.0
230,11.5,-4.5341,2.9159,-6.4242,-0.020857893158417386,-0.050734929455411734,-0.2585290191785664,0.00025801989963208927,-0.019641437752455748,-0.07422403305971326,0,70,255.0,255.0,255.0
231,11.55,-4.535143320851704,2.913339481948388,-6.437218816953631,-0.020889915282920217,-0.051670188242098444,-0.2622153780342287,-0.0015389048797453209,-0.017768913715012144,-0.07323032116677426,0,70,255.0,255.0,255.0
232,11.600000000000001,-4.536190488965608,2.9107345416124883,-6.450420709710179,-0.02101178364639192,-0.052511820826912976,-0.265852051295244,-0.003335829659122731,-0.015896389677568536,-0.07223660927383528,0,70,255.0,255.0,255.0
233,11.65,-4.537245996653659,2.9080898603023946,-6.463803193989912,-0.021223498248832483,-0.053259827209855296,-0.26943903896161214,-0.005132754438500077,-0.014023865640124998,-0.07124289738089633,0,70,255.0,255.0,255.0
234,11.700000000000001,-4.538314336227807,2.9054101193282005,-6.477363785513096,-0.021525059090241928,-0.053914207390925464,-0.2729763410333335,-0.006929679217877487,-0.01215134160268139,-0.07024918548795733,0,70,255.0,255.0,255.0
235,11.75,-4.5394,2.9027,-6.4911,-0.021916466170620232,-0.05447496137012343,-0.2764639575104079,-0.008726603997254972,-0.010278817565237797,-0.06925547359501794,0,70,255.0,255.0,255.0
236,11.8,-4.540506316980186,2.8999629230366684,-6.505009925434095,-0.022327921370049752,-0.05501772462049185,-0.2799362241849846,-0.0077316039799255965,-0.01143171244949866,-0.0696351933880476,0,70,255.0,255.0,255.0
237,11.850000000000001,-4.541631962970324,2.8971972667922135,-6.51909393885166,-0.022689626568612804,-0.05561813261507331,-0.28342747684921277,-0.0067366039625962205,-0.012584607333759523,-0.07001491318107728,0,70,255.0,255.0,255.0
238,11.9,-4.542774450470366,2.8944001490294244,-6.533352989552177,-0.023001581766309374,-0.056276185353867796,-0.28693771550309227,-0.00574160394526688,-0.013737502218020345,-0.07039463297410693,0,70,255.0,255.0,255.0
239,11.950000000000001,-4.543931291980273,2.89156868751109,-6.54778802683513,-0.023263786963139486,-0.05699188283687534,-0.29046694014662344,-0.004746603927937505,-0.014890397102281207,-0.0707743527671366,0,70,255.0,255.0,255.0
240,12.0,-4.5451,2.8887,-6.5624,-0.023476242159103124,-0.057765225064095906,-0.2940151507798059,-0.0037516039106081644,-0.016043291986541586,-0.07115407256016404,0,70,255.0,255.0,255.0
241,12.05,-4.546278611227547,2.8857920259049368,-6.577189481309992,-0.023670399236882148,-0.05854691327593332,-0.29755972522583474,-0.004014679200552638,-0.01522423648695461,-0.07062890528098648,0,70,255.0,255.0,255.0
242,12.100000000000001,-4.547467259153096,2.882845991218656,-6.592155534883185,-0.023877710079158395,-0.059287648712791394,-0.3010780413079046,-0.004277754490497112,-0.014405180987367637,-0.07010373800180893,0,70,255.0,255.0,255.0
243,12.15,-4.548666601464871,2.879863943579907,-6.607296847801383,-0.024098174685931856,-0.05998743137467009,-0.30457009902601556,-0.004540829780441576,-0.013586125487780692,-0.06957857072263138,0,70,255.0,255.0,255.0
244,12.200000000000001,-4.549877295851098,2.876847930627439,-6.622612107146387,-0.02433179305720255,-0.060646261261569454,-0.30803589838016776,-0.00480390507038605,-0.012767069988193719,-0.06905340344345381,0,70,255.0,255.0,255.0
245,12.25,-4.5511,2.8738,-6.6381,-0.02457856519297046,-0.06126413837348944,-0.311475439370361,-0.005066980360330514,-0.011948014488606495,-0.06852823616427584,0,70,255.0,255.0,255.0
246,12.3,-4.552335238109624,2.870721773343584,-6.6537593493259415,-0.024830481682425777,-0.061866622275772075,-0.3148968749116674,-0.005009679217881995,-0.012151341602698443,-0.06832918548797896,0,70,255.0,255.0,255.0
247,12.350000000000001,-4.55358300041729,2.867613168333161,-6.669589521615603,-0.025079533114758665,-0.0624792725337593,-0.318308357919159,-0.004952378075433477,-0.01235466871679039,-0.0681301348116821,0,70,255.0,255.0,255.0
248,12.4,-4.554843143670147,2.864473676650946,-6.6855900192422935,-0.025325719489969124,-0.06310208914745111,-0.32170988839283554,-0.004895076932984959,-0.01255799583088233,-0.06793108413538525,0,70,255.0,255.0,255.0
249,12.450000000000001,-4.556115524615334,2.8613027899791543,-6.701760344579323,-0.02556904080805716,-0.06373507211684754,-0.3251014663326975,-0.00483777579053644,-0.012761322944974278,-0.06773203345908838,0,70,255.0,255.0,255.0
250,12.5,-4.5574,2.8581,-6.7181,-0.025809497069022764,-0.06437822144194853,-0.32848309173874446,-0.0047804746480879234,-0.012964650059065996,-0.06753298278279196,0,70,255.0,255.0,255.0
251,12.55,-4.558696436333961,2.8548648807207275,-6.734608321386243,-0.026047674033422976,-0.0650265976209819,-0.33184477512749294,-0.0047466039279204725,-0.012970397102268393,-0.06693435276714438,0,70,255.0,255.0,255.0
252,12.600000000000001,-4.560004739177743,2.8515973354486985,-6.751283978654403,-0.026284157461814818,-0.0656752611521754,-0.335176527015459,-0.004712733207753022,-0.012976144145470792,-0.0663357227514968,0,70,255.0,255.0,255.0
253,12.65,-4.561324823854543,2.848297349816307,-6.768125475229442,-0.026518947354198276,-0.06632421203552898,-0.33847834740264254,-0.004678862487585572,-0.012981891188673189,-0.06573709273584924,0,70,255.0,255.0,255.0
254,12.700000000000001,-4.562656605687563,2.844964909455943,-6.78513131453632,-0.026752043710573374,-0.0669734502710427,-0.3417502362890439,-0.0046449917674181215,-0.012987638231875587,-0.06513846272020166,0,70,255.0,255.0,255.0
255,12.75,-4.564,2.8416,-6.8023,-0.026983446530940088,-0.06762297585871652,-0.34499219367466266,-0.00461112104725056,-0.01299338527507743,-0.06453983270455277,0,70,255.0,255.0,255.0
256,12.8,-4.565355016554532,2.8382027037735065,-6.8196305651290885,-0.027218822183881004,-0.0682669872402983,-0.3482360245783626,-0.004803905070386002,-0.012767069988193477,-0.06521340344344546,0,70,255.0,255.0,255.0
257,12.850000000000001,-4.566722042871741,2.8347734898720427,-6.837124163766785,-0.027463837037978694,-0.06889968285753588,-0.3515135340190073,-0.004996689093521444,-0.012540754701309526,-0.06588697418233817,0,70,255.0,255.0,255.0
258,12.9,-4.568101560911683,2.831312924083825,-6.854782479839938,-0.027718491093233148,-0.06952106271042924,-0.3548247219965964,-0.00518947311665688,-0.01231443941442558,-0.06656054492123085,0,70,255.0,255.0,255.0
259,12.950000000000001,-4.569494052634417,2.827821572197072,-6.872607197275394,-0.02798278434964438,-0.07013112679897844,-0.3581695885111304,-0.005382257139792322,-0.012088124127541629,-0.06723411566012355,0,70,255.0,255.0,255.0
260,13.0,-4.5709,2.8243,-6.8906,-0.028256716807212378,-0.0707298751231834,-0.3615481335626088,-0.005575041162927757,-0.011861808840657906,-0.06790768639901712,0,70,255.0,255.0,255.0
261,13.05,-4.572319497447909,2.8207483041852464,-6.908761418097405,-0.02851703723104941,-0.07134545341782443,-0.3648911265590612,-0.004837775790553506,-0.012761322944982924,-0.06581203345907684,0,70,255.0,255.0,255.0
262,13.100000000000001,-4.573751089335294,2.8171647050631305,-6.927087366278457,-0.028740494386267735,-0.0720060074176817,-0.36812933690851657,-0.004100510418179255,-0.013660837049307942,-0.06371638051913656,0,70,255.0,255.0,255.0
263,13.15,-4.575192932498726,2.8135469538483915,-6.945572605410806,-0.028927088272867336,-0.07271153712275522,-0.3712627646109748,-0.0033632450458050303,-0.014560351153632928,-0.06162072757919635,0,70,255.0,255.0,255.0
264,13.200000000000001,-4.576643183774771,2.8098928017557685,-6.964211896362104,-0.029076818890848236,-0.073462042533045,-0.37429140966643615,-0.002625979673430779,-0.015459865257957946,-0.05952507463925607,0,70,255.0,255.0,255.0
265,13.25,-4.5781,2.8062,-6.983,-0.029189686240210413,-0.07425752364855101,-0.3772152720749004,-0.0018887143010564156,-0.016359379362283155,-0.057429421699315863,0,70,255.0,255.0,255.0
266,13.3,-4.579562193653832,2.8024672794855072,-7.001933362481295,-0.029305028891921964,-0.07503919908840488,-0.3801354691853887,-0.002724991767405472,-0.014907638231870846,-0.059378462720214145,0,70,255.0,255.0,255.0
267,13.350000000000001,-4.581031199787081,2.7986972898754345,-7.021015171119389,-0.029462185416950965,-0.07574828747173812,-0.3831531183469219,-0.0035612692337545285,-0.01345589710145854,-0.061327503741112434,0,70,255.0,255.0,255.0
268,13.4,-4.582509109093415,2.794893660522609,-7.0402502985168365,-0.02966115581529741,-0.07638478879855072,-0.38626821955949997,-0.004397546700103555,-0.012004155971046284,-0.06327654476201065,0,70,255.0,255.0,255.0
269,13.450000000000001,-4.583998012266499,2.791060020779855,-7.059643617276191,-0.02990194008696132,-0.07694870306884273,-0.389480772823123,-0.005233824166452612,-0.010552414840633975,-0.06522558578290893,0,70,255.0,255.0,255.0
270,13.5,-4.5855,2.7872,-7.0792,-0.03018453823194267,-0.07744003028261413,-0.3927907781377908,-0.006070101632801583,-0.00910067371022183,-0.06717462680380626,0,70,255.0,255.0,255.0
271,13.55,-4.5870165279367665,2.7833161778727242,-7.098922731977418,-0.030470847201257947,-0.07792175022855813,-0.3961029966993892,-0.005382257139809367,-0.010168124127537618,-0.06531411566012799,0,70,255.0,255.0,255.0
272,13.600000000000001,-4.58854651151638,2.77940693543513,-7.118808749243987,-0.030722763945923614,-0.07845684269536791,-0.3993221897038037,-0.00469441264681715,-0.011235574544853407,-0.06345360451644971,0,70,255.0,255.0,255.0
273,13.65,-4.5900882311276145,2.775469604061173,-7.138853400521845,-0.030940288465939665,-0.07904530768304345,-0.40244835715103416,-0.004006568153824958,-0.01230302496216916,-0.06159309337277151,0,70,255.0,255.0,255.0
274,13.700000000000001,-4.591639967159231,2.771501515124811,-7.159052034533137,-0.031123420761306107,-0.07968714519158482,-0.40548149904108083,-0.003318723660832742,-0.013370475379484947,-0.05973258222909324,0,70,255.0,255.0,255.0
275,13.75,-4.5932,2.7675,-7.1794,-0.03127216083202294,-0.08038235522099195,-0.40842161537394345,-0.002630879167840605,-0.014437925796800699,-0.05787207108541326,0,70,255.0,255.0,255.0
276,13.8,-4.594766894599105,2.7634632090235955,-7.199893309609036,-0.031403582303054296,-0.08108179999736104,-0.41130854401705946,-0.002625979673413703,-0.013539865257962457,-0.05760507463922595,0,70,255.0,255.0,255.0
277,13.850000000000001,-4.596340354147394,2.7593925683840466,-7.220530631904667,-0.031534758799364314,-0.08173634174678822,-0.41418212283786615,-0.0026210801789868007,-0.012641804719124213,-0.057338078193038634,0,70,255.0,255.0,255.0
278,13.9,-4.597920366396129,2.7552903232326993,-7.241311299395783,-0.031665690320952976,-0.08234598046927345,-0.4170423518363633,-0.002616180684559899,-0.011743744180286002,-0.05707108174685133,0,70,255.0,255.0,255.0
279,13.950000000000001,-4.5995069190965765,2.7511587187209012,-7.262234644591266,-0.031796376867820296,-0.08291071616481681,-0.41988923101255127,-0.0026112811901329966,-0.01084568364144776,-0.056804085300664026,0,70,255.0,255.0,255.0
280,14.0,-4.6011,2.747,-7.2833,-0.031926818439966274,-0.08343054883341824,-0.42272276036642975,-0.002606381695706095,-0.009947623102610104,-0.05653708885447539,0,70,255.0,255.0,255.0
281,14.05,-4.602699893666814,2.742815786032893,-7.304507229586442,-0.032074823586520355,-0.08394304978199936,-0.4255748272323648,-0.0033138241664570456,-0.01055241484063428,-0.057545585782926005,0,70,255.0,255.0,255.0
282,14.100000000000001,-4.604308071894044,2.738605191028685,-7.325858323137344,-0.032258200856611983,-0.08448579031748168,-0.42847731894472246,-0.004021266637207996,-0.011157206578658457,-0.05855408271137662,0,70,255.0,255.0,255.0
283,14.15,-4.605926303287867,2.73436670300803,-7.347355801895022,-0.03247695025024115,-0.0850587704398652,-0.43143023550350246,-0.004728709107958922,-0.011761998316682613,-0.05956257963982719,0,70,255.0,255.0,255.0
284,14.200000000000001,-4.60755635645446,2.7300988099915835,-7.369002187101801,-0.032731071767407874,-0.08566199014914995,-0.43443357690870515,-0.005436151578709874,-0.01236679005470679,-0.0605710765682778,0,70,255.0,255.0,255.0
285,14.25,-4.6092,2.7258,-7.3908,-0.033020565408112136,-0.08629544944533589,-0.43748734316033017,-0.006143594049460799,-0.01297158179273128,-0.06157957349672705,0,70,255.0,255.0,255.0
286,14.3,-4.610858330733639,2.721468846844831,-7.412750572045192,-0.03330512335086979,-0.08695400087464109,-0.44052014705347614,-0.005238723660845344,-0.01337047537947636,-0.05973258222910959,0,70,255.0,255.0,255.0
287,14.350000000000001,-4.61252975827643,2.717104267501214,-7.434850475545958,-0.033544437774196675,-0.08763249698328354,-0.4434606013832412,-0.004333853272229889,-0.01376936896622144,-0.057885590961492144,0,70,255.0,255.0,255.0
288,14.4,-4.614212020452403,2.71270526473518,-7.457095093024127,-0.033738508678092784,-0.08833093777126323,-0.4463087061496253,-0.003428982883614467,-0.014168262552966507,-0.05603859969387476,0,70,255.0,255.0,255.0
289,14.450000000000001,-4.615902855085582,2.7082708413127645,-7.47947980700153,-0.03388733606255812,-0.0890493232385802,-0.4490644613526286,-0.002524112494999012,-0.014567156139711587,-0.0541916084262573,0,70,255.0,255.0,255.0
290,14.5,-4.6176,2.7038,-7.502,-0.033990919927592685,-0.08978765338523437,-0.4517278669922511,-0.0016192421063833673,-0.014966049726456543,-0.05234461715864036,0,70,255.0,255.0,255.0
291,14.55,-4.619301983398632,2.6992928265877825,-7.5246520822327865,-0.034096683010004736,-0.0904809467194323,-0.4543605845537335,-0.002611281190098816,-0.01276568364146057,-0.05296408530065585,0,70,255.0,255.0,255.0
292,14.600000000000001,-4.621010495000237,2.694753738966461,-7.547436574678826,-0.03425204804660257,-0.09106422174938043,-0.4570242755223168,-0.003603320273814265,-0.010565317556464598,-0.053583553442671336,0,70,255.0,255.0,255.0
293,14.65,-4.622728014902528,2.690188238051249,-7.57035502600847,-0.034457015037386164,-0.09153747847507877,-0.45971893989800067,-0.004595359357529678,-0.008364951471468703,-0.054203021584686796,0,70,255.0,255.0,255.0
294,14.700000000000001,-4.624457023203212,2.6856018247573576,-7.593408984892077,-0.034711583982355534,-0.0919007168965273,-0.4624445776807854,-0.005587398441245128,-0.006164585386472729,-0.054822489726702284,0,70,255.0,255.0,255.0
295,14.75,-4.6262,2.681,-7.6166,-0.035015754881510666,-0.09215393701372605,-0.4652011888706708,-0.006579437524960374,-0.003964219301476279,-0.055441957868717306,0,70,255.0,255.0,255.0
296,14.8,-4.627958535671838,2.6763862468040394,-7.639929099023661,-0.035316144609103275,-0.09241821224763054,-0.46795751473159564,-0.005436151578743959,-0.00660679005470312,-0.054811076568273345,0,70,255.0,255.0,255.0
297,14.850000000000001,-4.629730661722622,2.6717559766329426,-7.663395225738743,-0.03555937003938507,-0.09281461601919637,-0.4706822965274982,-0.004292865632527544,-0.00924936080792996,-0.054180195267829384,0,70,255.0,255.0,255.0
298,14.9,-4.631513519937488,2.6671025830598256,-7.6869968029419935,-0.03574543117235604,-0.09334314832842354,-0.4733755342583785,-0.003149579686311169,-0.011891931561156706,-0.053549313967385444,0,70,255.0,255.0,255.0
299,14.950000000000001,-4.633304252101569,2.6624194596578064,-7.710732253430164,-0.03587432800801619,-0.09400380917531205,-0.47603722792423675,-0.002006293740094754,-0.014534502314383546,-0.05291843266694148,0,70,255.0,255.0,255.0
300,15.0,-4.6351,2.6577,-7.7346,-0.03594606054636551,-0.09479659855986186,-0.47866737752507266,-0.0008630077938782676,-0.01717707306760996,-0.052287551366495766,0,70,255.0,255.0,255.0
301,15.05,-4.6368990739140195,2.652939786196059,-7.758598721672572,-0.036030738553587016,-0.0955902042900449,-0.48128135651989123,-0.002524112494981902,-0.014567156139711476,-0.052271608426244585,0,70,255.0,255.0,255.0
302,15.100000000000001,-4.6387044581092765,2.6481431545017684,-7.782728122366207,-0.036198471795863704,-0.09625331417383302,-0.4838945383676972,-0.0041852171960855365,-0.01195723921181299,-0.052255665485993405,0,70,255.0,255.0,255.0
303,15.15,-4.640520305347525,2.643316629709449,-7.806988162223557,-0.03644926027319556,-0.09678592821122621,-0.4865069230684905,-0.005846321897189111,-0.009347322283914598,-0.05223972254574223,0,70,255.0,255.0,255.0
304,15.200000000000001,-4.642350768390513,2.638466736611419,-7.831378801387272,-0.03678310398558261,-0.09718804640222448,-0.4891185106222714,-0.007507426598292745,-0.0067374053560161126,-0.05222377960549105,0,70,255.0,255.0,255.0
305,15.25,-4.6442,2.6336,-7.8559,-0.03720000293302484,-0.09745966874682782,-0.4917293010290396,-0.009168531299396265,-0.004127488428117498,-0.052207836665237206,0,70,255.0,255.0,255.0
306,15.3,-4.646070768672084,2.628721008411724,-7.88055121428606,-0.03761690117654076,-0.09771697059219257,-0.49430905918883833,-0.007507398441240475,-0.0061645853864726275,-0.05098248972671005,0,70,255.0,255.0,255.0
307,15.350000000000001,-4.647960305840272,2.623826605359982,-7.905329884796435,-0.037950742777148896,-0.09807612728547509,-0.4968275500017107,-0.005846265583084684,-0.008201682344827757,-0.04975714278818289,0,70,255.0,255.0,255.0
308,15.4,-4.649864458672418,2.618911698102378,-7.930232948163782,-0.038201527734849236,-0.09853713882667535,-0.49928477346765665,-0.004185132724928952,-0.010238779303182812,-0.04853179584965578,0,70,255.0,255.0,255.0
309,15.450000000000001,-4.651779074336375,2.613971193896516,-7.9552573410207525,-0.03836925604964179,-0.09910000521579337,-0.5016807295866763,-0.002523999866773161,-0.012275876261537942,-0.047306448911128625,0,70,255.0,255.0,255.0
310,15.5,-4.6537,2.609,-7.9804,-0.038453927721526546,-0.09976472645282915,-0.5040154183587694,-0.000862867008617374,-0.01431297321989311,-0.04608110197259929,0,70,255.0,255.0,255.0
311,15.55,-4.655624251397642,2.6039945801570443,-8.005658821183193,-0.038525656740245204,-0.10043791334118596,-0.5063464067247583,-0.0020062937401288776,-0.012614502314379238,-0.04715843266695414,0,70,255.0,255.0,255.0
312,15.600000000000001,-4.6575535185296335,2.5989576240583028,-8.031035538448055,-0.03865455709553944,-0.1010261766842671,-0.5087312616254649,-0.0031497204716403816,-0.010916031408865363,-0.04823576336130898,0,70,255.0,255.0,255.0
313,15.65,-4.659490659962805,2.593893377881039,-8.056532845121318,-0.03884062878740924,-0.1015295164820725,-0.5111699830608891,-0.004293147203151845,-0.009217560503351551,-0.04931309405566378,0,70,255.0,255.0,255.0
314,15.700000000000001,-4.661438534263984,2.5888060878025168,-8.082153434529724,-0.03908387181585462,-0.10194793273460223,-0.5136625710310312,-0.005436573934663349,-0.0075190895978376774,-0.05039042475001863,0,70,255.0,255.0,255.0
315,15.75,-4.6634,2.5837,-8.1079,-0.03938428618087557,-0.10228142544185627,-0.516209025535891,-0.00658000066617459,-0.0058206186923238645,-0.051467755444371655,0,70,255.0,255.0,255.0
316,15.8,-4.665377025737349,2.578578270960098,-8.13377430098117,-0.039688471862486516,-0.10259537604306478,-0.5187533139121367,-0.005587426598262998,-0.00673740535601607,-0.05030377960546007,0,70,255.0,255.0,255.0
317,15.850000000000001,-4.667368020041192,2.5734396984068066,-8.15977436141135,-0.039943028840701875,-0.10295516597745788,-0.521239403496437,-0.004594852530351406,-0.0076541920197082764,-0.04913980376654849,0,70,255.0,255.0,255.0
318,15.9,-4.6693705014763625,2.568281990373466,-8.185897271350948,-0.04014795711552166,-0.1033607952450356,-0.5236672942887917,-0.0036022784624398494,-0.008570978683400449,-0.04797582792763694,0,70,255.0,255.0,255.0
319,15.950000000000001,-4.6713819886076875,2.563102854893417,-8.212140120860361,-0.040303256686945864,-0.10381226384579793,-0.5260369862892008,-0.0026097043945282573,-0.009487765347092655,-0.046811852088725354,0,70,255.0,255.0,255.0
320,16.0,-4.6734,2.5579,-8.2385,-0.04040892755497447,-0.10430957177974486,-0.5283484794976642,-0.0016171303266164228,-0.010404552010785051,-0.045647876249812036,0,70,255.0,255.0,255.0
321,16.05,-4.675422845652966,2.5526715360025616,-8.26497437489214,-0.040512455809809216,-0.10482858248655305,-0.5306243376266878,-0.0025239998667731206,-0.010355876261542572,-0.04538644891113161,0,70,255.0,255.0,255.0
322,16.1,-4.677452001305598,2.547417182314469,-8.291562215906556,-0.04066132754165179,-0.10534515940589913,-0.5328871243887774,-0.0034308694069298184,-0.010307200512300095,-0.04512502157245119,0,70,255.0,255.0,255.0
323,16.150000000000002,-4.679489734131748,2.542137060625096,-8.318262869474902,-0.040855542750502204,-0.10585930253778308,-0.5351368397839329,-0.004337738947086517,-0.010258524763057617,-0.044863594233770766,0,70,255.0,255.0,255.0
324,16.2,-4.681538311305265,2.5368312926238157,-8.34507568202883,-0.04109510143636043,-0.10637101188220487,-0.5373734838121544,-0.00524460848724315,-0.010209849013815143,-0.04460216689509036,0,70,255.0,255.0,255.0
325,16.25,-4.6836,2.5315,-8.372,-0.04138000359922651,-0.10688028743916458,-0.5395970564734418,-0.006151478027399848,-0.01016117326457322,-0.04434073955640905,0,70,255.0,255.0,255.0
326,16.3,-4.68567639165079,2.526143585029655,-8.399035399450282,-0.04166970489827809,-0.10737029401072476,-0.5418213355811033,-0.005436573934663281,-0.00943908959783334,-0.04463042475004891,0,70,255.0,255.0,255.0
327,16.35,-4.687766374736418,2.520763572335316,-8.42618237496244,-0.041923660992692846,-0.10782419639894793,-0.5440600989484468,-0.004721669841926714,-0.00871700593109346,-0.044920109943688766,0,70,255.0,255.0,255.0
328,16.400000000000002,-4.68986816199665,2.5153617671261492,-8.453441650749454,-0.04214187188247077,-0.10824199460383412,-0.5463133465754723,-0.004006765749190147,-0.007994922264353579,-0.045209795137328625,0,70,255.0,255.0,255.0
329,16.45,-4.691979966171254,2.509939974611322,-8.480813951024313,-0.04232433756761185,-0.10862368862538327,-0.5485810784621795,-0.0032918616564536307,-0.00727283859761375,-0.04549948033096846,0,70,255.0,255.0,255.0
330,16.5,-4.6941,2.5045,-8.5083,-0.042471058048116114,-0.10896927846359547,-0.550863294608569,-0.0025769575637168973,-0.006550754930874092,-0.0457891655246101,0,70,255.0,255.0,255.0
331,16.55,-4.696226787743873,2.4990429238788168,-8.535900027306736,-0.04260072459707224,-0.10932224147054476,-0.5531303200489016,-0.002609704394528101,-0.007567765347097192,-0.044891852088695915,0,70,255.0,255.0,255.0
332,16.6,-4.698360099748733,2.4935669283442654,-8.563612284243694,-0.04273202848756893,-0.1097260549983052,-0.5553524798174386,-0.002642451225339305,-0.008584775763320292,-0.04399453865278173,0,70,255.0,255.0,255.0
333,16.650000000000002,-4.700500017881655,2.4880694708703057,-8.591434527527284,-0.042864969719606176,-0.1101807190468768,-0.5575297739141799,-0.002675198056150509,-0.009601786179543392,-0.04309722521686755,0,70,255.0,255.0,255.0
334,16.7,-4.702646624009719,2.4825480089308978,-8.619364513873917,-0.042999548293183976,-0.11068623361625952,-0.5596622023391253,-0.00270794488696171,-0.010618796595766419,-0.04219991178095343,0,70,255.0,255.0,255.0
335,16.75,-4.7048,2.477,-8.6474,-0.04313576420830234,-0.11124259870645342,-0.5617497650922751,-0.002740691717772803,-0.01163580701198974,-0.04130259834503747,0,70,255.0,255.0,255.0
336,16.8,-4.706960457373716,2.471423919455078,-8.675538891322775,-0.04328739671342828,-0.11178874010709855,-0.5638013842232786,-0.003324608487264688,-0.010209849013815456,-0.040762166895097346,0,70,255.0,255.0,255.0
337,16.85,-4.709129226268651,2.465822314287622,-8.703779688062786,-0.04346822505702881,-0.11226358360783498,-0.5658259817817849,-0.003908525256756573,-0.00878389101564117,-0.04022173544515722,0,70,255.0,255.0,255.0
338,16.900000000000002,-4.711307766476726,2.460198749392626,-8.732121039141411,-0.04367824923910394,-0.11266712920866269,-0.5678235577677944,-0.004492442026248458,-0.0073579330174668835,-0.0396813039952171,0,70,255.0,255.0,255.0
339,16.95,-4.713497537789869,2.4545567896650873,-8.760561593480023,-0.043917469259653646,-0.11299937690958166,-0.5697941121813065,-0.005076358795740301,-0.005931975019292699,-0.03914087254527701,0,70,255.0,255.0,255.0
340,17.0,-4.7157,2.4489,-8.7891,-0.04418588511867797,-0.11326032671059194,-0.571737645022322,-0.005660275565232353,-0.004506017021118414,-0.038600441095339555,0,70,255.0,255.0,255.0
341,17.05,-4.717916182761261,2.4432309983008706,-8.817735607402168,-0.04445768854921958,-0.11350679810106014,-0.5736961430579801,-0.005211861656432042,-0.005352838597609745,-0.039739480330983505,0,70,255.0,255.0,255.0
342,17.1,-4.720145395176665,2.437548614505247,-8.84647056350516,-0.04470707128432118,-0.11379561057035292,-0.5757115930554204,-0.004763447747631731,-0.006199660174101076,-0.040878519566627455,0,70,255.0,255.0,255.0
343,17.150000000000002,-4.7223865162114365,2.4318507315591877,-8.875307715907072,-0.04493403332398277,-0.11412676411847027,-0.577783995014643,-0.00431503383883142,-0.007046481750592406,-0.042017558802271406,0,70,255.0,255.0,255.0
344,17.2,-4.724638424830806,2.426135232408753,-8.904249912205987,-0.04513857466820432,-0.11450025874541216,-0.5799133489356475,-0.0038666199300311406,-0.007893303327083677,-0.04315659803791528,0,70,255.0,255.0,255.0
345,17.25,-4.7269,2.4204,-8.9333,-0.04532069531698587,-0.11491609445117863,-0.5820996548184345,-0.0034182060212307186,-0.008740124903574897,-0.04429563727356367,0,70,255.0,255.0,255.0
346,17.3,-4.729170011581236,2.41464328734144,-8.962459479068558,-0.04547384908969068,-0.1153520674886623,-0.5842620435447974,-0.0027079448869615783,-0.008698796595770886,-0.042199911780953385,0,70,255.0,255.0,255.0
347,17.35,-4.73144679302469,2.4088648276913904,-8.99172445791657,-0.04559148980568203,-0.11578597411075572,-0.58631964599653,-0.001997683752692438,-0.008657468287966872,-0.0401041862883431,0,70,255.0,255.0,255.0
348,17.400000000000002,-4.733728568677527,2.4030647243706205,-9.021089697230302,-0.045673617464959924,-0.11621781431745898,-0.5882724621736318,-0.0012874226184232981,-0.00861613998016286,-0.038008460795732814,0,70,255.0,255.0,255.0
349,17.45,-4.736013562886907,2.397243080699901,-9.05054995769602,-0.04572023206752436,-0.116647588108772,-0.5901204920761032,-0.0005771614841542086,-0.00857481167235885,-0.035912735303122674,0,70,255.0,255.0,255.0
350,17.5,-4.7383,2.3914,-9.0801,-0.045731333613375336,-0.11707529548469486,-0.5918637357039439,0.0001330996501152093,-0.00853348336455495,-0.033817009810509724,0,70,255.0,255.0,255.0
351,17.55,-4.740586970913791,2.38553585233337,-9.1097360763236,-0.04575891509201619,-0.11748493194429095,-0.5935916827628388,-0.0012363587957493233,-0.007851975019288195,-0.035300872545286154,0,70,255.0,255.0,255.0
352,17.6,-4.742877032724573,2.379652074729192,-9.139460404828561,-0.04585496949295027,-0.1178604929866237,-0.5953938229584727,-0.002605817241613856,-0.007170466674021439,-0.03678473528006258,0,70,255.0,255.0,255.0
353,17.650000000000002,-4.745173609078458,2.3737503709583283,-9.169276695171728,-0.04601949681617758,-0.1182019786116931,-0.5972701562908451,-0.003975275687478389,-0.006488958328754684,-0.03826859801483901,0,70,255.0,255.0,255.0
354,17.7,-4.747480123621563,2.367832444791644,-9.199188657009925,-0.046252497061698095,-0.11850938881949916,-0.5992206827599563,-0.005344734133342824,-0.005807449983487976,-0.03975246074961534,0,70,255.0,255.0,255.0
355,17.75,-4.7498,2.3619,-9.2292,-0.04655397022951185,-0.1187827236100419,-0.6012454023658066,-0.00671419257920719,-0.00512594163822111,-0.041236323484393544,0,70,255.0,255.0,255.0
356,17.8,-4.752135704763595,2.3559541033250797,-9.259313015637044,-0.0468664905422427,-0.11906020473417464,-0.603259225403863,-0.005786619930026624,-0.005973303327088065,-0.03931659803785956,0,70,255.0,255.0,255.0
357,17.85,-4.754485876077016,2.3499932733918416,-9.289524322769182,-0.047132632222514514,-0.11938005394275071,-0.6051770621695926,-0.004859047280846058,-0.00682066501595502,-0.03739687259132557,0,70,255.0,255.0,255.0
358,17.900000000000002,-4.756848195008639,2.3440153917960638,-9.3198291220828,-0.04735239527032731,-0.11974227123577015,-0.6069989126629955,-0.003931474631665493,-0.007668026704821976,-0.03547714714479158,0,70,255.0,255.0,255.0
359,17.95,-4.759220342626841,2.338018340133524,-9.350222614264275,-0.04752577968568106,-0.12014685661323289,-0.6087247768840717,-0.0030039019824849933,-0.008515388393688872,-0.03355742169825773,0,70,255.0,255.0,255.0
360,18.0,-4.7616,2.332,-9.3807,-0.04765278546857579,-0.12059381007513902,-0.6103546548328214,-0.00207632933330415,-0.009362750082555604,-0.03163769625172641,0,70,255.0,255.0,255.0
361,18.05,-4.763985410031824,2.3259589343663105,-9.411257461128226,-0.04776712273901256,-0.12104224911901167,-0.6119474156216936,-0.002497161484166594,-0.008574811672350358,-0.03207273530316428,0,70,255.0,255.0,255.0
362,18.1,-4.7663770629673605,2.3198964317034405,-9.44189510409471,-0.04790250161699246,-0.12145129124237407,-0.6135619283631378,-0.002917993635029038,-0.007786873262145111,-0.03250777435460216,0,70,255.0,255.0,255.0
363,18.150000000000002,-4.768776010886983,2.3138144618574152,-9.472614016497085,-0.04805892210251547,-0.1218209364452262,-0.6151981930571538,-0.003338825785891482,-0.006998934851939864,-0.032942813406040036,0,70,255.0,255.0,255.0
364,18.2,-4.77118330587107,2.3077149946742597,-9.503415285932968,-0.0482363841955816,-0.12215118472756803,-0.6168562097037418,-0.003759657936753896,-0.006210996441734673,-0.03337785245747788,0,70,255.0,255.0,255.0
365,18.25,-4.7736,2.3016,-9.5343,-0.04843488789619086,-0.12244203608939963,-0.6185359783029016,-0.004180490087616284,-0.005423058031528871,-0.033812891508915754,0,70,255.0,255.0,255.0
366,18.3,-4.776026655109105,2.2954709592096774,-9.565269139850049,-0.04862501850171452,-0.12272279878977527,-0.6202311121093652,-0.0034247341333301542,-0.00580744998349641,-0.033992460749628965,0,70,255.0,255.0,255.0
367,18.35,-4.778461872053543,2.2893273997943955,-9.596323260851971,-0.04877736130952388,-0.12302278108774928,-0.6219352243778646,-0.002668978179044024,-0.0061918419354639485,-0.034172029990342176,0,70,255.0,255.0,255.0
368,18.400000000000002,-4.780903761443429,2.2831683607742757,-9.62746281192887,-0.04889191631961893,-0.12334198298332168,-0.6236483151083995,-0.0019132222247578946,-0.006576233887431487,-0.03435159923105538,0,70,255.0,255.0,255.0
369,18.45,-4.783350433888876,2.2769928811694373,-9.658688242003846,-0.04896868353199967,-0.12368040447649241,-0.6253703843009701,-0.0011574662704718183,-0.006960625839398998,-0.03453116847176858,0,70,255.0,255.0,255.0
370,18.5,-4.7858,2.2708,-9.69,-0.0490076629466661,-0.12403804556726156,-0.6271014319555763,-0.00040171031618541075,-0.007345017791366315,-0.03471073771248001,0,70,255.0,255.0,255.0
371,18.55,-4.788251169531756,2.26458922879498,-9.72139797947158,-0.049044803254132546,-0.12438655572188805,-0.628808135940844,-0.0010839019824722003,-0.00659538839369328,-0.03355742169822447,0,70,255.0,255.0,255.0
372,18.6,-4.790705048818469,2.258361969118975,-9.752879852497404,-0.04911605314491332,-0.1246975844066309,-0.6304571741253988,-0.0017660936487589902,-0.005845758996020246,-0.03240410568396893,0,70,255.0,255.0,255.0
373,18.650000000000002,-4.793163343339303,2.2521200950454814,-9.784442735787442,-0.04922141261900844,-0.12497113162149008,-0.6320485465092409,-0.0024482853150457795,-0.005096129598347212,-0.03125078966971339,0,70,255.0,255.0,255.0
374,18.7,-4.795627758573424,2.245865480647992,-9.816083746051651,-0.04936088167641789,-0.1252071973664656,-0.6335822530923702,-0.003130476981332521,-0.00434650020067423,-0.030097473655457934,0,70,255.0,255.0,255.0
375,18.75,-4.7981,2.2396,-9.8478,-0.04953446031714168,-0.1254057816415575,-0.6350582938747866,-0.003812668647619144,-0.0035968708030009733,-0.028944157641198842,0,70,255.0,255.0,255.0
376,18.8,-4.80058146676387,2.2333249256104017,-9.879589342263632,-0.04972376848175144,-0.12560297832267556,-0.6365203441272547,-0.003759657936770987,-0.004290996441721761,-0.029537852457519883,0,70,255.0,255.0,255.0
377,18.85,-4.803072332672583,2.2270391237297,-9.911452529158407,-0.049910426110818785,-0.12583488128572967,-0.6380120791205387,-0.0037066472259228308,-0.004985122080442547,-0.030131547273840924,0,70,255.0,255.0,255.0
378,18.900000000000002,-4.8055724651993605,2.2207408590437967,-9.943391044921364,-0.05009443320434373,-0.1261014905307198,-0.6395334988546387,-0.003653636515074674,-0.005679247719163335,-0.030725242090161968,0,70,255.0,255.0,255.0
379,18.95,-4.808081731817425,2.214428396238596,-9.97540637378955,-0.050275789762326245,-0.126402806057646,-0.6410846033295547,-0.0036006258042265214,-0.006373373357884073,-0.031318936906482964,0,70,255.0,255.0,255.0
380,19.0,-4.8106,2.2081,-10.0075,-0.050454495784766365,-0.1267388278665082,-0.642665392545287,-0.003547615093378309,-0.0070674989966046375,-0.03191263172280401,0,70,255.0,255.0,255.0
381,19.05,-4.8131269634127625,2.2017542687634104,-10.039672651473897,-0.0506201228188625,-0.1270895309874083,-0.6442304875501507,-0.0030774662704672264,-0.006960625839399002,-0.030691168471743406,0,70,255.0,255.0,255.0
382,19.1,-4.815661620491201,2.1953911359622236,-10.071922030868974,-0.0507622424118131,-0.1274348904504481,-0.6457345093924614,-0.0026073174475561432,-0.006853752682193367,-0.029469705220682804,0,70,255.0,255.0,255.0
383,19.150000000000002,-4.818202795863257,2.1890108687793304,-10.104245084527102,-0.05088085456361812,-0.12777490625562765,-0.6471774580722189,-0.0021371686246450606,-0.006746879524987732,-0.028248241969622206,0,70,255.0,255.0,255.0
384,19.200000000000003,-4.820749314156877,2.1826137343976244,-10.136638758790154,-0.050975959274277595,-0.1281095784029469,-0.6485593335894236,-0.0016670198017339777,-0.006640006367782097,-0.027026778718561604,0,70,255.0,255.0,255.0
385,19.25,-4.8233,2.1762,-10.1691,-0.05104755654379153,-0.12843890689240584,-0.649880135944075,-0.0011968709788229837,-0.006533133210577358,-0.025805315467498424,0,70,255.0,255.0,255.0
386,19.3,-4.82585387958508,2.169769999335954,-10.201626451840784,-0.051107740242795525,-0.12875889772768745,-0.6511817056721483,-0.0012104769813369057,-0.0062665002006871045,-0.026257473655430814,0,70,255.0,255.0,255.0
387,19.35,-4.828410785362615,2.163324332421406,-10.234218547365705,-0.051168604241925215,-0.12906555691247457,-0.6525058833096181,-0.0012240829838508274,-0.005999867190796851,-0.026709631843363203,0,70,255.0,255.0,255.0
388,19.400000000000002,-4.830970751347609,2.156863665838881,-10.266877416970237,-0.05123014854118061,-0.12935888444676713,-0.6538526688564846,-0.0012376889863647495,-0.005733234180906599,-0.027161790031295593,0,70,255.0,255.0,255.0
389,19.450000000000003,-4.833533811555069,2.150388666170904,-10.299604191049847,-0.051292373140561696,-0.1296388803305652,-0.6552220623127477,-0.0012512949888786715,-0.005466601171016346,-0.027613948219227982,0,70,255.0,255.0,255.0
390,19.5,-4.8361,2.1439,-10.3324,-0.051355278040068474,-0.1299055445638688,-0.6566140636784072,-0.0012649009913924814,-0.00519996816112589,-0.0280661064071559,0,70,255.0,255.0,255.0
391,19.55,-4.838669518246915,2.1373985338927732,-10.36526554116297,-0.051428916209959055,-0.13014687810184392,-0.6580026897612493,-0.00168062580423089,-0.004453373357879398,-0.027478936906525312,0,70,255.0,255.0,255.0
392,19.6,-4.84124323805834,2.1308859343521513,-10.398199779668207,-0.05152334062049157,-0.13035088189965674,-0.6593619573690598,-0.0020963506170692987,-0.0037067785546329064,-0.026891767405894725,0,70,255.0,255.0,255.0
393,19.650000000000002,-4.843822198746309,2.124364067865143,-10.43120124759196,-0.05163855127166599,-0.1305175559573072,-0.6606918665018389,-0.0025120754299077074,-0.0029601837513864152,-0.026304597905264133,0,70,255.0,255.0,255.0
394,19.700000000000003,-4.84640743962285,2.1178348009187564,-10.464268477010478,-0.051774548163482335,-0.1306469002747954,-0.6619924171595862,-0.002927800242746116,-0.0022135889481399236,-0.025717428404633546,0,70,255.0,255.0,255.0
395,19.75,-4.849,2.1113,-10.4974,-0.051931331295940596,-0.1307389148521212,-0.663263609342302,-0.0033435250555844953,-0.0014669941448928192,-0.025130258904002112,0,70,255.0,255.0,255.0
396,19.8,-4.851600847427261,2.104760665092953,-10.530594583507334,-0.05210459491737302,-0.13084558986493788,-0.6645195352828653,-0.0035870198017125578,-0.002800006367774285,-0.02510677871853151,0,70,255.0,255.0,255.0
397,19.85,-4.854210662404026,2.098214330169987,-10.563851933961468,-0.052290033276111855,-0.1310189154888986,-0.6657742872141552,-0.0038305145478406202,-0.0041330185906557505,-0.025083298533060905,0,70,255.0,255.0,255.0
398,19.900000000000002,-4.856830053667161,2.0916576627005443,-10.59717199266193,-0.05248764637215709,-0.13125889172400346,-0.6670278651361715,-0.004074009293968683,-0.005466030813537216,-0.0250598183475903,0,70,255.0,255.0,255.0
399,19.950000000000003,-4.85945962995353,2.0850873301540673,-10.630554700908263,-0.052697434205508736,-0.13156551857025237,-0.6682802690489142,-0.004317504040096745,-0.006799043036418682,-0.025036338162119698,0,70,255.0,255.0,255.0
400,20.0,-4.8621,2.0785,-10.664,-0.05291939677616675,-0.1319387960276453,-0.6695314989523834,-0.004560998786224402,-0.008132055259299609,-0.02501285797665087,0,70,255.0,255.0,255.0
401,20.05,-4.864751092044043,2.0718932057354134,-10.697507324807692,-0.05311270412054463,-0.1323267624384033,-0.6707511691072806,-0.0031712949888910626,-0.007386601171020402,-0.023773948219235466,0,70,255.0,255.0,255.0
402,20.1,-4.867410112325556,2.0652679449679,-10.73107408448593,-0.05323652627505586,-0.13267745614474735,-0.6719088937743071,-0.0017815911915577236,-0.006641147082741196,-0.022535038461820065,0,70,255.0,255.0,255.0
403,20.150000000000002,-4.8700735865850495,2.0586260813326787,-10.764697181760326,-0.05329086323970041,-0.13299087714667743,-0.6730046729534626,-0.0003918873942243845,-0.0058956929944619894,-0.021296128704404664,0,70,255.0,255.0,255.0
404,20.200000000000003,-4.8727380405630285,2.0519694784649722,-10.798373519356481,-0.0532757150144783,-0.13326702544419355,-0.6740385066447475,0.0009978164031089545,-0.005150238906182782,-0.02005721894698926,0,70,255.0,255.0,255.0
405,20.25,-4.8754,2.0453,-10.8321,-0.053191081599389525,-0.13350590103729568,-0.6750103948481615,0.0023875202004425278,-0.004404784817903851,-0.01881830918957217,0,70,255.0,255.0,255.0
406,20.3,-4.878057184396571,2.0386193119653924,-10.865874517261902,-0.053108588600447336,-0.13371936038144688,-0.675979788288017,0.0009121997572449927,-0.004133588948143925,-0.019957428404645067,0,70,255.0,255.0,255.0
407,20.35,-4.880712088293747,2.0319282899584135,-10.899698928094816,-0.05309986162366503,-0.13391925993211007,-0.677006137688626,-0.0005631206859525425,-0.0038623930783840002,-0.021096547619717965,0,70,255.0,255.0,255.0
408,20.400000000000002,-4.88336839999264,2.025227611968739,-10.93357608029678,-0.053164900669042586,-0.1341055996892853,-0.6780894430499887,-0.002038441129150078,-0.0035911972086240746,-0.022235666834790863,0,70,255.0,255.0,255.0
409,20.450000000000003,-4.886029807794355,2.0185179559860424,-10.96750882166583,-0.05330370573658003,-0.13427837965297248,-0.6792297043721051,-0.0035137615723476127,-0.0033200013388641494,-0.02337478604986376,0,70,255.0,255.0,255.0
410,20.5,-4.8887,2.0118,-11.0015,-0.05351627682627734,-0.1344375998231717,-0.6804269216549751,-0.00498908201554471,-0.0030488054691046873,-0.024513905264936575,0,70,255.0,255.0,255.0
411,20.55,-4.891381770369677,2.0050743464030183,-11.035551406144705,-0.05374894147766794,-0.13458779603580978,-0.6816176777406509,-0.0043175040400794135,-0.0029590430364189835,-0.02311633816209111,0,70,255.0,255.0,255.0
412,20.6,-4.894074334499455,1.998341295198446,-11.069660603134812,-0.053948027230285286,-0.1347335041268136,-0.6827385554711842,-0.0036459260646141164,-0.002869280603733279,-0.021718771059245648,0,70,255.0,255.0,255.0
413,20.650000000000002,-4.896776013444393,1.9916010707923644,-11.103824097052572,-0.05411353408412936,-0.13487472409618312,-0.6837895548465754,-0.0029743480891488198,-0.0027795181710475753,-0.020321203956400188,0,70,255.0,255.0,255.0
414,20.700000000000003,-4.899485128259554,1.9848538975908547,-11.138038393980219,-0.05424546203920017,-0.13501145594391833,-0.6847706758668243,-0.0023027701136835227,-0.0026897557383618715,-0.018923636853554724,0,70,255.0,255.0,255.0
415,20.75,-4.9022,1.9781,-11.1723,-0.05434381109549771,-0.13514369967001927,-0.6856819185319307,-0.0016311921382183847,-0.0025999933056750635,-0.017526069750708473,0,70,255.0,255.0,255.0
416,20.8,-4.904918934124723,1.9713393024225334,-11.206606258159285,-0.054407645488875764,-0.13528945547531562,-0.6865735007493741,-0.0009221835969036706,-0.003230238906178338,-0.018137218947027387,0,70,255.0,255.0,255.0
417,20.85,-4.907640173708436,1.964570529247801,-11.240957859365935,-0.05443602945518808,-0.1354667235606371,-0.6874956404266335,-0.00021317505558895652,-0.003860484506681612,-0.0187483681433463,0,70,255.0,255.0,255.0
418,20.900000000000002,-4.91036194622979,1.9577921048618023,-11.275356331492945,-0.05442896299443466,-0.13567550392598376,-0.6884483375637087,0.0004958334857257576,-0.004490730107184886,-0.019359517339665216,0,70,255.0,255.0,255.0
419,20.950000000000003,-4.913082479167429,1.9510024536505355,-11.309803202413303,-0.054386446106615506,-0.1359157965713556,-0.6894315921606,0.0012048420270404717,-0.0051209757076881605,-0.01997066653598413,0,70,255.0,255.0,255.0
420,21.0,-4.9158,1.9442,-11.3443,-0.054308478791730626,-0.13618760149675257,-0.6904454042173073,0.001913850568354969,-0.00575122130819139,-0.020581815732305664,0,70,255.0,255.0,255.0
421,21.05,-4.918513693131435,1.9373836439068475,-11.378847561218164,-0.05425247656683066,-0.136462382062929,-0.6914483192618609,0.000326238427643621,-0.005240001338864346,-0.019534786049839232,0,70,255.0,255.0,255.0
422,21.1,-4.9212265706668,1.930554187810348,-11.413443959401452,-0.054275854948966265,-0.136711601630639,-0.6923988828222912,-0.001261373713067727,-0.004728781369537301,-0.018487756367372803,0,70,255.0,255.0,255.0
423,21.150000000000002,-4.9239426016364485,1.9237129097604244,-11.44808657697566,-0.054378613938137435,-0.13693526019988272,-0.6932970948985981,-0.0028489858537790744,-0.004217561400210257,-0.01744072668490637,0,70,255.0,255.0,255.0
424,21.200000000000003,-4.926665755070732,1.9168610878070005,-11.482772796366579,-0.05456075353434418,-0.13713335777066005,-0.694142955490782,-0.004436597994490423,-0.003706341430883213,-0.01639369700243994,0,70,255.0,255.0,255.0
425,21.25,-4.9294,1.91,-11.5175,-0.054822273737586455,-0.137305894342971,-0.6949364645988423,-0.006024210135201602,-0.003195121461555983,-0.015346667319974472,0,70,255.0,255.0,255.0
426,21.3,-4.932147893349541,1.9031309219500756,-11.552265896968064,-0.055078448243808045,-0.13745301627296894,-0.6956972222031808,-0.00422277011366203,-0.0026897557383613363,-0.01508363685356215,0,70,255.0,255.0,255.0
427,21.35,-4.934906343624363,1.8962551195108055,-11.587069503028266,-0.05524455074895267,-0.13757486991680715,-0.6964448282841985,-0.002421330092122458,-0.0021843900151666895,-0.01482060638714983,0,70,255.0,255.0,255.0
428,21.400000000000002,-4.9376708472244175,1.8893738560964974,-11.62191016060443,-0.0553205812530203,-0.13767145527448563,-0.6971792828418957,-0.0006198900705828856,-0.0016790242919720428,-0.014557575920737508,0,70,255.0,255.0,255.0
429,21.450000000000003,-4.9404369005496465,1.8824883951214595,-11.656787212120399,-0.05530653975601096,-0.13774277234600435,-0.6979005858762724,0.0011815499509566863,-0.001173658568777396,-0.014294545454325187,0,70,255.0,255.0,255.0
430,21.5,-4.9432,1.8756,-11.6917,-0.055202426257924646,-0.13778882113136334,-0.6986087373873283,0.002982989972495964,-0.0006682928455827852,-0.01403151498791022,0,70,255.0,255.0,255.0
431,21.55,-4.945957133470408,1.8687094682928487,-11.726648050909581,-0.055097730457936235,-0.1378375528451951,-0.6993147919254252,0.0012048420270402618,-0.0012809757076886006,-0.014210666535963238,0,70,255.0,255.0,255.0
432,21.6,-4.948711254835748,1.8618157341464283,-11.7616316284855,-0.05508194205522062,-0.1379169187021322,-0.7000298040409246,-0.0005733059184154406,-0.001893658569794416,-0.014389818084016253,0,70,255.0,255.0,255.0
433,21.650000000000002,-4.9514668094658845,1.8549172658535835,-11.796651180606633,-0.055155061049777784,-0.13802691870217457,-0.7007537737338267,-0.002351453863871143,-0.0025063414319002313,-0.01456896963206927,0,70,255.0,255.0,255.0
434,21.700000000000003,-4.9542282427306805,1.8480125317071592,-11.831707155151841,-0.05531708744160774,-0.13816755284532223,-0.7014867010041317,-0.004129601809326845,-0.0031190242940060467,-0.014748121180122286,0,70,255.0,255.0,255.0
435,21.75,-4.957,1.8411,-11.8668,-0.05556802123071046,-0.1383388211315752,-0.702228585851839,-0.0059077497547824764,-0.003731707156112929,-0.01492727272817529,0,70,255.0,255.0,255.0
436,21.8,-4.959785172768829,1.8341784048785281,-11.901929899393618,-0.055826629924442706,-0.1385247723462501,-0.7029636100951046,-0.004436597994507264,-0.0037063414308833305,-0.01447369700244589,0,70,255.0,255.0,255.0
437,21.85,-4.962581437032645,1.8272475439034792,-11.937095983029739,-0.056011681030161194,-0.13870945527466352,-0.7036759555520836,-0.002965446234232052,-0.003680975705653732,-0.014020121276716488,0,70,255.0,255.0,255.0
438,21.900000000000002,-4.965385114912045,1.820307480489166,-11.972297116969054,-0.05612317454786592,-0.13889286991681546,-0.7043656222227762,-0.00149429447395684,-0.003655609980424134,-0.013566545550987089,0,70,255.0,255.0,255.0
439,21.950000000000003,-4.96819252852763,1.8133582780499016,-12.007532167272247,-0.056161110477556876,-0.13907501627270596,-0.7050326101071824,-2.3142713681627985e-05,-0.0036302442551945356,-0.013112969825257689,0,70,255.0,255.0,255.0
440,22.0,-4.971,1.8064,-12.0428,-0.056125488819234085,-0.13925589434233496,-0.7056769192053018,0.0014480090465937012,-0.003604878529964717,-0.01265939409952388,0,70,255.0,255.0,255.0
441,22.05,-4.9738045754542775,1.799432912193038,-12.078099551515953,-0.05605974984429533,-0.1394233577698035,-0.706302767694149,0.0011815499509565802,-0.003093658568776762,-0.012374545454362004,0,70,255.0,255.0,255.0
442,22.1,-4.976606197033676,1.7924580902396539,-12.113430039395546,-0.05600733382413843,-0.13956526019921264,-0.7069143737507381,0.0009150908553194594,-0.0025824386075888072,-0.012089696809200126,0,70,255.0,255.0,255.0
443,22.150000000000002,-4.979405530885937,1.7854768121897506,-12.148790751517158,-0.05596824075876338,-0.13968160163056237,-0.707511737375069,0.0006486317596823385,-0.0020712186464008527,-0.01180484816403825,0,70,255.0,255.0,255.0
444,22.200000000000003,-4.982203243158799,1.7784903560932317,-12.184180975759181,-0.05594247064817019,-0.13977238206385273,-0.7080948585671419,0.00038217266404521754,-0.0015599986852128976,-0.011519999518876374,0,70,255.0,255.0,255.0
445,22.25,-4.985,1.7715,-12.2196,-0.05593002349235886,-0.1398376014990837,-0.7086637373269565,0.00011571356840822666,-0.0010487787240260893,-0.011235150873711852,0,70,255.0,255.0,255.0
446,22.3,-4.9877965254140655,1.76450674634932,-12.255047094542567,-0.05593437069838119,-0.13989379657453463,-0.7092173191283018,-0.00028960180930164855,-0.0011990242940114215,-0.01090812118009747,0,70,255.0,255.0,255.0
447,22.35,-4.990593774832654,1.7575104951379046,-12.290521459388087,-0.055958983673289026,-0.13995750392848483,-0.7097545494449663,-0.0006949171870115238,-0.0013492698639967536,-0.010581091486483087,0,70,255.0,255.0,255.0
448,22.400000000000002,-4.993392761544209,1.7505108707518295,-12.326022276962322,-0.05600386241708235,-0.14002872356093432,-0.7102754282769501,-0.001100232564721399,-0.0014995154339820858,-0.010254061792868705,0,70,255.0,255.0,255.0
449,22.450000000000003,-4.996194498837176,1.7435074975771696,-12.36154872969104,-0.05606900692976116,-0.14010745547188305,-0.7107799556242531,-0.0015055479424312742,-0.001649761003967418,-0.009927032099254322,0,70,255.0,255.0,255.0
450,22.5,-4.999,1.7365,-12.3971,-0.05615441721132547,-0.14019369966133108,-0.7112681314868754,-0.0019108633201412317,-0.0018000065739534055,-0.009600002405637298,0,70,255.0,255.0,255.0
451,22.55,-5.001810122889464,1.7294881024096818,-12.432675270313776,-0.05625076736217136,-0.14028145593205965,-0.7117399557926479,-0.0019431427136942685,-0.0017102442551904394,-0.00927296982526435,0,70,255.0,255.0,255.0
452,22.6,-5.0046251036357114,1.722471929208726,-12.468273723052116,-0.0563487314826949,-0.14036472408685013,-0.7121954284694019,-0.0019754221072473053,-0.0016204819364274733,-0.008945937244891402,0,70,255.0,255.0,255.0
453,22.650000000000002,-5.007445022937228,1.715451704802929,-12.503894540633567,-0.056448309572896094,-0.14044350412570242,-0.712634549517137,-0.002007701500800342,-0.0015307196176645073,-0.008618904664518454,0,70,255.0,255.0,255.0
454,22.700000000000003,-5.010269961492496,1.708427653598088,-12.53953690547668,-0.05654950163277493,-0.14051779604861658,-0.7130573189358537,-0.002039980894353379,-0.0014409572989015412,-0.008291872084145505,0,70,255.0,255.0,255.0
455,22.75,-5.0131,1.7014,-12.5752,-0.05665230766233143,-0.1405875998555926,-0.7134637367255516,-0.002072260287906136,-0.0013511949801388035,-0.007964839503770804,0,70,255.0,255.0,255.0
456,22.8,-5.015934983028079,1.6943688440119515,-12.610883024202334,-0.05674255985292869,-0.1406603796972264,-0.7138548577011171,-0.00153782733598418,-0.0015599986852133292,-0.007679999518849452,0,70,255.0,255.0,255.0
457,22.85,-5.0187738106244995,1.6873337880271897,-12.64658524840346,-0.05680609039592985,-0.14074359972411393,-0.7142317366774367,-0.0010033943840622242,-0.001768802390287855,-0.007395159533928101,0,70,255.0,255.0,255.0
458,22.900000000000002,-5.021615146706879,1.6802943100364522,-12.682305960503422,-0.05684289929133492,-0.1408372599362552,-0.7145943736545101,-0.0004689614321402686,-0.001977606095362381,-0.007110319549006748,0,70,255.0,255.0,255.0
459,22.950000000000003,-5.0244576551928395,1.6732498880304763,-12.718044448402257,-0.056852986539143884,-0.14094136033365018,-0.7149427686323372,6.547151978168742e-05,-0.0021864098004369067,-0.006825479564085396,0,70,255.0,255.0,255.0
460,23.0,-5.0273,1.6662,-12.7538,-0.05683635213935674,-0.1410559009162989,-0.7152769216109185,0.0005999044717038826,-0.0023952135055111956,-0.006540639579164065,0,70,255.0,255.0,255.0
461,23.05,-5.030141144998218,1.6591445215425118,-12.789571832876904,-0.05681099322612418,-0.14115702527903587,-0.7155926134028792,0.0004144520575983553,-0.001649761003967532,-0.00608703209926204,0,70,255.0,255.0,255.0
462,23.1,-5.032981253866292,1.6520849186825142,-12.825358883334054,-0.05679490693359691,-0.14122087701669567,-0.7158856248208447,0.00022899964349282795,-0.0009043085024238683,-0.005633424619360015,0,70,255.0,255.0,255.0
463,23.150000000000002,-5.035820790235256,1.6450230550512601,-12.861160017352756,-0.0567880932617749,-0.14124745612927828,-0.7161559558648152,4.354722938730061e-05,-0.00015885600088020452,-0.00517981713945799,0,70,255.0,255.0,255.0
464,23.200000000000003,-5.038660217736147,1.637960794280004,-12.896974100914305,-0.05679055221065817,-0.1412367626167837,-0.7164036065347905,-0.00014190518471822672,0.000586596500663459,-0.004726209659555966,0,70,255.0,255.0,255.0
465,23.25,-5.0415,1.6309,-12.9328,-0.056802283780246716,-0.14118879647921193,-0.7166285768307706,-0.00032735759882335236,0.0013320490022066256,-0.004272602179651308,0,70,255.0,255.0,255.0
466,23.3,-5.044340436979051,1.6238418698179997,-12.968636844290057,-0.05681346724257581,-0.14114351918662932,-0.7168466886873658,-0.00011998089434065145,0.0004790427010977861,-0.004451872084153233,0,70,255.0,255.0,255.0
467,23.35,-5.047181173910337,1.6167849372427525,-13.004484818260325,-0.05681428186968078,-0.14114089220910214,-0.717073764039186,8.739581014204946e-05,-0.00037396360001105337,-0.004631141988655157,0,70,255.0,255.0,255.0
468,23.400000000000002,-5.050021692352098,1.609727069758505,-13.040344370085563,-0.05680472766156161,-0.1411809155466304,-0.7173098028862313,0.00029477251462475037,-0.0012269699011198927,-0.004810411893157082,0,70,255.0,255.0,255.0
469,23.450000000000003,-5.052861473862573,1.6026661348495053,-13.076215947940536,-0.05678480461821831,-0.14126358919921414,-0.7175548052285017,0.0005021492191074513,-0.0020799762022287323,-0.004989681797659006,0,70,255.0,255.0,255.0
470,23.5,-5.0557,1.5956,-13.1121,-0.05675451273965087,-0.1413889131668533,-0.717808771065997,0.0007095259235900264,-0.002932982503337067,-0.0051689517021600295,0,70,255.0,255.0,255.0
471,23.55,-5.05853710708558,1.5885271991854877,-13.147996789962871,-0.056735137803567,-0.14151689797444764,-0.7180606318476532,6.547151976461687e-05,-0.002186409800436662,-0.0049054795640905945,0,70,255.0,255.0,255.0
472,23.6,-5.06137405049236,1.581448932346474,-13.183905843624652,-0.05674796558767441,-0.14160755414689696,-0.7182993190224062,-0.0005785828840607927,-0.0014398370975362573,-0.0046420074260211585,0,70,255.0,255.0,255.0
473,23.650000000000002,-5.06421244035635,1.5743670659147166,-13.219826502304999,-0.05679299609197308,-0.14166088168420127,-0.7185248325902555,-0.001222637287886202,-0.0006932643946358521,-0.0043785352879517235,0,70,255.0,255.0,255.0
474,23.700000000000003,-5.06705388681356,1.5672834663219728,-13.255758107323564,-0.056870229316463024,-0.14167688058636055,-0.7187371725512013,-0.0018666916917116118,5.3308308264552514e-05,-0.004115063149882288,0,70,255.0,255.0,255.0
475,23.75,-5.0699,1.5602,-13.2917,-0.05697966526114423,-0.1416555508533748,-0.7189363389052438,-0.002510746095536809,0.0007998810111657928,-0.0038515910118119834,0,70,255.0,255.0,255.0
476,23.8,-5.07275193467863,1.553118133440049,-13.327651195858465,-0.057093981543150915,-0.14162088891557906,-0.719102783922028,-0.002061905184730544,0.0005865965006635024,-0.0028062096595581417,0,70,255.0,255.0,255.0
477,23.85,-5.075609024120222,1.5460377333713498,-13.363609407241077,-0.05718585577961729,-0.14159689120330846,-0.7192169598711996,-0.001613064273924279,0.000373311990161212,-0.0017608283073043,0,70,255.0,255.0,255.0
478,23.900000000000002,-5.0784701462225,1.5389582665826258,-13.399572020694459,-0.05725528797054335,-0.14158355771656297,-0.7192788667527584,-0.001164223363118014,0.0001600274796589216,-0.0007154469550504582,0,70,255.0,255.0,255.0
479,23.950000000000003,-5.081334178883184,1.5318791998626013,-13.435536422765226,-0.05730227811592909,-0.14158088845534256,-0.7192885045667047,-0.0007153824523117491,-5.325703084336879e-05,0.0003299343972033835,0,70,255.0,255.0,255.0
480,24.0,-5.0842,1.5248,-13.4715,-0.05732682621577452,-0.1415888834196473,-0.7192458733130382,-0.00026654154150562714,-0.00026654154134475583,0.0013753157494544865,0,70,255.0,255.0,255.0
481,24.05,-5.087066354199899,1.5177202670543153,-13.507460826603278,-0.057320936023834056,-0.14159954636323663,-0.7191922324642428,0.0005021492191243813,-0.00015997620222853854,0.0007703182023618552,0,70,255.0,255.0,255.0
482,24.1,-5.089931453026749,1.5106401341681253,-13.543419727411049,-0.05727661129386208,-0.14160488103987012,-0.719168841492802,0.0012708399797543898,-5.3410863112321217e-05,0.00016532065526922391,0,70,255.0,255.0,255.0
483,24.150000000000002,-5.092793374753651,1.5035598677547772,-13.579378214917183,-0.05719385202585861,-0.14160488744954786,-0.7191757003987159,0.0020395307403843982,5.31544760038961e-05,-0.0004396768918234076,0,70,255.0,255.0,255.0
484,24.200000000000003,-5.095650197653701,1.4964797342276197,-13.615337801615542,-0.057072658219823644,-0.14159956559226974,-0.7192128091819844,0.0028082215010144067,0.0001597198151201134,-0.0010446744389160387,0,70,255.0,255.0,255.0
485,24.25,-5.0985,1.4894,-13.6513,-0.056913029875757186,-0.14158891546803581,-0.7192801678426075,0.003576912261644194,0.0002662851542365452,-0.0016496719860104037,0,70,255.0,255.0,255.0
486,24.3,-5.101341848521773,1.4823207983426887,-13.687265497728434,-0.056774274361509086,-0.1415809256314733,-0.7193282862210042,0.0019733083082795417,5.330830826464047e-05,-0.0002750631498574822,0,70,255.0,255.0,255.0
487,24.35,-5.1041787637727785,1.4752417299561476,-13.723231683114738,-0.05671569904492923,-0.14158358463720935,-0.7193076741575932,0.00036970435491488936,-0.00015966853770726426,0.0010995456862954393,0,70,255.0,255.0,255.0
488,24.400000000000002,-5.107014754762895,1.4681622623982624,-13.759195119636829,-0.056737303926017606,-0.141596892485244,-0.7192183316523747,-0.001233899598449763,-0.00037264538367916896,0.0024741545224483607,0,70,255.0,255.0,255.0
489,24.450000000000003,-5.109853830502008,1.4610818632269178,-13.795152370772614,-0.056839089004774204,-0.14162084917557727,-0.7190602587053484,-0.0028375035518144152,-0.0005856222296510737,0.003848763358601282,0,70,255.0,255.0,255.0
490,24.5,-5.1127,1.454,-13.8311,-0.057021054281199024,-0.14165545470820912,-0.7188334553165147,-0.004441107505178898,-0.0007985990756238515,0.005223372194749665,0,70,255.0,255.0,255.0
491,24.55,-5.115555851713004,1.4469165395749302,-13.867035582482998,-0.05719796653013618,-0.1416767511108708,-0.718598622651717,-0.0026353824523072966,-5.325703084339047e-05,0.004169934397157767,0,70,255.0,255.0,255.0
492,24.6,-5.118418291882136,1.4398329460072832,-13.902960740130004,-0.057284592526429756,-0.14166078041129343,-0.718416461876799,-0.0008296573994356947,0.0006920850139370705,0.003116496599565869,0,70,255.0,255.0,255.0
493,24.650000000000002,-5.1212828061947695,1.4327510826521712,-13.93887810653551,-0.05728093227007975,-0.1416075426094771,-0.7182869729917604,0.0009760676534359075,0.0014374270587175315,0.002063058801973971,0,70,255.0,255.0,255.0
494,24.700000000000003,-5.1241448803382665,1.425672812864706,-13.974790315294012,-0.05718698576108616,-0.1415170377054217,-0.7182101559966014,0.002781792706307509,0.0021827691034979925,0.0010096210043820733,0,70,255.0,255.0,255.0
495,24.75,-5.127,1.4186,-14.0107,-0.057002752999449006,-0.14138926569912733,-0.7181860108913222,0.004587517759179149,0.0029281111482777344,-4.3816793213302674e-05,0,70,255.0,255.0,255.0
496,24.8,-5.1298451446262145,1.4115338433575901,-14.046608972339577,-0.05681785951794417,-0.1412640699250424,-0.7181652231721264,0.00280822150101426,0.00207971981512015,0.0008753255610441843,0,70,255.0,255.0,255.0
497,24.85,-5.132683268698676,1.4044728860147178,-14.08251575636525,-0.056721930849347575,-0.14118129371761529,-0.7180984783352178,0.0010289252428493704,0.001231328481962566,0.0017944679153016714,0,70,255.0,255.0,255.0
498,24.900000000000002,-5.135518820458031,1.3974150069930507,-14.118418054221138,-0.05671496699365923,-0.1411409370768461,-0.7179857763805961,-0.0007503710153155185,0.0003829371488049821,0.0027136102695591584,0,70,255.0,255.0,255.0
499,24.950000000000003,-5.138356248144924,1.3903580853142556,-14.154313568051352,-0.05679696795087913,-0.1411430000027348,-0.7178271173082618,-0.0025296672734804087,-0.0004654541843526023,0.0036327526238166454,0,70,255.0,255.0,255.0
500,25.0,-5.1412,1.3833,-14.1902,-0.05696793372100725,-0.14118748249528135,-0.7176225011182147,-0.004308963531644894,-0.001313845517509904,0.004551894978073179,0,70,255.0,255.0,255.0
501,25.05,-5.144053169782141,1.3762392869947089,-14.226074928158699,-0.05714659539809373,-0.1412349691889604,-0.7173644846597963,-0.0028375035518142036,-0.0005856222296513177,0.005768763358663538,0,70,255.0,255.0,255.0
502,25.1,-5.14691343332316,1.3691771099338437,-14.261935434408999,-0.05725168407618868,-0.14124604471824648,-0.7170456247823483,-0.0013660435719835134,0.00014260105820726866,0.006985631739253896,0,70,255.0,255.0,255.0
503,25.150000000000002,-5.149777111973109,1.3621152893756239,-14.297778476579952,-0.057283199755292086,-0.14122070908313966,-0.7166659214858708,0.00010541640784717671,0.0008708243460658549,0.008202500119844254,0,70,255.0,255.0,255.0
504,25.200000000000003,-5.152640527082039,1.3550556458782692,-14.333601012500601,-0.05724114243540396,-0.1411589622836399,-0.7162253747703639,0.0015768763876778669,0.0015990476339244413,0.009419368500434613,0,70,255.0,255.0,255.0
505,25.25,-5.1555,1.348,-14.3694,-0.05712551211652431,-0.14106080431974719,-0.7157239846358273,0.003048336367508453,0.002327270921783642,0.01063623688102755,0,70,255.0,255.0,255.0
506,25.3,-5.1583525762452265,1.3409498086635738,-14.40517371502564,-0.05697975888967848,-0.14094805331911514,-0.7152408381886917,0.0027817927063245,0.0021827691034976373,0.008689621004397602,0,70,255.0,255.0,255.0
507,25.35,-5.161198198008686,1.3339050742499066,-14.440925705998767,-0.05684733284589185,-0.14084252740939743,-0.7148550225353876,0.0025152490451405473,0.002038267285211633,0.006743005127767654,0,70,255.0,255.0,255.0
508,25.400000000000002,-5.164037531649533,1.326865435504452,-14.476660839459077,-0.05672823398516442,-0.140744226590594,-0.7145665376759149,0.002248705383956595,0.001893765466925628,0.004796389251137706,0,70,255.0,255.0,255.0
509,25.450000000000003,-5.16687124352692,1.319830531172665,-14.512383981946257,-0.05662246230749619,-0.14065315086270486,-0.7143753836102738,0.001982161722772642,0.0017492636486396236,0.002849773374507758,0,70,255.0,255.0,255.0
510,25.5,-5.1697,1.3128,-14.5481,-0.05653001781288716,-0.14056930022573,-0.7142815603384642,0.0017156180615887084,0.0016047618303538513,0.0009031574978770607,0,70,255.0,255.0,255.0
511,25.55,-5.172524525236956,1.3057734783509953,-14.583811811738748,-0.0564543690431851,-0.14049281753457998,-0.7141681625854227,0.001310332726493829,0.001454545815647277,0.003632752623781282,0,70,255.0,255.0,255.0
512,25.6,-5.175345774642097,1.2987505930665295,-14.619514541595938,-0.05639898454023778,-0.14042384564416527,-0.7139182850760861,0.0009050473913989495,0.0013043298009407026,0.006362347749685504,0,70,255.0,255.0,255.0
513,25.650000000000002,-5.17816476142876,1.2917309686065663,-14.655201365583753,-0.056363864304045205,-0.1403623845544859,-0.7135319278104542,0.0004997620563040699,0.001154113786234128,0.009091942875589726,0,70,255.0,255.0,255.0
514,25.700000000000003,-5.180982498810281,1.2847142294310683,-14.690865459714379,-0.05634900833460737,-0.14030843426554185,-0.7130090907885271,9.447672120919048e-05,0.0010038977715275536,0.011821538001493947,0,70,255.0,255.0,255.0
515,25.75,-5.1838,1.2777,-14.7265,-0.056354416631924274,-0.14026199477733314,-0.7123497740103047,-0.0003108086138852717,0.0008536817568209898,0.01455113312740064,0,70,255.0,255.0,255.0
516,25.8,-5.186618122806946,1.2706882779324449,-14.762099838019367,-0.05637076493757935,-0.1402006765425645,-0.711654511469609,-0.00034312361231762003,0.0015990476339247657,0.013259368500427885,0,70,255.0,255.0,255.0
517,25.85,-5.1894371034229225,1.2636805534839743,-14.797666527617485,-0.056388728993156036,-0.14010209001394067,-0.711023837160262,-0.00037543861074996836,0.0023444135110285416,0.011967603873455131,0,70,255.0,255.0,255.0
518,25.900000000000002,-5.1922570226354265,1.2566786900692817,-14.833203298205918,-0.05640830879865435,-0.13996623519146165,-0.7104577510822635,-0.00040775360918231664,0.003089779388132317,0.010675839246482377,0,70,255.0,255.0,255.0
519,25.950000000000003,-5.195077961231954,1.2496845511030588,-14.868713379196235,-0.056429504354074275,-0.13979311207512743,-0.7099562532356137,-0.000440068607614665,0.003835145265236093,0.009384074619509623,0,70,255.0,255.0,255.0
520,26.0,-5.1979,1.2427,-14.9042,-0.0564523156594158,-0.13958272066493801,-0.7095193436203124,-0.0004723836060469555,0.004580511142339594,0.008092309992541402,0,70,255.0,255.0,255.0
521,26.05,-5.2007229835352575,1.2357262099192252,-14.939665636183783,-0.056462571206497544,-0.13937647629516353,-0.7091017915361365,6.21617227770508e-05,0.0036692636486394072,0.008609773374494275,0,70,255.0,255.0,255.0
522,26.1,-5.203545811666209,1.228761592997572,-14.975109747934129,-0.0564460994871381,-0.13921579430007405,-0.708658366282863,0.0005967070516010571,0.0027580161549392206,0.009127236756447147,0,70,255.0,255.0,255.0
523,26.150000000000002,-5.206367148029531,1.221803871116306,-15.010531041592586,-0.05640290050133744,-0.1391006746796696,-0.7081890678604918,0.0011312523804250635,0.0018467686612390344,0.00964470013840002,0,70,255.0,255.0,255.0
524,26.200000000000003,-5.209185656261902,1.2148507661566932,-15.045928223500695,-0.05633297424909559,-0.13903111743395016,-0.7076938962690229,0.0016657977092490697,0.0009355211675388477,0.010162163520352891,0,70,255.0,255.0,255.0
525,26.25,-5.212,1.2079,-15.0813,-0.056236320730412535,-0.13900712256291575,-0.7071728515084564,0.0022003430380733158,2.4273673838504095e-05,0.010679626902311945,0,70,255.0,255.0,255.0
526,26.3,-5.214809143052022,1.2009500823906538,-15.116644817245504,-0.056130950236430575,-0.13898141827678148,-0.7066103223858603,0.0020144767212049914,0.001003897771531928,0.011821538001530579,0,70,255.0,255.0,255.0
527,26.35,-5.217613249912239,1.1940026745257364,-15.151960080646006,-0.05603487305829204,-0.13890673278576257,-0.7059906977083034,0.001828610404336667,0.001983521869225352,0.012963449100749213,0,70,255.0,255.0,255.0
528,26.400000000000002,-5.220412785246449,1.187060225465492,-15.187242935423754,-0.055948089195996906,-0.13878306608985894,-0.7053139774757854,0.0016427440874683427,0.0029631459669187763,0.014105360199967847,0,70,255.0,255.0,255.0
529,26.450000000000003,-5.223208213720437,1.180125184270165,-15.222490526801003,-0.055870598649545196,-0.1386104181890707,-0.7045801616883066,0.0014568777706000186,0.0039427700646122,0.015247271299186481,0,70,255.0,255.0,255.0
530,26.5,-5.226,1.1732,-15.2577,-0.05580240141893691,-0.13838878908339775,-0.7037892503458667,0.0012710114537319295,0.0049223941623055545,0.016389182398409474,0,70,255.0,255.0,255.0
531,26.55,-5.228788444256655,1.166286260518159,-15.292869494834203,-0.055733627847783664,-0.1381698505977093,-0.703000918920418,0.001479931392398007,0.0038351452652318607,0.01514407461953267,0,70,255.0,255.0,255.0
532,26.6,-5.23157318868483,1.1593821088994816,-15.328001129481859,-0.0556544082796971,-0.13800527455687456,-0.7022748428839134,0.0016888513310640845,0.0027478963681581673,0.013898966840655867,0,70,255.0,255.0,255.0
533,26.650000000000002,-5.234353710984677,1.1524848270217238,-15.363098016712412,-0.05556474271467725,-0.1378950609608935,-0.7016110222363525,0.0018977712697301617,0.0016606474710844734,0.012653859061779063,0,70,255.0,255.0,255.0
534,26.700000000000003,-5.237129488856348,1.1455916967626443,-15.39816326929531,-0.05546463115272409,-0.13783920980976608,-0.7010094569777355,0.0021066912083962394,0.00057339857401078,0.011408751282902259,0,70,255.0,255.0,255.0
535,26.75,-5.2399,1.1387,-15.4332,-0.05535407359383763,-0.13783772110349243,-0.7004701471080624,0.002315611147062524,-0.0005138503230626146,0.010163643504022879,0,70,255.0,255.0,255.0
536,26.8,-5.242665079921357,1.1318080755367093,-15.468210003417683,-0.055254538372430266,-0.13782717933238053,-0.6999140019324549,0.001665797709232166,0.0009355211675389204,0.012082163520281802,0,70,255.0,255.0,255.0
537,26.85,-5.24542599534844,1.1249184898763374,-15.503189801426565,-0.05518749382291441,-0.13774416898673852,-0.6992619307560343,0.0010159842714018079,0.0023848926581404553,0.014000683536540725,0,70,255.0,255.0,255.0
538,26.900000000000002,-5.248184370814847,1.1180348664476107,-15.538134597726607,-0.05515293994529008,-0.1375886900665665,-0.6985139335788008,0.0003661708335714498,0.0038342641487419896,0.015919203552799646,0,70,255.0,255.0,255.0
539,26.950000000000003,-5.250941830854168,1.111160828679256,-15.573039596017766,-0.055150876739557264,-0.1373607425718643,-0.6976700104007543,-0.0002836426042589083,0.005283635639343525,0.01783772356905857,0,70,255.0,255.0,255.0
540,27.0,-5.2537,1.1043,-15.6079,-0.055181304205715966,-0.1370603265026321,-0.6967301612218949,-0.0009334560420889981,0.006733007129946067,0.019756243585317357,0,70,255.0,255.0,255.0
541,27.05,-5.256460036057917,1.0974550373350036,-15.642712091495067,-0.05521621866250308,-0.13674543207276815,-0.6957590733497807,-0.0004631222293953563,0.005862770064612187,0.01908727129924851,0,70,255.0,255.0,255.0
542,27.1,-5.2592212299214065,1.0906247315951687,-15.677476464811884,-0.0552276164286555,-0.13647404949617087,-0.6948214340919701,7.2115832982855635e-06,0.004992532999278307,0.018418299013179665,0,70,255.0,255.0,255.0
543,27.150000000000002,-5.261982405755939,1.0838069071878318,-15.712194792381169,-0.05521549750417325,-0.13624617877284032,-0.6939172434484627,0.0004775453959919274,0.004122295933944427,0.01774932672711082,0,70,255.0,255.0,255.0
544,27.200000000000003,-5.26474238772698,1.07699938852033,-15.746868746633638,-0.055179861889056304,-0.13606181990277644,-0.6930465014192589,0.0009478792086855693,0.003252058868610547,0.017080354441041973,0,70,255.0,255.0,255.0
545,27.25,-5.2675,1.0702,-15.7815,-0.055120709583304686,-0.13592097288597924,-0.6922092080043586,0.0014182130213796773,0.002381821803276951,0.016411382154976728,0,70,255.0,255.0,255.0
546,27.3,-5.270253975846977,1.0634069751232762,-15.816089630602054,-0.055032586977559854,-0.13579909237654705,-0.691369704668412,0.0021066912084135012,0.002493398574010321,0.01716875128288874,0,70,255.0,255.0,255.0
547,27.35,-5.273002684965934,1.0566201837429876,-15.8506363393259,-0.05491004046246333,-0.1356716330285782,-0.6904923328760697,0.002795169395447325,0.0026049753447436905,0.017926120410800748,0,70,255.0,255.0,255.0
548,27.400000000000002,-5.275744406161401,1.0498399048010605,-15.885138232748721,-0.05475307003801512,-0.1355385948420727,-0.6895770926273318,0.003483647582481149,0.0027165521154770603,0.01868348953871276,0,70,255.0,255.0,255.0
549,27.450000000000003,-5.278477418237913,1.0430664172394222,-15.919593417447699,-0.05456167570421521,-0.13539997781703048,-0.6886239839221984,0.004172125769514973,0.00282812888621043,0.01944085866662477,0,70,255.0,255.0,255.0
550,27.5,-5.2812,1.0363,-15.954,-0.05433585746106363,-0.13525578195345164,-0.6876330067606693,0.00486060395654897,0.00293970565694468,0.020198227794541168,0,70,255.0,255.0,255.0
551,27.55,-5.2839112605541745,1.029541062171891,-15.98835658609672,-0.0541254334272566,-0.13509819842104442,-0.6866341079765794,0.0035563573957322382,0.003363635639344548,0.019757723569054513,0,70,255.0,255.0,255.0
552,27.6,-5.286613630214861,1.0227905334328806,-16.022663777884514,-0.053980221721490404,-0.13491941838951718,-0.6856572344037638,0.002252110834915507,0.003787565621744416,0.019317219343567858,0,70,255.0,255.0,255.0
553,27.650000000000002,-5.289310369598458,1.0160494736079244,-16.05692267662395,-0.05390022234376505,-0.13471944185886997,-0.6847023860422227,0.0009478642740987754,0.004211495604144284,0.018876715118081203,0,70,255.0,255.0,255.0
554,27.700000000000003,-5.29200473932137,1.0093189425219788,-16.091134383575593,-0.053885435294080526,-0.13449826882910276,-0.6837695628919556,-0.0003563822867179564,0.004635425586544152,0.01843621089259455,0,70,255.0,255.0,255.0
555,27.75,-5.2947,1.0026,-16.1253,-0.053935860572436836,-0.13425589930021556,-0.6828587649529633,-0.0016606288475342623,0.005059355568944435,0.017995706667107036,0,70,255.0,255.0,255.0
556,27.8,-5.297398581936324,0.9958935761891585,-16.159420025011073,-0.054001679313408366,-0.13400011393927663,-0.6819338634252596,-0.0009721207913267041,0.00517205886861274,0.019000354441038262,0,70,255.0,255.0,255.0
557,27.85,-5.300099594174627,0.9892000825254884,-16.19349254913605,-0.05403307265156951,-0.13373869341335426,-0.6809587295088594,-0.0002836127351191458,0.005284762168281046,0.020005002214969488,0,70,255.0,255.0,255.0
558,27.900000000000002,-5.302801315444768,0.9825198007672392,-16.227515060755483,-0.05403004058692027,-0.13347163772244852,-0.6799333632037626,0.00040489532108841254,0.005397465467949352,0.021009649988900713,0,70,255.0,255.0,255.0
559,27.950000000000003,-5.305502024476606,0.9758530126726598,-16.26148504824995,-0.05399258311946067,-0.13319894686655934,-0.6788577645099694,0.0010934033772959707,0.005510168767617658,0.02201429776283194,0,70,255.0,255.0,255.0
560,28.0,-5.3082,0.9692,-16.2954,-0.053920700249190684,-0.13292062084568676,-0.6777319334274795,0.0017819114335035913,0.0056228720672855115,0.02301894553676309,0,70,255.0,255.0,255.0
561,28.05,-5.3108936117005285,0.9625606330714741,-16.329257713858983,-0.053819849319115105,-0.1326613458218493,-0.6765744383223941,0.0022521257695194818,0.00474812888621242,0.023280858666652374,0,70,255.0,255.0,255.0
