idx,t,px,py,pz,vx,vy,vz,ax,ay,az,yaw,mode,ledr,ledg,ledb
0,0.0,-1.5,-3.0,0.0,5.616396170880792e-19,8.99133668291981e-19,0.019030436778708193,-6.73967540505695e-18,-1.0789604019503773e-17,-0.5155652413444983,0,70,255.0,255.0,255.0
1,0.05,-1.5,-3.0,0.00030909572403349495,2.583542238605164e-19,4.136014874143112e-19,-0.006625999081794231,-5.39174032404556e-18,-8.631683215603018e-18,-0.5106921930755987,0,70,255.0,255.0,255.0
2,0.1,-1.5,-3.0,-0.000658539034622007,2.246558468352317e-20,3.596534673167906e-20,-0.03203878252885167,-4.0438052430341696e-18,-6.4737624117022635e-18,-0.505819144806699,0,70,255.0,255.0,255.0
3,0.15000000000000002,-1.5,-3.0,-0.002890721655294257,-1.4602630044290056e-19,-2.337747537559152e-19,-0.05720791356246414,-2.6958701620227797e-18,-4.3158416078015085e-18,-0.5009460965377992,0,70,255.0,255.0,255.0
4,0.2,-1.5,-3.0,-0.006375269517311004,-2.471214315187548e-19,-3.9561881404847194e-19,-0.08213339218263159,-1.3479350810113899e-18,-2.1579208039007535e-18,-0.49607304826889953,0,70,255.0,255.0,255.0
5,0.25,-1.5,-3.0,-0.0111,-2.808198085440396e-19,-4.495668341459905e-19,-0.1068152183893541,0.0,0.0,-0.4912000000000001,0,70,255.0,255.0,255.0
6,0.30000000000000004,-1.5,-3.0,-0.017052730482689002,-2.471214315187548e-19,-3.9561881404847156e-19,-0.13125339218263163,1.3479350810113912e-18,2.1579208039007565e-18,-0.48632695173110047,0,70,255.0,255.0,255.0
7,0.35000000000000003,-1.5,-3.0,-0.02422127834470575,-1.460263004429005e-19,-2.3377475375591493e-19,-0.15544791356246415,2.695870162022781e-18,4.315841607801511e-18,-0.48145390346220085,0,70,255.0,255.0,255.0
8,0.4,-1.5,-3.0,-0.032593460965378,2.2465584683523267e-20,3.596534673167944e-20,-0.1793987825288517,4.04380524303417e-18,6.473762411702265e-18,-0.4765808551933012,0,70,255.0,255.0,255.0
9,0.45,-1.5,-3.0,-0.042157095724033505,2.583542238605165e-19,4.1360148741431147e-19,-0.20310599908179428,5.39174032404556e-18,8.63168321560302e-18,-0.47170780692440156,0,70,255.0,255.0,255.0
10,0.5,-1.5,-3.0,-0.0529,5.616396170880792e-19,8.99133668291981e-19,-0.22656956322129185,6.739675405056951e-18,1.0789604019503772e-17,-0.4668347586555024,0,70,255.0,255.0,255.0
11,0.55,-1.5,-3.0,-0.06480937379327753,7.30131502214503e-19,1.1688737687795752e-18,-0.24975243218767942,-5.3926038442842604e-33,-9.244463733058732e-33,-0.4604799999999999,0,70,255.0,255.0,255.0
12,0.6000000000000001,-1.5,-3.0,-0.07786994758655505,5.616396170880787e-19,8.9913366829198e-19,-0.2726175632212919,-6.739675405056962e-18,-1.078960401950379e-17,-0.45412524134449744,0,70,255.0,255.0,255.0
13,0.65,-1.5,-3.0,-0.09206583448319379,5.616396170880778e-20,8.991336682919755e-20,-0.2951649563221292,-1.3479350810113902e-17,-2.1579208039007547e-17,-0.44777048268899494,0,70,255.0,255.0,255.0
14,0.7000000000000001,-1.5,-3.0,-0.10738114758655504,-7.862954639233124e-19,-1.2587871356087764e-18,-0.3173946114901913,-2.021902621517086e-17,-3.236881205851133e-17,-0.44141572403349244,0,70,255.0,255.0,255.0
15,0.75,-1.5,-3.0,-0.1238,-1.9657386598082772e-18,-3.1469678390219338e-18,-0.3393065287254784,-2.6958701620227804e-17,-4.3158416078015106e-17,-0.43506096537799177,0,70,255.0,255.0,255.0
16,0.8,-1.5,-3.0,-0.14130657434420096,-2.6734045773392572e-18,-4.279876261069831e-18,-0.36090487906665075,-1.3479350810113698e-18,-2.1579208039007226e-18,-0.42887304826890027,0,70,255.0,255.0,255.0
17,0.8500000000000001,-1.5,-3.0,-0.1598853313090742,-2.1005321679094145e-18,-3.3627599194120066e-18,-0.38219383355236847,2.4262831458205064e-17,3.884257447021366e-17,-0.42268513115980877,0,70,255.0,255.0,255.0
18,0.9,-1.5,-3.0,-0.1795208011018469,-2.47121431518754e-19,-3.9561881404846982e-19,-0.40317339218263154,4.987359799742145e-17,7.984306974432795e-17,-0.41649721405071727,0,70,255.0,255.0,255.0
19,0.9500000000000001,-1.5,-3.0,-0.20019751392974644,2.8868276318327323e-18,4.621547055020792e-18,-0.4238435549574402,7.548436453663788e-17,1.2084356501844234e-16,-0.41030929694162577,0,70,255.0,255.0,255.0
20,1.0,-1.5,-3.0,-0.2219,7.30131502214503e-18,1.1688737687795755e-17,-0.4442043218767942,1.0109513107585424e-16,1.618440602925566e-16,-0.4041213798325347,0,70,255.0,255.0,255.0
21,1.05,-1.5,-3.0,-0.24461232882991865,9.963486807142526e-18,1.5950631275499746e-17,-0.4642280515457176,5.391740324045479e-18,8.631683215602866e-18,-0.39682780692440206,0,70,255.0,255.0,255.0
22,1.1,-1.5,-3.0,-0.26831672717714833,7.840489054549576e-18,1.2551906009356043e-17,-0.48388710256923445,-9.031165042776328e-17,-1.4458069386135087e-16,-0.38953423401626946,0,70,255.0,255.0,255.0
23,1.1500000000000001,-1.5,-3.0,-0.29299496110941875,9.323217643661884e-19,1.492561889364641e-18,-0.5031814749473446,-1.8601504117957207e-16,-2.977930709383046e-16,-0.3822406611081368,0,70,255.0,255.0,255.0
24,1.2000000000000002,-1.5,-3.0,-0.3186287966944594,-1.0761015063407645e-17,-1.7227401084474436e-17,-0.5221111686800481,-2.8171843193138083e-16,-4.510054480152583e-16,-0.3749470882000042,0,70,255.0,255.0,255.0
25,1.25,-1.5,-3.0,-0.3452,-2.723952142877184e-17,-4.360798291216109e-17,-0.5406761837673449,-3.774218226831892e-16,-6.042178250922113e-16,-0.3676535152918694,0,70,255.0,255.0,255.0
26,1.3,-1.5,-3.0,-0.3726913103361245,-3.7180542651230844e-17,-5.952264884092914e-17,-0.558934914750479,-2.0219026215170548e-17,-3.236881205851083e-17,-0.36269572403349154,0,70,255.0,255.0,255.0
27,1.35,-1.5,-3.0,-0.4010893599823326,-2.926142405028889e-17,-4.6844864118012166e-17,-0.5769457561706941,3.369837702528481e-16,5.394802009751897e-16,-0.3577379327751137,0,70,255.0,255.0,255.0
28,1.4000000000000001,-1.5,-3.0,-0.43038175446047855,-3.4821656259459936e-18,-5.574628743410142e-18,-0.5947087080279904,6.941865667208668e-16,1.1113292140088903e-15,-0.3527801415167358,0,70,255.0,255.0,255.0
29,1.4500000000000002,-1.5,-3.0,-0.4605560992924164,4.0157232621797845e-17,6.428805728287697e-17,-0.6122237703223677,1.0513893631888854e-15,1.6831782270425906e-15,-0.34782235025835795,0,70,255.0,255.0,255.0
30,1.5,-1.5,-3.0,-0.4916,1.0165677069294233e-16,1.627431939608486e-16,-0.629490943053826,1.408592159656903e-15,2.2550272400762888e-15,-0.34286455899998103,0,70,255.0,255.0,255.0
31,1.55,-1.5,-3.0,-0.5235000298255836,1.3875868379778086e-16,2.2213996408821687e-16,-0.6464482894523663,7.548436453663691e-17,1.2084356501844037e-16,-0.33542929694162776,0,70,255.0,255.0,255.0
32,1.6,-1.5,-3.0,-0.5562386328935215,1.0920520714660602e-16,1.7482755046269263e-16,-0.6630338727479889,-1.2576234305836292e-15,-2.013340110039408e-15,-0.32799403488327455,0,70,255.0,255.0,255.0
33,1.6500000000000001,-1.5,-3.0,-0.5897972210486673,1.2996340739417798e-17,2.080595308427582e-17,-0.6792476929406938,-2.590731225703895e-15,-4.1475237850972564e-15,-0.3205587728249213,0,70,255.0,255.0,255.0
34,1.7000000000000002,-1.5,-3.0,-0.6241572061358756,-1.498679154237837e-16,-2.399248280470334e-16,-0.695089750030481,-3.923839020824161e-15,-6.281707460155105e-15,-0.3131235107665681,0,70,255.0,255.0,255.0
35,1.75,-1.5,-3.0,-0.6593,-3.793875613429975e-16,-6.073647929312333e-16,-0.7105600440173506,-5.2569468159444205e-15,-8.415891135212944e-15,-0.30568824870821576,0,70,255.0,255.0,255.0
36,1.8,-1.5,-3.0,-0.6952077703615411,-5.178541925398926e-16,-8.290372075119383e-16,-0.7257039274400561,-2.817184319313757e-16,-4.510054480152522e-16,-0.30006708820000244,0,70,255.0,255.0,255.0
37,1.85,-1.5,-3.0,-0.7318657084435821,-4.0755940453613516e-16,-6.524653377327585e-16,-0.7405667528373509,4.693509952081669e-15,7.51388023918244e-15,-0.2944459276917891,0,70,255.0,255.0,255.0
38,1.9000000000000001,-1.5,-3.0,-0.7692597613448527,-4.8503197331725236e-17,-7.764918359369346e-17,-0.755148520209235,9.668738336094714e-15,1.5478765926380132e-14,-0.2888247671835758,0,70,255.0,255.0,255.0
39,1.9500000000000002,-1.4999999999999998,-3.0,-0.8073758761640821,5.593144290733369e-16,8.95411254905256e-16,-0.7694492295557086,1.464396672010776e-14,2.3443651613577825e-14,-0.2832036066753625,0,70,255.0,255.0,255.0
40,2.0,-1.5,-3.0,-0.8462,1.4158934746790476e-15,2.2667159777640844e-15,-0.7834688808767714,1.961919510412078e-14,3.140853730077548e-14,-0.27758244616715366,0,70,255.0,255.0,255.0
41,2.0500000000000003,-1.5,-3.0,-0.8857176887282523,1.9326580863617894e-15,3.094008865959536e-15,-0.7971840007874093,1.0513893631887825e-15,1.6831782270424242e-15,-0.27102235025835986,0,70,255.0,255.0,255.0
42,2.1,-1.4999999999999998,-2.9999999999999996,-0.9259129333321503,1.5210324109979344e-15,2.43503380046834e-15,-0.8105711159026073,-1.7516416377743046e-14,-2.8042180846690366e-14,-0.2644622543495661,0,70,255.0,255.0,255.0
43,2.15,-1.4999999999999998,-2.9999999999999996,-0.9667693335719221,1.810164485874907e-16,2.8979078129050956e-16,-0.8236302262223658,-3.6084222118674884e-14,-5.776753992042316e-14,-0.2579021584407723,0,70,255.0,255.0,255.0
44,2.2,-1.4999999999999998,-3.0,-1.0082704892077965,-2.0873898008695647e-15,-3.3417201915739946e-15,-0.8363613317466846,-5.465202785960687e-14,-8.749289899415621e-14,-0.2513420625319785,0,70,255.0,255.0,255.0
45,2.25,-1.5,-3.0,-1.0504,-5.284186337373193e-15,-8.459499118125104e-15,-0.8487644324755638,-7.321983360053872e-14,-1.1721825806788902e-13,-0.24478196662319274,0,70,255.0,255.0,255.0
46,2.3000000000000003,-1.5000000000000002,-3.0000000000000004,-1.0931414747254504,-7.212778152907265e-15,-1.154699825632621e-14,-0.8608400694103079,-3.9238390208238016e-15,-6.281707460154508e-15,-0.23824351076657152,0,70,255.0,255.0,255.0
47,2.35,-1.5000000000000007,-3.000000000000001,-1.136478558227817,-5.6765702394556045e-15,-9.087669864140605e-15,-0.8725887835522209,6.537215555889051e-14,1.0465484314757902e-13,-0.23170505490995036,0,70,255.0,255.0,255.0
48,2.4000000000000004,-1.5000000000000009,-3.0000000000000013,-1.1803949043674586,-6.755625970181789e-16,-1.0815139415682482e-15,-0.884010574901303,1.3466815013860542e-13,2.155913937553135e-13,-0.22516659905332914,0,70,255.0,255.0,255.0
49,2.45,-1.5000000000000009,-3.000000000000001,-1.2248741670047336,7.79024477440492e-15,1.2471469511390716e-14,-0.8951054434575539,2.0396414471831973e-13,3.2652794436304706e-13,-0.21862814319670798,0,70,255.0,255.0,255.0
50,2.5,-1.5,-3.0,-1.2699,1.9720851874813724e-14,3.157128049473633e-14,-0.9058733892209737,2.7326013929803414e-13,4.3746449497078046e-13,-0.21208968734009037,0,70,255.0,255.0,255.0
51,2.5500000000000003,-1.4999999999999987,-2.999999999999998,-1.3154564123699468,2.6918454525267276e-14,4.30939841593453e-14,-0.91633572157136,1.4643966720106446e-14,2.3443651613575512e-14,-0.20640360667536028,0,70,255.0,255.0,255.0
52,2.6,-1.4999999999999976,-2.999999999999996,-1.3615288337565823,2.1185248546824483e-14,3.391564565609407e-14,-0.9265137498885098,-2.4397220585781893e-13,-3.905771917436257e-13,-0.20071752601063028,0,70,255.0,255.0,255.0
53,2.6500000000000004,-1.499999999999997,-2.9999999999999947,-1.4081030489582442,2.5212339394852464e-15,4.03626498498251e-15,-0.936407474172423,-5.025883784357466e-13,-8.045980351008306e-13,-0.1950314453459002,0,70,255.0,255.0,255.0
54,2.7,-1.4999999999999973,-2.999999999999996,-1.4551648427732706,-2.907358929675011e-14,-4.654415785398888e-14,-0.9460168944230999,-7.61204551013672e-13,-1.2186188784580319e-12,-0.1893453646811702,0,70,255.0,255.0,255.0
55,2.75,-1.5,-3.0,-1.5027,-7.359922116188171e-14,-1.1782562286082022e-13,-0.95534201064054,-1.0198207235915974e-12,-1.6326397218152331e-12,-0.18365928401644194,0,70,255.0,255.0,255.0
56,2.8000000000000003,-1.5000000000000047,-3.0000000000000075,-1.5506936757947625,-1.0046103994816184e-13,-1.6082893838105497e-13,-0.9643450443042507,-5.465202785960148e-14,-8.74928989941481e-14,-0.17646206253198407,0,70,255.0,255.0,255.0
57,2.85,-1.5000000000000093,-3.0000000000000147,-1.5991285067458547,-7.906442394784231e-14,-1.2657491276023571e-13,-0.9729882168937385,9.105166678723855e-13,1.4576539238269232e-12,-0.16926484104752626,0,70,255.0,255.0,255.0
58,2.9000000000000004,-1.5000000000000118,-3.0000000000000187,-1.6479864997995661,-9.409373160922766e-15,-1.5063545998361788e-14,-0.9812715284090034,1.8756853636043816e-12,3.0028007466480086e-12,-0.1620676195630684,0,70,255.0,255.0,255.0
59,2.95,-1.5000000000000093,-3.000000000000015,-1.6972496619021848,1.0850411241259557e-13,1.7370516190456472e-13,-0.9891949788500453,2.8408540593363685e-12,4.5479475694690795e-12,-0.1548703980786106,0,70,255.0,255.0,255.0
60,3.0,-1.5,-3.0,-1.7469,2.746760327727131e-13,4.397312109485446e-13,-0.9967585682168644,3.806022755068356e-12,6.09309439229015e-12,-0.14767317659415102,0,70,255.0,255.0,255.0
61,3.0500000000000003,-1.4999999999999831,-2.9999999999999725,-1.7969200844510038,3.7492570526738006e-13,6.002217693648745e-13,-1.0039961012116358,2.0396414471830057e-13,3.265279443630156e-13,-0.14182814319671253,0,70,255.0,255.0,255.0
62,3.1,-1.4999999999999654,-2.9999999999999445,-1.847294739259999,2.950724472445448e-13,4.723840053848488e-13,-1.0109413825365356,-3.3980944656317234e-12,-5.440038503564069e-12,-0.13598310979927408,0,70,255.0,255.0,255.0
63,3.1500000000000004,-1.4999999999999565,-2.9999999999999303,-1.898009351843493,3.5116258704205816e-14,5.6217919008464605e-14,-1.0175944121915634,-7.000153075981778e-12,-1.1206604951491202e-11,-0.13013807640183556,0,70,255.0,255.0,255.0
64,3.2,-1.4999999999999651,-2.999999999999944,-1.949049309617991,-4.0494286035363224e-13,-6.482764897642697e-13,-1.0239551901767192,-1.0602211686331803e-11,-1.6973171399418288e-11,-0.12429304300439711,0,70,255.0,255.0,255.0
65,3.25,-1.5,-3.0,-2.0004,-1.0251049099289707e-12,-1.641099220933358e-12,-1.030023716492003,-1.4204270296681828e-11,-2.2739737847345376e-11,-0.11844800960695778,0,70,255.0,255.0,255.0
66,3.3000000000000003,-1.5000000000000635,-3.0000000000001017,-2.0520467864012235,-1.3992417811213585e-12,-2.2400581390784438e-12,-1.0357985508492062,-7.612045510135998e-13,-1.2186188784579171e-12,-0.11254536468116709,0,70,255.0,255.0,255.0
67,3.35,-1.5000000000001288,-3.000000000000206,-2.1039749362141493,-1.1012253650303367e-12,-1.7629611087791593e-12,-1.0412782529601197,1.2681861194654509e-11,2.0302500090429348e-11,-0.10664271975537644,0,70,255.0,255.0,255.0
68,3.4000000000000004,-1.5000000000001623,-3.00000000000026,-2.156169692826464,-1.3105566165590052e-13,-2.0980813003549754e-13,-1.0464628228247437,2.6124926940322735e-11,4.1823619059316804e-11,-0.10074007482958575,0,70,255.0,255.0,255.0
69,3.45,-1.5000000000001306,-3.000000000000209,-2.2086162996258523,1.5112673290019333e-12,2.419400797152516e-12,-1.0513522604430783,3.9567992685990843e-11,6.334473802820407e-11,-0.0948374299037951,0,70,255.0,255.0,255.0
70,3.5,-1.5,-3.0,-2.2613,3.82574360694317e-12,6.124665672784888e-12,-1.0559465658151233,5.3011058431658965e-11,8.486585699709134e-11,-0.088934784978008,0,70,255.0,255.0,255.0
71,3.5500000000000003,-1.4999999999997635,-2.9999999999996207,-2.314205569944104,5.222041419218054e-12,8.3600107869489e-12,-1.0602176953915388,2.840854059336097e-12,4.547947569468651e-12,-0.08191039807861099,0,70,255.0,255.0,255.0
72,3.6,-1.4999999999995195,-2.999999999999231,-2.3673159158834043,4.109829012876804e-12,6.5794604297317875e-12,-1.0641376056229843,-4.732935031298632e-11,-7.576996185815334e-11,-0.07488601117921403,0,70,255.0,255.0,255.0
73,3.6500000000000004,-1.4999999999993943,-2.99999999999903,-2.4206134768506535,4.891063879193948e-13,7.830146011335264e-13,-1.0677062965094601,-9.74995546853092e-11,-1.56087871285776e-10,-0.06786162427981703,0,70,255.0,255.0,255.0
74,3.7,-1.4999999999995124,-2.9999999999992197,-2.474080691878601,-5.640126455654101e-12,-9.029326698845791e-12,-1.070923768050966,-1.476697590576316e-10,-2.36405780713398e-10,-0.06083723738042008,0,70,255.0,255.0,255.0
75,3.75,-1.5,-3.0,-2.5277,-1.427786951784371e-11,-2.2857563470206193e-11,-1.0737900202475021,-1.9783996342995398e-10,-3.167236901410199e-10,-0.05381285048101958,0,70,255.0,255.0,255.0
76,3.8000000000000003,-1.5000000000008833,-3.000000000001414,-2.5814541338223616,-1.9488923895750858e-11,-3.119998500871715e-11,-1.0763226675846376,-1.0602211686330816e-11,-1.6973171399416614e-11,-0.047493043004398286,0,70,255.0,255.0,255.0
77,3.85,-1.5000000000017928,-3.00000000000287,-2.635327000252233,-1.5338090686476878e-11,-2.455488061014799e-11,-1.078539324547942,1.766355400572907e-10,2.8277734734218397e-10,-0.04117323552777704,0,70,255.0,255.0,255.0
78,3.9000000000000004,-1.500000000002261,-3.0000000000036193,-2.6893027997709247,-1.825369890021689e-12,-2.9222502744985885e-12,-1.0804399911374154,3.6387329180091383e-10,5.825278660837873e-10,-0.03485342805115574,0,70,255.0,255.0,255.0
79,3.95,-1.5000000000018192,-3.000000000002913,-2.7433657328597443,2.104923849361446e-11,3.369790599823065e-11,-1.0820246673530576,5.511110435445354e-10,8.822783848253879e-10,-0.028533620574534502,0,70,255.0,255.0,255.0
80,4.0,-1.5,-3.0,-2.7975,5.328573446443167e-11,8.530558820803988e-11,-1.0832933531948687,7.383487952881569e-10,1.1820289035669883e-09,-0.022213813097916812,0,70,255.0,255.0,255.0
81,4.05,-1.4999999999967037,-2.9999999999947233,-2.851689894766451,7.273365416378535e-11,1.164399292479197e-10,-1.0842516342699118,3.9567992685993215e-11,6.334473802820794e-11,-0.016117429903803094,0,70,255.0,255.0,255.0
82,4.1000000000000005,-1.499999999993309,-2.9999999999892886,-2.9059200831076635,5.7242533733030394e-11,9.164006201085971e-11,-1.084905096185249,-6.592128099161829e-10,-1.0553394275105922e-09,-0.010021046709689264,0,70,255.0,255.0,255.0
83,4.15,-1.4999999999915619,-2.9999999999864913,-2.9601753240656485,6.81237317216735e-12,1.0905986496860834e-11,-1.0852537389408805,-1.3579936125183468e-09,-2.1740235930493728e-09,-0.003924663515575546,0,70,255.0,255.0,255.0
84,4.2,-1.4999999999932099,-2.99999999998913,-3.0144403766824226,-7.85568275188038e-11,-1.2576229729407678e-10,-1.0852975625368066,-2.0567744151205103e-09,-3.2927077585881527e-09,0.002171719678538176,0,70,255.0,255.0,255.0
85,4.25,-1.5,-3.0,-3.0687,-1.9886506833988296e-10,-3.183647893619533e-10,-1.0850365669730269,-2.7555552177226735e-09,-4.4113919241269326e-09,0.008268102872651895,0,70,255.0,255.0,255.0
86,4.3,-1.5000000000123008,-3.000000000019693,-3.122939087111833,-2.714456927593906e-10,-4.345597319829615e-10,-1.0844787953357207,-1.476697590576402e-10,-2.364057807134121e-10,0.014042762619595073,0,70,255.0,255.0,255.0
87,4.3500000000000005,-1.5000000000249714,-3.000000000039977,-3.1771430673171173,-2.1363204424564476e-10,-3.420053674332909e-10,-1.0836322907110671,2.4602156996074394e-09,3.938580362700183e-09,0.019817422366538356,0,70,255.0,255.0,255.0
88,4.4,-1.500000000031491,-3.0000000000504143,-3.231297503966484,-2.5424122798647576e-11,-4.0701695712944774e-11,-1.082497053099067,5.068101158272473e-09,8.113566506113703e-09,0.025592082113481535,0,70,255.0,255.0,255.0
89,4.45,-1.5000000000253404,-3.0000000000405675,-3.2853879604105676,2.9317807158160066e-10,4.693512831780765e-10,-1.0810730824997192,7.675986616937507e-09,1.2288552649527222e-08,0.03136674186042472,0,70,255.0,255.0,255.0
90,4.5,-1.5,-3.0,-3.3394,7.421745388951001e-10,1.1881535692397733e-09,-1.0793603789130246,1.0283872075602535e-08,1.6463538792940748e-08,0.03714140160736967,0,70,255.0,255.0,255.0
91,4.55,-1.4999999999540918,-2.999999999926505,-3.393318556786218,1.0130491168737767e-09,1.6217989986839263e-09,-1.0773211843872037,5.511110435445676e-10,8.822783848254414e-10,0.044426379425466296,0,70,255.0,255.0,255.0
92,4.6000000000000005,-1.4999999999068057,-2.9999999998508047,-3.4471260476238728,7.972856432495483e-10,1.2763814077223042e-09,-1.074917740970478,-9.181649988513575e-09,-1.4698982023290136e-08,0.05171135724356305,0,70,255.0,255.0,255.0
93,4.65,-1.4999999998824738,-2.999999999811851,-3.5008042600684175,9.488411802242306e-11,1.5190079635491873e-10,-1.0721500486628475,-1.8914411020571544e-08,-3.028024243140544e-08,0.058996335061659674,0,70,255.0,255.0,255.0
94,4.7,-1.499999999905428,-2.9999999998485984,-3.5543349816753085,-1.0941554588075988e-09,-1.7516428354182302e-09,-1.069018107464312,-2.8647172052629512e-08,-4.5861502839520755e-08,0.0662813128797563,0,70,255.0,255.0,255.0
95,4.75,-1.5,-3.0,-3.6077,-2.7698330872405173e-09,-4.43424948759714e-09,-1.0655219173748716,-3.8379933084687484e-08,-6.144276324763605e-08,0.07356629069785825,0,70,255.0,255.0,255.0
96,4.800000000000001,-1.500000000171332,-3.000000000274287,-3.6608818857432968,-3.780750774735719e-09,-6.052636262752747e-09,-1.0617084671154622,-2.056774415119992e-09,-3.2927077585873263e-09,0.07897171967852196,0,70,255.0,255.0,255.0
97,4.8500000000000005,-1.5000000003478058,-3.0000000005568053,-3.713866342187396,-2.9755105287525507e-09,-4.7635202634559255e-09,-1.0576247454070193,3.426638425444685e-08,5.485734773046037e-08,0.08437714865918557,0,70,255.0,255.0,255.0
98,4.9,-1.5000000004386136,-3.00000000070218,-3.7666398557598475,-3.541123492910463e-10,-5.66901489706731e-10,-1.0532707522495435,7.058954292401369e-08,1.1300740321950807e-07,0.08978257763984918,0,70,255.0,255.0,255.0
99,4.95,-1.5000000003529477,-3.000000000565037,-3.8191889128881993,4.083443763648795e-09,6.5372200584948396e-09,-1.0486464876430344,1.0691270159358052e-07,1.7115745870855576e-07,0.09518800662051279,0,70,255.0,255.0,255.0
100,5.0,-1.5,-3.0,-3.8715,1.033715781006697e-08,1.6548844381148787e-08,-1.0437519515874922,1.4323586026314738e-07,2.2930751419760348e-07,0.10059343560117284,0,70,255.0,255.0,255.0
101,5.050000000000001,-1.4999999993605806,-2.999999998976348,-3.923558700240599,1.4109953982069097e-08,2.2588746052327065e-08,-1.038532947150952,7.675986616935571e-09,1.2288552649524162e-08,0.10816674186043908,0,70,255.0,255.0,255.0
102,5.1000000000000005,-1.4999999987019712,-2.9999999979219747,-3.9753469836265465,1.1104756471760654e-08,1.77776996461014e-08,-1.0329352774014484,-1.278838870292738e-07,-2.047304088985513e-07,0.11574004811970519,0,70,255.0,255.0,255.0
103,5.15,-1.4999999983630714,-2.9999999973794274,-4.026845916892194,1.3215652791417597e-09,2.1157051624720027e-09,-1.0269589423389813,-2.6344376067548317e-07,-4.217493704466268e-07,0.1233133543789713,0,70,255.0,255.0,255.0
104,5.2,-1.4999999986827812,-2.9999999978912535,-4.078036566771894,-1.5239619595787573e-08,-2.4397237398561126e-08,-1.0206039419635513,-3.9900363432169254e-07,-6.387683319947023e-07,0.1308866606382374,0,70,255.0,255.0,255.0
105,5.25,-1.5,-3.0,-4.1289,-3.857879815302736e-08,-6.176112803699801e-08,-1.013870276275158,-5.34563507967902e-07,-8.557872935427777e-07,0.13845996689749462,0,70,255.0,255.0,255.0
106,5.300000000000001,-1.5000000023863458,-3.0000000038203214,-4.17941851329431,-5.265906515354067e-08,-8.43023479465555e-08,-1.0068317442807264,-2.8647172052622392e-08,-4.5861502839509135e-08,0.14308131287975784,0,70,255.0,255.0,255.0
107,5.3500000000000005,-1.5000000048443096,-3.000000007755297,-4.229579323306421,-4.144351535829007e-08,-6.634727832094966e-08,-0.9995621449871821,4.772691638626483e-07,7.640642878637451e-07,0.14770265886202094,0,70,255.0,255.0,255.0
108,5.4,-1.5000000061091003,-3.000000009780111,-4.2793708766713765,-4.932148767276022e-09,-7.89591916018124e-09,-0.9920614783945244,9.83185499777919e-07,1.5739900785669995e-06,0.15232400484428407,0,70,255.0,255.0,255.0
109,5.45,-1.5000000049159274,-3.00000000786995,-4.3287816200242215,5.6875034619501503e-08,9.105172953574973e-08,-0.9843297445027538,1.4891018356931898e-06,2.3839158692702535e-06,0.15694535082654718,0,70,255.0,255.0,255.0
110,5.5,-1.5,-3.0,-4.3778,1.4397803480204246e-07,2.3049566776684324e-07,-0.9763669433118699,1.9950181716084605e-06,3.1938416599735075e-06,0.1615666968088112,0,70,255.0,255.0,255.0
111,5.550000000000001,-1.4999999910940363,-2.9999999857423663,-4.426412846582162,1.9652630663209354e-07,3.146206457338949e-07,-0.968076075726137,1.0691270159355368e-07,1.7115745870851235e-07,0.17006800662050162,0,70,255.0,255.0,255.0
112,5.6000000000000005,-1.4999999819207908,-2.9999999710568392,-4.474600523147771,1.5466930496139959e-07,2.476114136376973e-07,-0.9593601426498196,-1.7811927684213197e-06,-2.8515267425564286e-06,0.1785693164321919,0,70,255.0,255.0,255.0
113,5.65,-1.4999999772005268,-2.9999999635001284,-4.522341776422299,1.8407029789962236e-08,2.946797147825297e-08,-0.9502191440829179,-3.6692982384361927e-06,-5.87421094382137e-06,0.18707062624388218,0,70,255.0,255.0,255.0
114,5.7,-1.4999999816535088,-2.9999999706289455,-4.56961535313122,-2.1226051888221837e-07,-3.3980968074443764e-07,-0.9406530800254315,-5.557403708451066e-06,-8.896895145086313e-06,0.19557193605557244,0,70,255.0,255.0,255.0
115,5.75,-1.5,-3.0,-4.6164,-5.373333410551424e-07,-8.60221543030375e-07,-0.9306619504773607,-7.445509178465941e-06,-1.1919579346351255e-05,0.2040732458672645,0,70,255.0,255.0,255.0
116,5.800000000000001,-1.5000000332375094,-3.0000000532102136,-4.662676500377047,-7.334461613748336e-07,-1.1741802349890243e-06,-0.9203679528147233,-3.9900363432159317e-07,-6.387683319945422e-07,0.20768666063822488,0,70,255.0,255.0,255.0
117,5.8500000000000005,-1.5000000674725282,-3.000000108017348,-4.708433784102497,-5.772337044873082e-07,-9.240983762298394e-07,-0.9098932844135381,6.6475019098226294e-06,1.064204268236197e-05,0.2113000754091852,0,70,255.0,255.0,255.0
118,5.9,-1.500000085088792,-3.0000001362193753,-4.753662817639424,-6.869597039257316e-08,-1.0997596675283067e-07,-0.8992379452738049,1.3694007453966851e-05,2.1922853696718485e-05,0.21491349018014552,0,70,255.0,255.0,255.0
119,5.95,-1.5000000684700372,-3.0000001096142683,-4.7983545674509,7.921670409093721e-07,1.268186993442001e-06,-0.8884019353955236,2.0740512998111074e-05,3.3203664711075e-05,0.21852690495110583,0,70,255.0,255.0,255.0
120,6.0,-1.5,-3.0,-4.8425,2.0053553294185274e-06,3.2103905043546566e-06,-0.8773852547786942,2.7787018542255296e-05,4.448447572543149e-05,0.22214031972206882,0,70,255.0,255.0,255.0
121,6.050000000000001,-1.4999998759559257,-2.99999980141678,-4.8860875519096565,2.737258338867241e-06,4.382100294222202e-06,-0.8660361130149783,1.4891018356928143e-06,2.3839158692696394e-06,0.2318253508265604,0,70,255.0,255.0,255.0
122,6.1000000000000005,-1.4999997481890968,-2.9999995968737703,-4.929095540442245,2.1542655129878332e-06,3.44878209128166e-06,-0.8542027196960381,-2.48088148708692e-05,-3.9716643986891466e-05,0.24151038193105176,0,70,255.0,255.0,255.0
123,6.15,-1.4999996824443051,-2.9999994916223707,-4.971499753020006,2.5637685178032887e-07,4.1043589553307066e-07,-0.8418850748218732,-5.1106731577431225e-05,-8.181720384305256e-05,0.25119541303554316,0,70,255.0,255.0,255.0
124,6.2,-1.499999744466342,-2.9999995909139807,-5.013275977065178,-2.956407644755271e-06,-4.732938293023566e-06,-0.8290831783924839,-7.740464828399324e-05,-0.00012391776369921365,0.26088044414003453,0,70,255.0,255.0,255.0
125,6.25,-1.5,-3.0,-5.0544,-7.484087976618967e-06,-1.198134047438825e-05,-0.8157970304078699,-0.00010370256499055523,-0.0001660183235553747,0.2705654752445277,0,70,255.0,255.0,255.0
126,6.300000000000001,-1.5000004629387877,-3.0000007411226663,-5.094851691984334,-1.0215587194094129e-05,-1.6354220941899778e-05,-0.8022715951253668,-5.55740370844966e-06,-8.896895145084024e-06,0.2704519360555864,0,70,255.0,255.0,255.0
127,6.3500000000000005,-1.500000939771085,-3.0000015044875705,-5.134627254128528,-8.039828347464022e-06,-1.2871029988896799e-05,-0.7887518368023112,9.258775757365414e-05,0.00014822453326520383,0.27033839686664507,0,70,255.0,255.0,255.0
128,6.4,-1.500001185133988,-3.0000018972911415,-5.173726970280556,-9.56811436728745e-07,-1.5317676153794524e-06,-0.7752377554387024,0.00019073291885575796,0.0003053459616754917,0.27022485767770377,0,70,255.0,255.0,255.0
129,6.45,-1.5000009536645944,-3.0000015267298084,-5.212151124288389,1.1033463538111704e-05,1.7663566178652257e-05,-0.7617293510345408,0.0002888780801378618,0.00046246739008577953,0.27011131848876246,0,70,255.0,255.0,255.0
130,6.5,-1.5,-3.0,-5.2499,2.793099657705734e-05,4.471497139319834e-05,-0.7482266235898262,0.0003870232414199656,0.0006195888184960675,0.26999777929982205,0,70,255.0,255.0,255.0
131,6.550000000000001,-1.499998272288923,-2.9999972340925543,-5.286963280153012,3.812509043750927e-05,6.1034783473376926e-05,-0.7340935064835529,2.074051299810585e-05,3.3203664711066666e-05,0.2953269049510988,0,70,255.0,255.0,255.0
132,6.6000000000000005,-1.4999964927265632,-2.9999943851759476,-5.323288243043646,3.0005047876868263e-05,4.803533786430556e-05,-0.7186939330947162,-0.0003455422154237474,-0.0005531814890739237,0.3206560306023751,0,70,255.0,255.0,255.0
133,6.65,-1.4999955770197422,-2.9999929192130628,-5.358811565857774,3.570868895134643e-06,5.71663456598473e-06,-0.7020279034233156,-0.0007118249438456006,-0.0011395666428589142,0.3459851562536514,0,70,255.0,255.0,255.0
134,6.7,-1.4999964408752808,-2.999994302166786,-5.393469925781268,-4.117744650769154e-05,-6.592132642158549e-05,-0.6840954174693512,-0.001078107672267454,-0.0017259517966439046,0.37131428190492766,0,70,255.0,255.0,255.0
135,6.75,-1.5,-3.0,-5.4272,-0.00010423989833161038,-0.0001668785450984051,-0.6648964752328229,-0.0014443904006893075,-0.002312336950428895,0.39664340755620753,0,70,255.0,255.0,255.0
136,6.800000000000001,-1.5000064479055206,-3.0000111225071153,-5.45993438740362,-0.00014228477455594294,-0.0002757849129517106,-0.6441863789404166,-7.74046482839737e-05,-0.002043917763703262,0.4317604441400309,0,70,255.0,255.0,255.0
137,6.8500000000000005,-1.500013089322662,-3.0000273548086396,-5.49158937369689,-0.00011198036316000903,-0.0003712703214687326,-0.6217204308188197,0.0012895811041213358,-0.001775498576977633,0.46687748072385366,0,70,255.0,255.0,255.0
138,6.9,-1.500016506787043,-3.0000480258566062,-5.522077166288349,-1.33266641438098e-05,-0.0004533347706494733,-0.5974986308680315,0.0026565668565266456,-0.0015070793902520043,0.5019945173076764,0,70,255.0,255.0,255.0
139,6.95,-1.5000132828342827,-3.0000724646030488,-5.551309972586538,0.0001536763224926546,-0.0005219782604939325,-0.5715209790880521,0.004023552608931955,-0.0012386602035263754,0.5371115538914992,0,70,255.0,255.0,255.0
140,7.0,-1.5,-3.0001,-5.5792,0.0003890285967493842,-0.0005772007910021103,-0.5437874754788817,0.005390538361337263,-0.0009702410168007467,0.5722285904753237,0,70,255.0,255.0,255.0
141,7.050000000000001,-1.4999743360889948,-3.000130275878985,-5.605686370232512,0.0006270140077862547,-0.0006378951316698737,-0.5159129777547793,0.00412887808013742,-0.0014575326099097532,0.5427513184887585,0,70,255.0,255.0,255.0
142,7.1000000000000005,-1.499938349982789,-3.0001641955894947,-5.6308158621688005,0.0008019164047631295,-0.000722954051993086,-0.48951234363000556,0.0028672177989375997,-0.001944824203018751,0.5132740465021938,0,70,255.0,255.0,255.0
143,7.15,-1.4998951958320859,-3.0002029773605123,-5.654662168988834,0.0009137357876800138,-0.0008323775519717481,-0.46458557310456006,0.001605557517737779,-0.0024321157961277487,0.4837967745156291,0,70,255.0,255.0,255.0
144,7.2,-1.4998480277875887,-3.0002478394210197,-5.6772989838725785,0.0009624721565369069,-0.00096616563160586,-0.4411326661784428,0.0003438972365379586,-0.0029194073892367467,0.4543195025290644,0,70,255.0,255.0,255.0
145,7.25,-1.4998,-3.0003,-5.6988,0.0009481255113338092,-0.0011243182908954217,-0.4191536228516538,-0.0009177630446618682,-0.0034066989823457444,0.4248422305425015,0,70,255.0,255.0,255.0
146,7.300000000000001,-1.4997538077385006,-3.000359773976945,-5.719232131666338,0.0008982287434105754,-0.0012526345603699508,-0.39824171004046754,-0.0010781076722674568,-0.001725951796635352,0.4116342819049375,0,70,255.0,255.0,255.0
147,7.3500000000000005,-1.499710310746182,-3.0004238628333826,-5.738635177627912,0.0008403147441070632,-0.0012969134705589592,-0.37799019466115985,-0.0012384522998730428,-4.5204610924989494e-05,0.3984263332673738,0,70,255.0,255.0,255.0
148,7.4,-1.499669909884613,-3.0004880647013463,-5.7570421577563184,0.0007743835134232715,-0.0012571550214624497,-0.3583990767137303,-0.0013987969274786285,0.0016355425747853732,0.3852183846298101,0,70,255.0,255.0,255.0
149,7.45,-1.4996330060153626,-3.000548177712874,-5.7744860919231495,0.0007004350513592008,-0.0011333592130804227,-0.33946835619817894,-0.0015591415550842143,0.003316289760495735,0.37201043599224637,0,70,255.0,255.0,255.0
150,7.5,-1.4996,-3.0006,-5.791,0.0006184693579148507,-0.0009255260454128773,-0.3211980331145058,-0.0017194861826898,0.004997036946206104,0.3588024873546827,0,70,255.0,255.0,255.0
151,7.550000000000001,-1.499571232957003,-3.0006402282132334,-5.806618703102142,0.0005320710185709192,-0.0006875666268462166,-0.30369618208335064,-0.0017364473910674151,0.004521339796460194,0.3412715538915122,0,70,255.0,255.0,255.0
152,7.6000000000000005,-1.499546807032483,-3.0006691530769762,-5.821384227319554,0.0004448246188081083,-0.000473392065766855,-0.28707087772535433,-0.00175340859944503,0.004045642646714293,0.323740620428342,0,70,255.0,255.0,255.0
153,7.65,-1.4995267646294623,-3.0006879638341015,-5.835340399985897,0.0003567301586264168,-0.00028300236217478867,-0.2713221200405166,-0.0017703698078226449,0.0035699454969683915,0.30620968696517187,0,70,255.0,255.0,255.0
154,7.7,-1.499511148150961,-3.0006978497274845,-5.848531048434825,0.00026778763802584447,-0.0001163975160700172,-0.2564499090288373,-0.0017873310162002595,0.0030942483472224903,0.2886787535020017,0,70,255.0,255.0,255.0
155,7.75,-1.4995,-3.0007,-5.861,0.00017799705700639144,2.6422472547459342e-05,-0.2424542446903165,-0.0018042922245778742,0.0026185511974765913,0.27114782003883153,0,70,255.0,255.0,255.0
156,7.800000000000001,-1.4994932604334885,-3.0006953131701204,-5.872790655925096,9.348718230539776e-05,0.00016290106775354823,-0.2293095616261192,-0.0015761027634618252,0.0028405926107668866,0.2546395025290529,0,70,255.0,255.0,255.0
157,7.8500000000000005,-1.499490461123885,-3.000683524858714,-5.88394471309387,2.038678066020787e-05,0.0003104817336241493,-0.21699029443741108,-0.0013479133023457804,0.003062634024057178,0.2381311850192745,0,70,255.0,255.0,255.0
158,7.9,-1.499491031597538,-3.000664079962247,-5.8945034423000955,-4.13041479291798e-05,0.0004691644701592649,-0.20549644312419185,-0.0011197238412297356,0.0032846754373474694,0.2216228675094961,0,70,255.0,255.0,255.0
159,7.95,-1.499494401380794,-3.0006364233771867,-5.904508114337547,-9.158560346276534e-05,0.000638949277358895,-0.19482800768646155,-0.000891534380113691,0.0035067168506377608,0.20511454999971773,0,70,255.0,255.0,255.0
160,8.0,-1.4995,-3.0006,-5.914,-0.0001304575859405486,0.0008198361552230398,-0.18498498812422012,-0.000663344918997646,0.0037287582639280543,0.1886062324899409,0,70,255.0,255.0,255.0
161,8.05,-1.4995077253090443,-3.000553719106285,-5.923020273197472,-0.0001860197477925962,0.0010439623558337395,-0.17596157141216562,-0.0015591415550842262,0.005236289760499806,0.17233043599223458,0,70,255.0,255.0,255.0
162,8.1,-1.499519348471976,-3.0004943474881696,-5.931609720304964,-0.00028637174144896906,0.0013434651312730157,-0.1677519445249967,-0.0024549381911707748,0.006743821257071504,0.15605463949452883,0,70,255.0,255.0,255.0
163,8.15,-1.4995371089803857,-3.0004181163169106,-5.93980903081372,-0.0004315135669096744,0.0017183444815408902,-0.1603561074627128,-0.003350734827257355,0.008251352753643255,0.1397788429968225,0,70,255.0,255.0,255.0
164,8.200000000000001,-1.4995632463258637,-3.000321256763768,-5.947658894214984,-0.0006214452241747094,0.0021686004066373533,-0.15377406022531426,-0.004246531463343936,0.009758884250215007,0.12350304649911617,0,70,255.0,255.0,255.0
165,8.25,-1.4996,-3.0002,-5.9552,-0.0008561667132440648,0.002694232906562385,-0.14800580281280118,-0.005142328099430482,0.011266415746786721,0.10722725000141198,0,70,255.0,255.0,255.0
166,8.3,-1.4996494383303354,-3.000051410404738,-5.962473051285013,-0.0011254081911348268,0.003245249508912389,-0.14305215272521574,-0.005627331016199843,0.01077424834721312,0.09091875350200217,0,70,255.0,255.0,255.0
167,8.35,-1.4997129449882107,-2.9998758851886085,-5.9695188056862705,-0.0014188998148640464,0.003771657741283694,-0.13891392746260098,-0.0061123339329691865,0.010282080947639534,0.07461025700259294,0,70,255.0,255.0,255.0
168,8.4,-1.499791732480919,-2.9996746547701094,-5.976378034445022,-0.001736641584431744,0.004273457603676338,-0.13559112702495651,-0.0065973368497385465,0.009789913548065932,0.058301760503183135,0,70,255.0,255.0,255.0
169,8.450000000000001,-1.4998870133157514,-2.9994489495677406,-5.983091508802516,-0.00207863349983791,0.0047506490960903015,-0.13308375141228257,-0.0070823397665079075,0.009297746148492329,0.04199326400377333,0,70,255.0,255.0,255.0
170,8.5,-1.5,-2.9992,-5.9897,-0.0024448755610825316,0.005203232218525569,-0.13139180062457917,-0.0075673426832772485,0.008805578748918748,0.025684767504364547,0,70,255.0,255.0,255.0
171,8.55,-1.5001313213696152,-2.998928639274762,-5.996245121662475,-0.0028003474876672936,0.005655039608514791,-0.1305658176869771,-0.006651534380113043,0.00926671685064992,0.007354549999718612,0,70,255.0,255.0,255.0
172,8.6,-1.5002792715751807,-2.998634111757397,-6.002771856949952,-0.0031100289990938354,0.0061299039035905565,-0.13065634562460726,-0.005735726076948871,0.009727854952381074,-0.010975667504926671,0,70,255.0,255.0,255.0
173,8.65,-1.5004415610959387,-2.998315264602651,-6.00932603140619,-0.0033739200953621772,0.006627825103752896,-0.13166338443746978,-0.004819917773784665,0.010188993054112246,-0.029305885009572603,0,70,255.0,255.0,255.0
174,8.700000000000001,-1.500615900411131,-2.9979709449652705,-6.015953470574953,-0.0035920207764723088,0.0071488032090017955,-0.13358693412556458,-0.00390410947062046,0.010650131155843418,-0.04763610251421854,0,70,255.0,255.0,255.0
175,8.75,-1.5008,-2.9976,-6.0227,-0.003764331042424223,0.007692838219337234,-0.13642699468889158,-0.0029883011674562837,0.011111269257574545,-0.06596632001886382,0,70,255.0,255.0,255.0
176,8.8,-1.5009924761912037,-2.997201232496214,-6.029609662065086,-0.003945201858194337,0.008262592057031868,-0.14007657652688454,-0.004246531463348198,0.011678884250210504,-0.08001695350085207,0,70,255.0,255.0,255.0
177,8.85,-1.5011955687110659,-2.996773267781803,-6.036719366513924,-0.0041889841887590385,0.00886072664435828,-0.14442869003897674,-0.005504761759240067,0.012246499242846442,-0.09406758698283982,0,70,255.0,255.0,255.0
178,8.9,-1.5014124231353263,-2.9963146868192845,-6.0440642399302185,-0.004495678034118345,0.009487241981316508,-0.1494833352251685,-0.006762992055131981,0.012814114235482402,-0.10811822046482808,0,70,255.0,255.0,255.0
179,8.950000000000001,-1.5016461850397245,-2.995824070571177,-6.051679408897677,-0.0048652833942722466,0.010142138067906536,-0.1552405120854597,-0.008021222351023895,0.01338172922811836,-0.12216885394681633,0,70,255.0,255.0,255.0
180,9.0,-1.5019,-2.9953,-6.0596,-0.005297800269220729,0.01082541490412834,-0.1617002206198501,-0.009279452646915765,0.013949344220754278,-0.13621948742880385,0,70,255.0,255.0,255.0
181,9.05,-1.5021763738655696,-2.9947408307403807,-6.067863430077181,-0.005754845079556321,0.01155059216335918,-0.16899987620547638,-0.009002339766507682,0.015057746148478927,-0.1557667359962428,0,70,255.0,255.0,255.0
182,9.1,-1.5024752535805554,-2.994144017115391,-6.0765162769943535,-0.006198034245871494,0.012331189518976226,-0.1772768942194743,-0.00872522688609961,0.016166148076203538,-0.17531398456368102,0,70,255.0,255.0,255.0
183,9.15,-1.5027959463627563,-2.9935067881202104,-6.085607408872934,-0.006627367768166278,0.01316720697097953,-0.18653127466184444,-0.008448114005691527,0.017274550003928187,-0.19486123313111997,0,70,255.0,255.0,255.0
184,9.200000000000001,-1.5031377594299715,-2.9928263727500197,-6.0951856938343445,-0.0070428456464406595,0.014058644519369069,-0.19676301753258657,-0.008171001125283444,0.018382951931652836,-0.21440848169855892,0,70,255.0,255.0,255.0
185,9.25,-1.5035,-2.9921,-6.1053,-0.007444467880694621,0.015005502164144804,-0.20797212283170025,-0.007893888244875386,0.01949135385937746,-0.23395573026599692,0,70,255.0,255.0,255.0
186,9.3,-1.5038820283465182,-2.9913258445422617,-6.115995817626188,-0.007835417823581907,0.015951039289525744,-0.2199559186512062,-0.007744109470615794,0.018330131155859606,-0.24539610251423472,0,70,255.0,255.0,255.0
187,9.35,-1.5042834169667132,-2.990505863756634,-6.12730512550866,-0.008218878827756198,0.01683851527973076,-0.23251173308312362,-0.007594330696356206,0.017168908452341793,-0.2568364747624721,0,70,255.0,255.0,255.0
188,9.4,-1.5047037914136487,-2.9896429606998756,-6.13925652457804,-0.008594850893217524,0.017667930134759913,-0.24563956612745333,-0.007444551922096614,0.016007685748823934,-0.2682768470107099,0,70,255.0,255.0,255.0
189,9.450000000000001,-1.5051427772403898,-2.988740038428744,-6.1518786157649465,-0.008963334019965869,0.018439283854613176,-0.25933941778419495,-0.007294773147837021,0.014846463045306079,-0.2797172192589477,0,70,255.0,255.0,255.0
190,9.5,-1.5056,-2.9878,-6.1652,-0.009324328208001225,0.01915257643929052,-0.273611288053348,-0.007144994373577476,0.013685240341788224,-0.2911575915071838,0,70,255.0,255.0,255.0
191,9.55,-1.5060755127483578,-2.9868245910905724,-6.179238099418067,-0.009703483626116265,0.019877250678538298,-0.2877844491896982,-0.008021222351023887,0.01530172922812239,-0.2757688539468155,0,70,255.0,255.0,255.0
192,9.600000000000001,-1.506571078552593,-2.9858109278580742,-6.193965620971003,-0.010126450443103625,0.020682749362102786,-0.30118817344802995,-0.008897450328470297,0.016918218114456558,-0.2603801163864472,0,70,255.0,255.0,255.0
193,9.65,-1.5070888879826492,-2.98475496908029,-6.209344092814904,-0.01059322865896329,0.021569072489983944,-0.3138224608283428,-0.009773678305916675,0.018534707000790667,-0.24499137882607946,0,70,255.0,255.0,255.0
194,9.700000000000001,-1.5076311316084705,-2.983652673535004,-6.225335043105869,-0.01110381827369529,0.022536220062181846,-0.3256873113306378,-0.010649906283363085,0.020151195887124836,-0.22960264126571117,0,70,255.0,255.0,255.0
195,9.75,-1.5082,-2.9825,-6.2419,-0.011658219287299595,0.023584192078696414,-0.3367827249549139,-0.011526134260809479,0.021767684773458917,-0.21421390370534343,0,70,255.0,255.0,255.0
196,9.8,-1.5087967206600512,-2.981294191095449,-6.2590077847015415,-0.012198647671952027,0.0246359579963239,-0.3475462845900115,-0.010091001125287477,0.020302951931639803,-0.21632848169855434,0,70,255.0,255.0,255.0
197,9.850000000000001,-1.5094186688229156,-2.980037624811069,-6.27665639060733,-0.012667319399828356,0.02561448727186042,-0.3584155731247696,-0.008655867989765474,0.01883821908982069,-0.21844305969176528,0,70,255.0,255.0,255.0
198,9.9,-1.5100622566557544,-2.978733962978964,-6.294851104162347,-0.013064234470928573,0.026519779905305962,-0.36939059055918794,-0.007220734854243522,0.017373486248001627,-0.2205576376849761,0,70,255.0,255.0,255.0
199,9.950000000000001,-1.5107238963257288,-2.97738686743124,-6.313597211811576,-0.013389392885252703,0.027351835896660577,-0.3804713368932672,-0.005785601718721519,0.01590875340618251,-0.222672215678187,0,70,255.0,255.0,255.0
200,10.0,-1.5114,-2.976,-6.3329,-0.013642794642800724,0.028110655245924206,-0.3916578121270066,-0.004350468583199499,0.014444020564363586,-0.2247867936713992,0,70,255.0,255.0,255.0
201,10.05,-1.5120880046114378,-2.974576244527631,-6.3527635617757685,-0.01388592568607654,0.028842917336165962,-0.40287841245026484,-0.00537477314783299,0.01484646304530618,-0.2240372192589235,0,70,255.0,255.0,255.0
202,10.100000000000001,-1.512789446155745,-2.973115372897649,-6.373187216599684,-0.01418027195758403,0.029595301550454842,-0.4140615340528993,-0.006399077712466482,0.015248905526248774,-0.22328764484644778,0,70,255.0,255.0,255.0
203,10.15,-1.5135068853943332,-2.9716163790038514,-6.394169090535715,-0.014525833457323185,0.030367807888790833,-0.42520717693490956,-0.007423382277099937,0.015651348007191354,-0.2225380704339721,0,70,255.0,255.0,255.0
204,10.200000000000001,-1.5142428830886145,-2.970078256740036,-6.415707309647831,-0.014922610185294023,0.03116043635117398,-0.43631534109629644,-0.008447686841733429,0.01605379048813395,-0.2217884960214964,0,70,255.0,255.0,255.0
205,10.25,-1.515,-2.9685,-6.4378,-0.015370602141496522,0.031973186937604224,-0.44738602653705917,-0.009471991406366828,0.016456232969076556,-0.2210389216090194,0,70,255.0,255.0,255.0
206,10.3,-1.515780060894198,-2.966880830794026,-6.460445168195388,-0.01582564958373978,0.03279237265900949,-0.4584120656089277,-0.008729906283363273,0.016311195887133687,-0.22000264126571575,0,70,255.0,255.0,255.0
207,10.350000000000001,-1.5165819465541046,-2.965220883598334,-6.48364034299394,-0.016243592769832862,0.033604306526317615,-0.4693862906636311,-0.00798782116035972,0.016166158805190817,-0.2189663609224121,0,70,255.0,255.0,255.0
208,10.4,-1.5174038017669123,-2.9635205210056297,-6.507382933694799,-0.01662443169977575,0.03440898853952857,-0.48030870170116885,-0.00724573603735619,0.016021121723247954,-0.21793008057910848,0,70,255.0,255.0,255.0
209,10.450000000000001,-1.5182437713198131,-2.961780105608616,-6.531670349597105,-0.016968166373568478,0.035206418698642404,-0.4911792987215418,-0.006503650914352636,0.015876084641305084,-0.21689380023580485,0,70,255.0,255.0,255.0
210,10.5,-1.5191,-2.96,-6.5565,-0.017274796791211015,0.03599659700365908,-0.5019980817247492,-0.005761565791349177,0.015731047559362277,-0.21585751989249946,0,70,255.0,255.0,255.0
211,10.55,-1.5199709518117694,-2.958180432296265,-6.581869365442681,-0.017563475978963003,0.03678759202779771,-0.512769325114017,-0.005785601718730072,0.015908753406182564,-0.21499221567820523,0,70,255.0,255.0,255.0
212,10.600000000000001,-1.5208563676278357,-2.9563210927090147,-6.607776211424556,-0.01785335696308403,0.03758747234427736,-0.52349730329257,-0.005809637646110966,0.016086459253002856,-0.214126911463911,0,70,255.0,255.0,255.0
213,10.65,-1.5217563075380174,-2.9544215369736313,-6.6342183746850925,-0.018144439743574096,0.03839623795309799,-0.5341820162604081,-0.00583367357349186,0.016264165099823136,-0.21326160724961676,0,70,255.0,255.0,255.0
214,10.700000000000001,-1.5226708316321327,-2.9524813208254987,-6.661193691963753,-0.018436724320433213,0.039213888854259665,-0.5448234640175317,-0.005857709500872755,0.016441870946643428,-0.21239630303532253,0,70,255.0,255.0,255.0
215,10.75,-1.5236,-2.9505,-6.6887,-0.01873021069366137,0.04004042504776232,-0.5554216465639402,-0.005881745428253593,0.016619576793463764,-0.21153099882103188,0,70,255.0,255.0,255.0
216,10.8,-1.524544131858724,-2.9484774400209135,-6.71673497003389,-0.019040446500410837,0.040857259229802066,-0.5659666339350038,-0.0065276868417250425,0.016053790488125476,-0.2102684960215077,0,70,255.0,255.0,255.0
217,10.850000000000001,-1.5255045829345526,-2.9464147455656073,-6.745295611307835,-0.019382979377833884,0.04164580409657489,-0.5764484961660913,-0.007173628255196492,0.015488004182787191,-0.20900599322198354,0,70,255.0,255.0,255.0
218,10.9,-1.5264829680810186,-2.9443133310998446,-6.7743787675648335,-0.019757809325930485,0.04240605964808078,-0.5868672332572021,-0.007819569668667918,0.014922217877448924,-0.2077434904224594,0,70,255.0,255.0,255.0
219,10.950000000000001,-1.5274809021516567,-2.942174611089387,-6.8039812825478885,-0.020164936344700672,0.04313802588431978,-0.5972228452083371,-0.008465511082139368,0.01435643157211064,-0.20648098762293524,0,70,255.0,255.0,255.0
220,11.0,-1.5285,-2.94,-6.8341,-0.020604360434144417,0.04384170280529184,-0.6075153320194956,-0.009111452495610739,0.013790645266772428,-0.20521848482340932,0,70,255.0,255.0,255.0
221,11.05,-1.5295413207533346,-2.9377906076200793,-6.8647323544217596,-0.021042738019393502,0.0445353710529939,-0.6177801391459755,-0.008423650914352456,0.013956084641309598,-0.20537380023577842,0,70,255.0,255.0,255.0
222,11.100000000000001,-1.5306037006339548,-2.9355463250285547,-6.895878143344109,-0.021446725525579673,0.04523731126942283,-0.6280527120430737,-0.0077358493330941715,0.01412152401584677,-0.20552911564814755,0,70,255.0,255.0,255.0
223,11.15,-1.531685420137908,-2.9332667386269913,-6.927537755055578,-0.02181632295270292,0.04594752345457858,-0.6383330507107902,-0.007048047751835913,0.014286963390383935,-0.20568443106051665,0,70,255.0,255.0,255.0
224,11.200000000000001,-1.532784759761241,-2.930951434816952,-6.959711577844698,-0.02215153030076326,0.046666007608461214,-0.6486211551491253,-0.006360246170577628,0.014452402764921105,-0.20583974647288575,0,70,255.0,255.0,255.0
225,11.25,-1.5339,-2.9286,-6.9924,-0.022452347569760684,0.04739276373107069,-0.6589170253580785,-0.005672444589319453,0.014617842139458215,-0.2059950618852504,0,70,255.0,255.0,255.0
226,11.3,-1.5350297851279378,-2.9262121294987686,-7.025602812279073,-0.022740601422015602,0.048121256558223136,-0.669184809481093,-0.005857709500877026,0.01452187094663929,-0.20471630303532393,0,70,255.0,255.0,255.0
227,11.350000000000001,-1.536174214529628,-2.9237879543201712,-7.059317415315735,-0.023038118519848393,0.04884495082573464,-0.6793886556616112,-0.006042974412434598,0.014425899753820368,-0.20343754418539742,0,70,255.0,255.0,255.0
228,11.4,-1.537333751367349,-2.9213277143921896,-7.093540612212859,-0.023344898863259057,0.04956384653360517,-0.6895285638996326,-0.006228239323992165,0.014329928561001447,-0.20215878533547096,0,70,255.0,255.0,255.0
229,11.450000000000001,-1.5385088588033802,-2.9188316496428053,-7.128269206073323,-0.023660942452247608,0.05027794368183478,-0.6996045341951581,-0.006413504235549736,0.014233957368182525,-0.20088002648554448,0,70,255.0,255.0,255.0
230,11.5,-1.5397,-2.9163,-7.1635,-0.023986249286814032,0.05098724227042341,-0.7096165665481869,-0.006598769147107331,0.014137986175363437,-0.19960126763561714,0,70,255.0,255.0,255.0
231,11.55,-1.5409075387349143,-2.9137328743848445,-7.199229996461949,-0.024314856292545102,0.05169960271411048,-0.7195766229296514,-0.006545511082135257,0.014356431572119214,-0.1988009876229535,0,70,255.0,255.0,255.0
232,11.600000000000001,-1.5421314412475338,-2.9111298576907583,-7.235456995392956,-0.024640800395027567,0.052422885427635346,-0.7294966653104825,-0.006492253017163184,0.01457487696887499,-0.19800070761028984,0,70,255.0,255.0,255.0
233,11.65,-1.5433715743926961,-2.90849040380425,-7.272178996092986,-0.024964081594261417,0.05315709041099798,-0.7393766936906803,-0.006438994952191112,0.014793322365630758,-0.19720042759762624,0,70,255.0,255.0,255.0
234,11.700000000000001,-1.5446278050252389,-2.905813966611828,-7.309393997862013,-0.025284699890246676,0.05390221766419842,-0.7492167080702451,-0.006385736887219039,0.015011767762386535,-0.19640014758496258,0,70,255.0,255.0,255.0
235,11.75,-1.5459,-2.9031,-7.3471,-0.025602655282983316,0.054658267187236625,-0.7590167084491765,-0.006332478822246884,0.015230213159142414,-0.19559986757229542,0,70,255.0,255.0,255.0
236,11.8,-1.5471880599324055,-2.900348372961853,-7.385294801873134,-0.025919973407803935,0.055400332585338226,-0.7687646988003058,-0.006360246170577672,0.01445240276492118,-0.19431974647287492,0,70,255.0,255.0,255.0
237,11.850000000000001,-1.5484920204802375,-2.8975606149167943,-7.423975403112448,-0.02623867990004109,0.05610350746372877,-0.7784486830964642,-0.006388013518908459,0.013674592370699946,-0.1930396253734544,0,70,255.0,255.0,255.0
238,11.9,-1.5498119510618664,-2.894738670390809,-7.463138603415197,-0.02655877475969478,0.056767791822408216,-0.7880686613376512,-0.006415780867239246,0.012896781976478738,-0.19175950427403396,0,70,255.0,255.0,255.0
239,11.950000000000001,-1.5511479210956638,-2.891884483909882,-7.502781202478631,-0.026880257986765015,0.05739318566137663,-0.7976246335238676,-0.0064435482155700335,0.012118971582257504,-0.19047938317461346,0,70,255.0,255.0,255.0
240,12.0,-1.5525,-2.889,-7.5429,-0.02720312958125178,0.05797968898063397,-0.8071165996551124,-0.006471315563900876,0.011341161188036353,-0.1891992620751921,0,70,255.0,255.0,255.0
241,12.05,-1.553868221535464,-2.8860864337677414,-7.583492396045521,-0.027525250076238156,0.05857106694453913,-0.8165805818691307,-0.006413504235554062,0.012313957368169828,-0.18936002648553724,0,70,255.0,255.0,255.0
242,12.100000000000001,-1.555252476831517,-2.8831420826420624,-7.624558192157257,-0.027844480004807194,0.05921108471745097,-0.8260526023036664,-0.006355692907207248,0.013286753548303304,-0.1895207908958824,0,70,255.0,255.0,255.0
243,12.15,-1.556652621359838,-2.8801645146325128,-7.66609779024623,-0.02816081936695888,0.05989974229936946,-0.8355326609587189,-0.006297881578860437,0.014259549728436745,-0.18968155530622752,0,70,255.0,255.0,255.0
244,12.200000000000001,-1.5580685105921057,-2.877151297748642,-7.70811159222347,-0.028474268162693234,0.060637039690294645,-0.8450207578342891,-0.006240070250513623,0.01523234590857022,-0.18984231971657267,0,70,255.0,255.0,255.0
245,12.25,-1.5595,-2.8741,-7.7506,-0.028784826392010236,0.06142297689022647,-0.854516892930376,-0.006182258922166783,0.01620514208870344,-0.19000308412691513,0,70,255.0,255.0,255.0
246,12.3,-1.5609470539257388,-2.8710090919671805,-7.793562813944787,-0.02909902628724478,0.062203399636503946,-0.8639849737231731,-0.006385736887214724,0.015011767762394984,-0.18872014758496167,0,70,255.0,255.0,255.0
247,12.350000000000001,-1.5624100721936955,-2.8678806545149547,-7.836997428258534,-0.029423400080731715,0.06292415366646599,-0.8733889076888725,-0.006589214852262665,0.013818393436086528,-0.18743721104300817,0,70,255.0,255.0,255.0
248,12.4,-1.5638895634987828,-2.8647176710791387,-7.880900635599888,-0.029757947772471042,0.0635852389801126,-0.8827286948274738,-0.006792692817310599,0.012625019109778115,-0.18615427450105473,0,70,255.0,255.0,255.0
249,12.450000000000001,-1.5653860365359133,-2.8615231250955486,-7.925269228627496,-0.030102669362462777,0.0641866555774438,-0.8920043351389779,-0.006996170782358539,0.01143164478346966,-0.18487133795910127,0,70,255.0,255.0,255.0
250,12.5,-1.5669,-2.8583,-7.9701,-0.030457564850706897,0.06472840345845957,-0.901215828623384,-0.007199648747406556,0.01023827045716108,-0.18358840141714516,0,70,255.0,255.0,255.0
251,12.55,-1.5684315627615812,-2.8550507983635365,-8.015389948175342,-0.030798644774781316,0.06523933450944494,-0.910375523238178,-0.0064435482155700665,0.010198971582253469,-0.18279938317461236,0,70,255.0,255.0,255.0
252,12.600000000000001,-1.5699792343937016,-2.8517760992981183,-8.061136894808616,-0.031101919672263913,0.06574830061668492,-0.9194957669408454,-0.005687447683733577,0.010159672707345855,-0.18201036493207956,0,70,255.0,255.0,255.0
253,12.65,-1.571541124645031,-2.8484760010509307,-8.107338867354224,-0.03136738954315467,0.06625530178017952,-0.928576559731386,-0.004931347151897114,0.010120373832438245,-0.1812213466895468,0,70,255.0,255.0,255.0
254,12.700000000000001,-1.5731153432642404,-2.845150601869162,-8.153993893266554,-0.03159505438745362,0.06676033799992875,-0.9376179016098002,-0.004175246620060625,0.010081074957530634,-0.18043232844701398,0,70,255.0,255.0,255.0
255,12.75,-1.5747,-2.8418,-8.2011,-0.03178491420516073,0.06726340927593258,-0.9466197925760872,-0.0034191460882241342,0.010041776082623022,-0.17964331020447677,0,70,255.0,255.0,255.0
256,12.8,-1.576293895027936,-2.838423714578673,-8.248654993353856,-0.031978394613629293,0.06779926232571243,-0.9555689333241137,-0.004320070250518073,0.011392345908570587,-0.17832231971658014,0,70,255.0,255.0,255.0
257,12.850000000000001,-1.5778985902314981,-2.8350189482925736,-8.296655792507007,-0.03221692123021255,0.06840264386678965,-0.9644520245477455,-0.005220994412812012,0.01274291573451815,-0.17700132922868347,0,70,255.0,255.0,255.0
258,12.9,-1.5795163379210926,-2.831582324717139,-8.345099094983226,-0.032500494054910484,0.06907355389916424,-0.9732690662469821,-0.006121918575105918,0.014093485560465666,-0.1756803387407869,0,70,255.0,255.0,255.0
259,12.950000000000001,-1.5811493904071245,-2.828110467427803,-8.393981598306297,-0.032829113087723134,0.06981199242283623,-0.982020058421824,-0.007022842737399856,0.015444055386413231,-0.17435934825289026,0,70,255.0,255.0,255.0
260,13.0,-1.5828,-2.8246,-8.4433,-0.03320277832865047,0.07061795943780556,-0.990705001072271,-0.007923766899693652,0.01679462521236108,-0.17303835776499366,0,70,255.0,255.0,255.0
261,13.05,-1.584469657126675,-2.8210487433217732,-8.493051678409236,-0.03357577677070167,0.07141961618770154,-0.9993647434653733,-0.006996170782354269,0.015271644783477801,-0.17335133795909438,0,70,255.0,255.0,255.0
262,13.100000000000001,-1.5861568046803058,-2.817459307531587,-8.543236735163369,-0.03390239540688591,0.07214512391615337,-1.0080401348681807,-0.006068574665014888,0.013748664354594521,-0.17366431815319514,0,70,255.0,255.0,255.0
263,13.15,-1.587859123670599,-2.8138355000805158,-8.593855952712882,-0.03418263423720316,0.072794482623161,-1.0167311752806927,-0.005140978547675539,0.012225683925711295,-0.17397729834729586,0,70,255.0,255.0,255.0
264,13.200000000000001,-1.5895742951072616,-2.8101811284196287,-8.644910113508265,-0.03441649326165346,0.07336769230872449,-1.0254378647029103,-0.004213382430336157,0.010702703496828015,-0.1742902785413966,0,70,255.0,255.0,255.0
265,13.25,-1.5913,-2.8065,-8.6964,-0.03460397248023678,0.07386475297284381,-1.0341602031348325,-0.003285786312996808,0.009179723067945345,-0.17460325873549465,0,70,255.0,255.0,255.0
266,13.3,-1.5930346764653645,-2.8027949121342357,-8.748325493009208,-0.03479049830356332,0.07434627292348073,-1.0428440928143947,-0.004175246620064911,0.010081074957530736,-0.17275232844699387,0,70,255.0,255.0,255.0
267,13.350000000000001,-1.594779791047279,-2.7990646215810777,-8.800682866839535,-0.03502149714224327,0.0748728604685969,-1.0514354359795322,-0.005064706927133015,0.010982426847116126,-0.17090139815849306,0,70,255.0,255.0,255.0
268,13.4,-1.5965375673965112,-2.795306874960801,-8.853467494165253,-0.03529696899627662,0.07544451560819232,-1.0599342326302439,-0.005954167234201086,0.011883778736701484,-0.16905046786999234,0,70,255.0,255.0,255.0
269,13.450000000000001,-1.5983102291638291,-2.7915194188936834,-8.90667474766065,-0.03561691386566338,0.07606123834226704,-1.0683404827665313,-0.006843627541269189,0.012785130626286875,-0.16719953758149156,0,70,255.0,255.0,255.0
270,13.5,-1.6001,-2.7877,-8.9603,-0.035981331750403536,0.07672302867082101,-1.0766541863883932,-0.007733087848337372,0.013686482515872012,-0.16534860729299083,0,70,255.0,255.0,255.0
271,13.55,-1.601908437011868,-2.783846808141285,-9.014339149553937,-0.03635023001504687,0.07740329211837804,-1.084906885277041,-0.0070228427373955635,0.013524055386409148,-0.16475934825291316,0,70,255.0,255.0,255.0
272,13.600000000000001,-1.603734431130579,-2.7799598061441033,-9.068790197478506,-0.0366836160241431,0.07807543420946195,-1.0931301212136846,-0.006312597626453755,0.013361628256946286,-0.16417008921283552,0,70,255.0,255.0,255.0
273,13.65,-1.6055762067433563,-2.7760394000762796,-9.123651670626105,-0.03698148977769224,0.07873945494407267,-1.1013238941983243,-0.005602352515511971,0.013199201127483427,-0.16358083017275787,0,70,255.0,255.0,255.0
274,13.700000000000001,-1.6074319882374224,-2.772085996005637,-9.178922095849137,-0.037243851275694295,0.07939535432221029,-1.1094882042309606,-0.0048921074045701635,0.013036773998020564,-0.16299157113268023,0,70,255.0,255.0,255.0
275,13.75,-1.6093,-2.7681,-9.2346,-0.037470700518149255,0.08004313234387472,-1.1176230513115921,-0.00418186229362838,0.012874346868557707,-0.16240231209259726,0,70,255.0,255.0,255.0
276,13.8,-1.611178775487165,-2.7640818553006254,-9.29068430877505,-0.03768058163624837,0.08068055860300928,-1.1257523660774418,-0.004213382430336155,0.012622703496823902,-0.16277027854138773,0,70,255.0,255.0,255.0
277,13.850000000000001,-1.6130680844304055,-2.7600321538425088,-9.347175543246452,-0.03789203876118288,0.08130540269355713,-1.1339000791657312,-0.00424490256704393,0.012371060125090098,-0.1631382449901782,0,70,255.0,255.0,255.0
278,13.9,-1.6149680056300635,-2.75595152473408,-9.40407462333033,-0.038105071892952765,0.08191766461551828,-1.1420661905764595,-0.004276422703751704,0.012119416753356304,-0.16350621143896865,0,70,255.0,255.0,255.0
279,13.950000000000001,-1.6168786178864814,-2.751840597083767,-9.461382468942807,-0.03831968103155804,0.08251734436889276,-1.1502507003096278,-0.004307942840459478,0.011867773381622499,-0.16387417788775913,0,70,255.0,255.0,255.0
280,14.0,-1.6188,-2.7477,-9.5191,-0.03853586617699871,0.08310444195368052,-1.1584536083652355,-0.004339462977167141,0.011616130009888925,-0.1642421443365425,0,70,255.0,255.0,255.0
281,14.05,-1.6207324610394733,-2.743530570656213,-9.577226815345867,-0.038767443439959734,0.08366647346958504,-1.1665956504131867,-0.004923627541273653,0.01086513062629132,-0.1614395375815032,0,70,255.0,255.0,255.0
282,14.100000000000001,-1.6226772311477995,-2.739333978485861,-9.63575722953569,-0.03902822893112608,0.08419095501630967,-1.174597562123386,-0.005507792105380166,0.010114131242693714,-0.1586369308264639,0,70,255.0,255.0,255.0
283,14.15,-1.6246357707363892,-2.7351121009874024,-9.694684236052577,-0.039318222650497746,0.08467788659385442,-1.182459343495833,-0.006091956669486658,0.009363131859096135,-0.15583432407142472,0,70,255.0,255.0,255.0
284,14.200000000000001,-1.6266095402166525,-2.7308668156592955,-9.754000828379644,-0.03963742459807475,0.08512726820221928,-1.1901809945305286,-0.00667612123359317,0.008612132475498531,-0.15303171731638543,0,70,255.0,255.0,255.0
285,14.25,-1.6286,-2.7266,-9.8137,-0.03998583477385706,0.08553909984140426,-1.1977625152274716,-0.0072602857976997726,0.007861133091900507,-0.15022911056134625,0,70,255.0,255.0,255.0
286,14.3,-1.6306081803549428,-2.7223126620745206,-9.873776429841481,-0.0403376446039137,0.0859655475186523,-1.205305032269822,-0.006812107404565764,0.009196773998020788,-0.1514715711326712,0,70,255.0,255.0,255.0
287,14.350000000000001,-1.6326333909783972,-2.7180023322140463,-9.934231538610794,-0.040667045514313646,0.08645877724120636,-1.2129096723407389,-0.006363929011431756,0.010532414904141068,-0.1527140317039962,0,70,255.0,255.0,255.0
288,14.4,-1.63467451142438,-2.713665671316311,-9.995068432459364,-0.04097403750505688,0.0870187890090664,-1.2205764354402215,-0.005915750618297763,0.011868055810261301,-0.15395649227532113,0,70,255.0,255.0,255.0
289,14.450000000000001,-1.6367304212469085,-2.709299340279051,-10.056290217538624,-0.04125862057614342,0.08764558282223248,-1.228305321568271,-0.005467572225163754,0.01320369671638158,-0.1551989528466461,0,70,255.0,255.0,255.0
290,14.5,-1.6388,-2.7049,-10.1179,-0.041520794727573244,0.08833915868070454,-1.236096330724886,-0.005019393832029706,0.01453933762250148,-0.1564414134179657,0,70,255.0,255.0,255.0
291,14.55,-1.6408820175407555,-2.7004651810457037,-10.179899465288214,-0.04175397814438547,0.08904733645580754,-1.243864220507528,-0.0043079428404594125,0.01378777338161813,-0.15427417788770936,0,70,255.0,255.0,255.0
292,14.600000000000001,-1.6429748049386124,-2.6959958926579533,-10.242284616021147,-0.04195158901161919,0.08971793601886636,-1.251523748513657,-0.003596491848889118,0.013036209140734778,-0.152106942357453,0,70,255.0,255.0,255.0
293,14.65,-1.6450765835660912,-2.6914940137473513,-10.305050034109971,-0.042113627329274386,0.09035095736988101,-1.2590749147432734,-0.0028850408573188498,0.012284644899851455,-0.14993970682719676,0,70,255.0,255.0,255.0
294,14.700000000000001,-1.6471855747957134,-2.6869614232244987,-10.368190301465866,-0.04224009309735107,0.09094640050885151,-1.2665177191963768,-0.002173589865748556,0.011533080658968103,-0.14777247129694043,0,70,255.0,255.0,255.0
295,14.75,-1.6493,-2.6824,-10.4317,-0.042330986315849244,0.09150426543577783,-1.2738521618729672,-0.001462138874178287,0.010781516418084891,-0.1456052357666806,0,70,255.0,255.0,255.0
296,14.8,-1.6514189494820348,-2.6778114137426643,-10.49557450900567,-0.04243844281854354,0.09203710665811751,-1.2811260857000453,-0.0028361212335936553,0.010532132475502462,-0.14535171731643715,0,70,255.0,255.0,255.0
297,14.850000000000001,-1.653544989267154,-2.6731964971541404,-10.55981239730463,-0.04261459843920862,0.0925574786833281,-1.2883873336046112,-0.004210103593009024,0.010282748532920032,-0.14509819886619368,0,70,255.0,255.0,255.0
298,14.9,-1.6556815543112553,-2.6685558736942836,-10.624413031100755,-0.042859453177844446,0.09306538151140953,-1.2956359055866646,-0.005584085952424343,0.01003336459033761,-0.14484468041595022,0,70,255.0,255.0,255.0
299,14.950000000000001,-1.6578320795702377,-2.6638901668229513,-10.689375776597922,-0.043173007034451046,0.09356081514236185,-1.3028718016462062,-0.006958068311839712,0.00978398064775518,-0.14459116196570676,0,70,255.0,255.0,255.0
300,15.0,-1.66,-2.6592,-10.7547,-0.04355526000902841,0.09404377957618502,-1.310095021783235,-0.00833205067125492,0.009534596705172649,-0.14433764351545797,0,70,255.0,255.0,255.0
301,15.05,-1.6621877845311046,-2.6544859639836376,-10.820384898689111,-0.04394825058143898,0.09451623691172367,-1.3172954366922882,-0.007387572225167702,0.009363696716373247,-0.14367895284666934,0,70,255.0,255.0,255.0
302,15.100000000000001,-1.664394037992772,-2.649748518725485,-10.88642899476034,-0.04429401723154519,0.09498014924782237,-1.324462917067902,-0.006443093779080485,0.009192796727573845,-0.14302026217788075,0,70,255.0,255.0,255.0
303,15.15,-1.6666163991888874,-2.6449880914755126,-10.95283064148701,-0.04459255995934703,0.09543551658448106,-1.3315974629100764,-0.0054986153329933,0.009021896738774448,-0.14236157150909215,0,70,255.0,255.0,255.0
304,15.200000000000001,-1.668852506923335,-2.640205109483694,-11.019588192142455,-0.04484387876484452,0.09588233892169981,-1.3386990742188112,-0.004554136886906082,0.008850996749975045,-0.14170288084030352,0,70,255.0,255.0,255.0
305,15.25,-1.6711,-2.6354,-11.0867,-0.04504797364803764,0.09632061625947856,-1.3457677509941064,-0.0036096584408188415,0.008680096761175649,-0.14104419017151315,0,70,255.0,255.0,255.0
306,15.3,-1.6733571123935467,-2.630572730322784,-11.154164296237889,-0.045240554855701824,0.09677794569498228,-1.3527961675308164,-0.004093589865748333,0.00961308065897274,-0.14009247129689015,0,70,255.0,255.0,255.0
307,15.350000000000001,-1.6756244587617577,-2.6257214279439203,-11.221978823654023,-0.045457332634612484,0.09728192432537586,-1.3597769981237957,-0.004577521290677825,0.010546064556769834,-0.13914075242226712,0,70,255.0,255.0,255.0
308,15.4,-1.6779032489331953,-2.620843760403665,-11.290141202951206,-0.0456983069847696,0.09783255215065925,-1.366710242773043,-0.005061452715607298,0.011479048454566893,-0.13818903354764414,0,70,255.0,255.0,255.0
309,15.450000000000001,-1.6801946927364222,-2.615937395242273,-11.358649054832263,-0.04596347790617321,0.09842982917083254,-1.3735959014785601,-0.00554538414053679,0.012412032352363987,-0.13723731467302114,0,70,255.0,255.0,255.0
310,15.5,-1.6825,-2.611,-11.4275,-0.04625284539882328,0.09907375538589563,-1.3804339742403453,-0.0060293155654661534,0.013345016250160935,-0.13628559579839816,0,70,255.0,255.0,255.0
311,15.55,-1.6848197658947088,-2.6060303147252273,-11.496691516359336,-0.04652952999575572,0.09969998030834386,-1.3872158931844476,-0.005038068311831276,0.011703980647767651,-0.13499116196569216,0,70,255.0,255.0,255.0
312,15.600000000000001,-1.687152126960198,-2.601031369498834,-11.566220510623587,-0.04675665223000641,0.10024415345067242,-1.3939330904369147,-0.004046821058196398,0.01006294504537437,-0.13369672813298616,0,70,255.0,255.0,255.0
313,15.65,-1.6894946050783317,-2.596007266909828,-11.636083746708165,-0.046934212101575355,0.1007062748128813,-1.4005855659977462,-0.003055573804561555,0.008421909442981147,-0.13240229430028022,0,70,255.0,255.0,255.0
314,15.700000000000001,-1.6918447221309771,-2.5909621095472146,-11.7062779885285,-0.04706220961046257,0.10108634439497052,-1.4071733198669427,-0.0020643265509266776,0.006780873840587863,-0.13110786046757422,0,70,255.0,255.0,255.0
315,15.75,-1.6942,-2.5859,-11.7768,-0.04714064475666802,0.10138436219694008,-1.4136963520445034,-0.001073079297291668,0.005139838238194638,-0.12981342663485584,0,70,255.0,255.0,255.0
316,15.8,-1.6965590240276174,-2.5808236107763083,-11.847647238324772,-0.04723332516127308,0.10168613307164423,-1.420196259731383,-0.0026341368869105984,0.0069309967499710445,-0.1301828808403247,0,70,255.0,255.0,255.0
317,15.850000000000001,-1.698924633397452,-2.5757298940607423,-11.918819933851644,-0.04740405844535909,0.1020774618719372,-1.426714640128536,-0.004195194476529529,0.00872215526174745,-0.13055233504579355,0,70,255.0,255.0,255.0
318,15.9,-1.7013007307534778,-2.570614371957022,-11.990319010216128,-0.04765284460892603,0.10255834859781895,-1.4332514932359623,-0.005756252066148404,0.010513313773523793,-0.1309217892512624,0,70,255.0,255.0,255.0
319,15.950000000000001,-1.703691218739669,-2.565472566568867,-12.062145391053745,-0.04797968365197392,0.10312879324928957,-1.4398068190536621,-0.007317309655767335,0.012304472285300199,-0.13129124345673127,0,70,255.0,255.0,255.0
320,16.0,-1.7061,-2.5603,-12.1343,-0.048384575574502764,0.10378879582634896,-1.4463806175816356,-0.008878367245386043,0.014095630797076208,-0.1316606976622019,0,70,255.0,255.0,255.0
321,16.05,-1.7085297379948214,-2.555093642169538,-12.20678273034158,-0.048793169359150936,0.10445148740508475,-1.4529110678900168,-0.007465384140540701,0.012412032352355239,-0.12955731467304116,0,70,255.0,255.0,255.0
322,16.1,-1.7109781394499943,-2.549856254258195,-12.279589353969845,-0.049131113988556845,0.10502999906158451,-1.45933634904894,-0.006052401035695359,0.010728433907634269,-0.12745393168388042,0,70,255.0,255.0,255.0
323,16.150000000000002,-1.7134416719077565,-2.544592045262083,-12.35271461242732,-0.049398409462720484,0.1055243307958482,-1.465656461058405,-0.004639417930850016,0.009044835462913299,-0.12535054869471968,0,70,255.0,255.0,255.0
324,16.2,-1.7159168029103458,-2.539305224177314,-12.426153247256524,-0.04959505578164184,0.10593448260787583,-1.4718714039184115,-0.0032264348260047735,0.007361237018192447,-0.1232471657055591,0,70,255.0,255.0,255.0
325,16.25,-1.7184,-2.534,-12.4999,-0.04972105294532095,0.10626045449766741,-1.4779811776289604,-0.0018134517211592094,0.0056776385734707,-0.12114378271638948,0,70,255.0,255.0,255.0
326,16.3,-1.7208884239930966,-2.5286794205455383,-12.573950640308908,-0.04981799740212309,0.10657191730801867,-1.4840474687085592,-0.0020643265509265466,0.006780873840579209,-0.12150786046755364,0,70,255.0,255.0,255.0
327,16.35,-1.7233820088025704,-2.523341888906475,-12.648305050268984,-0.04992748560041361,0.10693854188172534,-1.490131963675716,-0.0023152013806938838,0.007884109107687718,-0.1218719382187178,0,70,255.0,255.0,255.0
328,16.400000000000002,-1.725881381615496,-2.517984646994643,-12.722964140074609,-0.05004951754019248,0.10736032821878745,-1.496234662530431,-0.002566076210461221,0.008987344374796227,-0.12223601596988198,0,70,255.0,255.0,255.0
329,16.45,-1.7283871696189477,-2.5126049367218743,-12.797928819920148,-0.050184093221459725,0.10783727631920494,-1.5023555652727039,-0.00281695104022854,0.010090579641904657,-0.12260009372104612,0,70,255.0,255.0,255.0
330,16.5,-1.7309,-2.5072,-12.8732,-0.05033121264421534,0.1083693861829779,-1.5084946719025354,-0.0030678258699960437,0.0111938149090125,-0.12296417147219962,0,70,255.0,255.0,255.0
331,16.55,-1.7334205660327924,-2.501767875648308,-12.948777908422795,-0.05049484103235933,0.10890884336283603,-1.5146110572757574,-0.0034773096557635112,0.01038447228531284,-0.1216912434566847,0,70,255.0,255.0,255.0
332,16.6,-1.7359498253397243,-2.4963097901159026,-13.024660044954233,-0.05067894360979169,0.1094078334115092,-1.5206637962482041,-0.0038867934415309784,0.009575129661613179,-0.12041831544116978,0,70,255.0,255.0,255.0
333,16.650000000000002,-1.7384888016302598,-2.490827766759343,-13.100843227274272,-0.050883520376512434,0.10986635632899737,-1.5266528888198747,-0.004296277227298446,0.008765787037913518,-0.11914538742565485,0,70,255.0,255.0,255.0
334,16.7,-1.7410385186138637,-2.4853238289351895,-13.177324273062869,-0.05110857133252153,0.11028441211530053,-1.5325783349907693,-0.0047057610130658845,0.007956444414213915,-0.11787245941014002,0,70,255.0,255.0,255.0
335,16.75,-1.7436,-2.4798,-13.2541,-0.051354096477819015,0.11066200077041873,-1.5384401347608885,-0.005115244798833463,0.007147101790513921,-0.11659953139461798,0,70,255.0,255.0,255.0
336,16.8,-1.7461741118757341,-2.4742578768612296,-13.331167325999917,-0.051610638468439864,0.11102470924063637,-1.544244302188394,-0.0051464348260002015,0.007361237018192116,-0.11556716570560573,0,70,255.0,255.0,255.0
337,16.85,-1.7487610898385335,-2.4686973506299132,-13.4085235699141,-0.05186873996041905,0.11139812447223794,-1.549996851331449,-0.005177624853166941,0.007575372245870311,-0.11453480001659348,0,70,255.0,255.0,255.0
338,16.900000000000002,-1.7513610118634657,-2.4631178859679825,-13.486166150828325,-0.052128400953756565,0.11178224646522342,-1.5556977821900537,-0.00520881488033368,0.007789507473548505,-0.11350243432758123,0,70,255.0,255.0,255.0
339,16.95,-1.7539739559255985,-2.457518947537368,-13.564092487828361,-0.0523896214484524,0.11217707521959279,-1.5613470947642072,-0.005240004907500417,0.008003642701226684,-0.11247006863856905,0,70,255.0,255.0,255.0
340,17.0,-1.7566,-2.4519,-13.6423,-0.0526524014445066,0.11258261073534609,-1.5669447890539105,-0.005271194934667323,0.008217777928905434,-0.11143770294955857,0,70,255.0,255.0,255.0
341,17.05,-1.7592389864642708,-2.446260616906774,-13.720786387577538,-0.052902605093879215,0.11299231967461625,-1.5725077339706754,-0.004736951040236962,0.008170579641900577,-0.11108009372103567,0,70,255.0,255.0,255.0
342,17.1,-1.7618898153061426,-2.4406008073644445,-13.79955047538938,-0.0531260965485303,0.11339966869953616,-1.5780527984260142,-0.004202707145806601,0.00812338135489572,-0.11072248449251275,0,70,255.0,255.0,255.0
343,17.150000000000002,-1.7645511509158787,-2.4349206893687265,-13.878591369412451,-0.05332287580845988,0.11380465781010583,-1.5835799824199268,-0.0036684632513762413,0.00807618306789086,-0.11036487526398985,0,70,255.0,255.0,255.0
344,17.2,-1.767221657683743,-2.42922038091534,-13.95790817562368,-0.05349294287366792,0.11420728700632522,-1.589089285952413,-0.0031342193569459187,0.008028984780886006,-0.11000726603546696,0,70,255.0,255.0,255.0
345,17.25,-1.7699,-2.4235,-14.0375,-0.05363629774415446,0.1146075562881944,-1.5945807090234734,-0.002599975462515669,0.00798178649388126,-0.1096496568069405,0,70,255.0,255.0,255.0
346,17.3,-1.7725851422671821,-2.4177596555116727,-14.117365523689934,-0.05377094115604401,0.11500601206089699,-1.6000287619289,-0.0027857610130661596,0.00795644441422223,-0.10827245941012363,0,70,255.0,255.0,255.0
347,17.35,-1.7752772489368966,-2.41199941991231,-14.197501728528396,-0.05391487384546108,0.11540320072961663,-1.605407954964486,-0.00297154656361665,0.007931102334563199,-0.10689526201330675,0,70,255.0,255.0,255.0
348,17.400000000000002,-1.7779767844730205,-2.4062193565571106,-14.277905171521887,-0.054068095812405674,0.11579912229435332,-1.6107182881302309,-0.0031573321141671407,0.00790576025490417,-0.10551806461648988,0,70,255.0,255.0,255.0
349,17.45,-1.7806842133394292,-2.4004195288012746,-14.358572409676919,-0.05423060705687779,0.11619377675510703,-1.6159597614261347,-0.0033431176647176182,0.007880418175245141,-0.1041408672196731,0,70,255.0,255.0,255.0
350,17.5,-1.7834,-2.3946,-14.4395,-0.054402407578877425,0.1165871641118778,-1.621132374852198,-0.0035289032152681643,0.007855076095585778,-0.10276366982284912,0,70,255.0,255.0,255.0
351,17.55,-1.7861244444670017,-2.3887607610465342,-14.52068511766273,-0.05457363028194644,0.11698363208179792,-1.626273218313734,-0.0033200049074922325,0.008003642701218363,-0.10287006863859105,0,70,255.0,255.0,255.0
352,17.6,-1.7888571889462717,-2.382901512986315,-14.602127410497056,-0.05473440806962665,0.11738752838199966,-1.6314193817160572,-0.0031111065997163007,0.008152209306850948,-0.10297646745433298,0,70,255.0,255.0,255.0
353,17.650000000000002,-1.7915977111920411,-2.3770218844028297,-14.683827144500018,-0.05488474094191807,0.11779885301248302,-1.6365708650591675,-0.0029022082919403693,0.008300775912483533,-0.1030828662700749,0,70,255.0,255.0,255.0
354,17.7,-1.7943454889585402,-2.371121503879563,-14.765784585668651,-0.055024628898820684,0.11821760597324799,-1.6417276683430644,-0.0026933099841644523,0.008449342518116108,-0.10318926508581683,0,70,255.0,255.0,255.0
355,17.75,-1.7971,-2.3652,-14.848,-0.055154071940334504,0.11864378726429461,-1.646889791567749,-0.002484411676388576,0.008597909123747582,-0.1032956639015552,0,70,255.0,255.0,255.0
356,17.8,-1.7998610798648125,-2.35925730030219,-14.930473205659156,-0.05529453771616798,0.11905945961191045,-1.6520303648161734,-0.003134219356950272,0.008028984780885599,-0.10232726603541521,0,70,255.0,255.0,255.0
357,17.85,-1.8026299952780171,-2.353294528142428,-15.013202229483399,-0.05546749387602954,0.1194466857423832,-1.6571225181712907,-0.0037840270375119685,0.007460060438023614,-0.10135886816927521,0,70,255.0,255.0,255.0
358,17.900000000000002,-1.8054083707588158,-2.347313105831571,-15.096184650478067,-0.05567294041991918,0.11980546565571282,-1.662166251633101,-0.004433834718073665,0.006891136095161629,-0.10039047030313522,0,70,255.0,255.0,255.0
359,17.95,-1.8081978308264095,-2.341314455680476,-15.179418047648483,-0.05591087734783689,0.12013579935189934,-1.6671615652016039,-0.005083642398635315,0.0063222117522996855,-0.09942207243699529,0,70,255.0,255.0,255.0
360,18.0,-1.811,-2.3353,-15.2629,-0.0561813046597827,0.12043768683094276,-1.6721084588768005,-0.0057334500791969,0.005753287409436925,-0.09845367457084997,0,70,255.0,255.0,255.0
361,18.05,-1.8138160360737485,-2.3292708377447053,-15.346627659700658,-0.05645621885338067,0.12073052947055993,-1.676981322421564,-0.005263117664721599,0.005960418175249396,-0.09646086721968562,0,70,255.0,255.0,255.0
362,18.1,-1.8166452299416593,-2.3232267744439725,-15.430596471569366,-0.05670761642625487,0.1210337286484677,-1.681754545598769,-0.0047927852502462984,0.006167548941061868,-0.09446805986852128,0,70,255.0,255.0,255.0
363,18.150000000000002,-1.8194864057726954,-2.3171672922708875,-15.514801453587744,-0.05693549737840531,0.12134728436466612,-1.6864281284084162,-0.004322452835770998,0.00637467970687434,-0.09247525251735694,0,70,255.0,255.0,255.0
364,18.2,-1.822338387735821,-2.3110918733985346,-15.599237623737412,-0.057139861709831964,0.12167119661915513,-1.6910020708505047,-0.0038521204212957306,0.006581810472686797,-0.09048244516619273,0,70,255.0,255.0,255.0
365,18.25,-1.8252,-2.305,-15.6839,-0.05732070942053486,0.1220054654119348,-1.6954763729250353,-0.0033817880068204853,0.00678894123849938,-0.08848963781502839,0,70,255.0,255.0,255.0
366,18.3,-1.8280699758401924,-2.2988913487189886,-15.768784955538218,-0.057472586870309386,0.12233842250585009,-1.6999323454975581,-0.002693309984160243,0.006529342518111743,-0.08974926508588192,0,70,255.0,255.0,255.0
367,18.35,-1.8309466849553455,-2.292766374081682,-15.85389428423915,-0.05759004041895088,0.12265839966374598,-1.7044512994336236,-0.0020048319615000006,0.006269743797724107,-0.09100889235673545,0,70,255.0,255.0,255.0
368,18.400000000000002,-1.8338284061504022,-2.286625725084881,-15.939231135170974,-0.05767307006645938,0.1229653968856225,-1.7090332347332318,-0.0013163539388397578,0.00601014507733647,-0.09226851962758899,0,70,255.0,255.0,255.0
369,18.45,-1.8367134182303055,-2.280470050725387,-16.024798657401863,-0.05772167581283486,0.12325941417147962,-1.7136781513963824,-0.000627875916179564,0.005750546356948853,-0.09352814689844242,0,70,255.0,255.0,255.0
370,18.5,-1.8396,-2.2743,-16.1106,-0.05773585765807734,0.12354045152131739,-1.718386049423076,6.06021064805673e-05,0.0054909476365615495,-0.09478777416929773,0,70,255.0,255.0,255.0
371,18.55,-1.8424872605654812,-2.2681157673793404,-16.196636518146477,-0.057765433665381324,0.12383578050603913,-1.7230492955882313,-0.0012436423986400176,0.006322211752307883,-0.09174207243690939,0,70,255.0,255.0,255.0
372,18.6,-1.845377630236959,-2.2619157292292993,-16.28290239147405,-0.05786022189794134,0.12417267269654819,-1.727560256666767,-0.0025478869037606025,0.0071534758680542165,-0.08869637070452106,0,70,255.0,255.0,255.0
373,18.650000000000002,-1.8482743696256965,-2.2556978073895886,-16.369390005728384,-0.058020222355757385,0.12455112809284456,-1.7319189326586835,-0.0038521314088811875,0.00798473998380055,-0.08565066897213272,0,70,255.0,255.0,255.0
374,18.7,-1.8511807393429556,-2.249459923699919,-16.456091746655137,-0.058245435038829445,0.12497114669492822,-1.7361253235639802,-0.00515637591400168,0.008816004099546824,-0.0826049672397446,0,70,255.0,255.0,255.0
375,18.75,-1.8541,-2.2432,-16.543,-0.05853585994715754,0.12543272850279924,-1.7401794293826576,-0.006460620419121987,0.00964726821529327,-0.07955926550735093,0,70,255.0,255.0,255.0
376,18.8,-1.8570345818978828,-2.23691678176365,-16.630108971875877,-0.058841678468167874,0.12588645546999863,-1.7441904721494959,-0.005772120421291128,0.008501810472682331,-0.08088244516617957,0,70,255.0,255.0,255.0
377,18.85,-1.8599835940968188,-2.2306123090011187,-16.717420149864665,-0.05911307198928666,0.1262829095500675,-1.7482676738992755,-0.005083620423460269,0.007356352730071392,-0.0822056248250082,0,70,255.0,255.0,255.0
378,18.900000000000002,-1.8629453153468134,-2.224289445356762,-16.80493684191552,-0.05935004051051391,0.1266220907430058,-1.7524110346319968,-0.004395120425629411,0.0062108949874604535,-0.08352880448383684,0,70,255.0,255.0,255.0
379,18.95,-1.865918024397872,-2.2179510544749372,-16.892662355977578,-0.0595525840318496,0.12690399904881353,-1.7566205543476592,-0.0037066204277986002,0.005065437244849596,-0.0848519841426654,0,70,255.0,255.0,255.0
380,19.0,-1.8689,-2.2116,-16.9806,-0.059720702553293765,0.12712863446749076,-1.7608962330462632,-0.0030181204299676856,0.003919979502239768,-0.08617516380149759,0,70,255.0,255.0,255.0
381,19.05,-1.8718896118429882,-2.205238705566058,-17.068751594350022,-0.05985985246194734,0.12732239761397018,-1.765148815813765,-0.0025478759161751173,0.003830546356936758,-0.08392814689857137,0,70,255.0,255.0,255.0
382,19.1,-1.8748855933757667,-2.1988678347662236,-17.15711300906729,-0.05997549014491128,0.12751168910318444,-1.7692890477361205,-0.002077631402382549,0.003741113211633748,-0.08168112999564514,0,70,255.0,255.0,255.0
383,19.150000000000002,-1.877886768987051,-2.19248761118336,-17.245678626609553,-0.06006761560218559,0.12769650893513357,-1.7733169288133295,-0.001607386888589981,0.0036516800663307387,-0.07943411309271892,0,70,255.0,255.0,255.0
384,19.200000000000003,-1.880891963065557,-2.1860982584003312,-17.33444282943454,-0.060136228833770275,0.12787685710981753,-1.7772324590453923,-0.001137142374797413,0.003562246921027729,-0.07718709618979269,0,70,255.0,255.0,255.0
385,19.25,-1.8839,-2.1797,-17.4234,-0.06018132983966534,0.12805273362723632,-1.781035638432309,-0.0006668978610048226,0.0034728137757247257,-0.07494007928686841,0,70,255.0,255.0,255.0
386,19.3,-1.886910170730165,-2.173292395972117,-17.512545450724037,-0.060230911684040725,0.1282639540741183,-1.7847822645954712,-0.0013163759140104683,0.004976004099555697,-0.07492496723962176,0,70,255.0,255.0,255.0
387,19.35,-1.889923632400115,-2.1668723519339848,-17.60187821386618,-0.06031296743106639,0.1285503340371919,-1.7885281351562712,-0.001965853967016114,0.006479194423386668,-0.07490985519237511,0,70,255.0,255.0,255.0
388,19.400000000000002,-1.8929420087049824,-2.1604361099097944,-17.691398251646298,-0.06042749708074234,0.128911873516457,-1.792273250114709,-0.00261533202002176,0.007982384747217639,-0.07489474314512848,0,70,255.0,255.0,255.0
389,19.450000000000003,-1.8959669233399,-2.1539799119237357,-17.78110552628428,-0.060574500633068566,0.12934857251191367,-1.796017609470784,-0.0032648100730274057,0.009485575071048611,-0.07487963109788183,0,70,255.0,255.0,255.0
390,19.5,-1.899,-2.1475,-17.871,-0.06075397808804507,0.12986043102356185,-1.7997612132244971,-0.003914288126032894,0.010988765394878586,-0.07486451905064051,0,70,255.0,255.0,255.0
391,19.55,-1.902042505236352,-2.140994110545474,-17.961081002753826,-0.060944500801890754,0.13035778608955526,-1.8034661258043305,-0.003706620427794302,0.008905437244857876,-0.07333198414269437,0,70,255.0,255.0,255.0
392,19.6,-1.905094277023774,-2.1344659574978357,-18.05134533546801,-0.061124640130824505,0.13075097474804764,-1.8070944116387666,-0.0034989527295557097,0.006822109094837167,-0.07179944923474824,0,70,255.0,255.0,255.0
393,19.650000000000002,-1.9081547961930196,-2.127920749177461,-18.14178916680528,-0.06129439607484633,0.13103999699903898,-1.8106460707278054,-0.003291285031317117,0.004738780944816457,-0.0702669143268021,0,70,255.0,255.0,255.0
394,19.700000000000003,-1.9112235435748435,-2.121363693904724,-18.232408665428373,-0.06145376863395623,0.1312248528425293,-1.814121103071447,-0.0030836173330785247,0.0026554527947957474,-0.06873437941885596,0,70,255.0,255.0,255.0
395,19.75,-1.9143,-2.1148,-18.3232,-0.06160275780815417,0.13130554227851857,-1.8175195086696911,-0.0028759496348394475,0.0005721246447747408,-0.06720184451090816,0,70,255.0,255.0,255.0
396,19.8,-1.9173838083244261,-2.1082335618459855,-18.41416013826066,-0.06175108510839508,0.1313609015676633,-1.8208892321872092,-0.0030571423747970975,0.001642246921015171,-0.06758709618981414,0,70,255.0,255.0,255.0
397,19.85,-1.9204752595047894,-2.1016630180746696,-18.50528924426179,-0.061908472045633885,0.1314697669706201,-1.8242782182886725,-0.0032383351147547475,0.0027123691972556012,-0.06797234786872011,0,70,255.0,255.0,255.0
398,19.900000000000002,-1.9235748065229397,-2.0950856933803603,-18.596588281132593,-0.062074918619870564,0.13163213848738886,-1.8276864669740813,-0.0034195278547123975,0.0037824914734960313,-0.0683575995476261,0,70,255.0,255.0,255.0
399,19.950000000000003,-1.9266829023607264,-2.088498912457367,-18.688058212002264,-0.06225042483110513,0.13184801611796967,-1.8311139782434354,-0.0036007205946700475,0.004852613749736462,-0.06874285122653208,0,70,255.0,255.0,255.0
400,20.0,-1.9298,-2.0819,-18.7797,-0.06243499067933756,0.1321173998623625,-1.8345607520967344,-0.0037819133346279066,0.005922736025976816,-0.06912810290543447,0,70,255.0,255.0,255.0
401,20.05,-1.9329262614659428,-2.07528684207058,-18.87151364420355,-0.06261115876452905,0.13240660763978815,-1.8379689454468178,-0.003264810073031769,0.005645575071048676,-0.06719963109790184,0,70,255.0,255.0,255.0
402,20.1,-1.9360606849570683,-2.068659570203484,-18.963495287484843,-0.06276147168664074,0.1326819573694674,-1.8412807152065247,-0.0027477068114356313,0.005368414116120538,-0.06527115929036918,0,70,255.0,255.0,255.0
403,20.150000000000002,-1.9392019777152223,-2.062018877301096,-19.055640108664363,-0.06288592944567263,0.1329434490514002,-1.8444960613758548,-0.002230603549839494,0.005091253161192398,-0.06334268748283654,0,70,255.0,255.0,255.0
404,20.200000000000003,-1.9423488469822512,-2.0553654562658057,-19.14794328656259,-0.0629845320416247,0.13319108268558663,-1.8476149839548086,-0.0017135002882433564,0.00481409220626426,-0.0614142156753039,0,70,255.0,255.0,255.0
405,20.25,-1.9455,-2.0487,-19.2404,-0.06305727947449695,0.13342485827202666,-1.850637482943385,-0.0011963970266469781,0.0045369312513363624,-0.059485743867758956,0,70,255.0,255.0,255.0
406,20.3,-1.9486543458118024,-2.0420230698716915,-19.333006084925152,-0.06311627983348998,0.13365266787318028,-1.8536029860255492,-0.001163617333074129,0.004575452794808222,-0.059134379418807365,0,70,255.0,255.0,255.0
407,20.35,-1.951811600666938,-2.0353347011113962,-19.42576000579885,-0.06317364120780436,0.13388240355150746,-1.8565509208852657,-0.00113083763950128,0.004613974338280081,-0.058783014969855774,0,70,255.0,255.0,255.0
408,20.400000000000002,-1.9549716826161718,-2.028634797415254,-19.518660884209975,-0.06322936359744011,0.13411406530700828,-1.8594812875225348,-0.001098057945928431,0.004652495881751941,-0.05843165052090418,0,70,255.0,255.0,255.0
409,20.450000000000003,-1.9581345097102705,-2.0219232624794086,-19.6117078417474,-0.06328344700239721,0.1343476531396827,-1.8623940859373562,-0.0010652782523555818,0.0046910174252238,-0.05808028607195259,0,70,255.0,255.0,255.0
410,20.5,-1.9613,-2.0152,-19.7049,-0.06333589142267566,0.1345831670495307,-1.8652893161297297,-0.0010324985587829572,0.004729538968695879,-0.0577289216229957,0,70,255.0,255.0,255.0
411,20.55,-1.9644683552868474,-2.0084648784426538,-19.79823641609585,-0.063403721901512,0.1348227208674914,-1.8681631104509668,-0.001680720594670491,0.00485261374973205,-0.057222851226490686,0,70,255.0,255.0,255.0
412,20.6,-1.9676409123751812,-2.001717625350933,-19.89171588931977,-0.06350396348214271,0.13506842842450392,-1.871011601252379,-0.0023289426305580247,0.004975688530768222,-0.056716780829985665,0,70,255.0,255.0,255.0
413,20.650000000000002,-1.9708192918200917,-1.9949579330378857,-19.98533715449576,-0.0636366161645678,0.13532028972056823,-1.8738347885339655,-0.0029771646664455585,0.005098763311804394,-0.05621071043348065,0,70,255.0,255.0,255.0
414,20.700000000000003,-1.9740051141766681,-1.9881854938165588,-20.079098946447836,-0.06380167994878727,0.13557830475568433,-1.8766326722957272,-0.0036253867023330923,0.0052218380928405654,-0.05570464003697563,0,70,255.0,255.0,255.0
415,20.75,-1.9772,-1.9814,-20.173,-0.06399915483480112,0.13584247352985226,-1.879405252537663,-0.004273608738220691,0.005344912873876728,-0.055198569640459993,0,70,255.0,255.0,255.0
416,20.8,-1.9804050330408087,-1.974601416357693,-20.26703865069145,-0.06419683256046271,0.1360964486568557,-1.8821285721705607,-0.0036335002882429543,0.004814092206260182,-0.053734215675449074,0,70,255.0,255.0,255.0
417,20.85,-1.9836191498323381,-1.9677907974848705,-20.361211636922086,-0.06436250486362542,0.13632388275047827,-1.884778674105208,-0.0029933918382652174,0.004283271538643637,-0.052269861710438154,0,70,255.0,255.0,255.0
418,20.900000000000002,-1.986840750103463,-1.9609694704332015,-20.455515297807,-0.06449617174428925,0.13652477581072006,-1.8873555583416048,-0.0023532833882874806,0.003752450871027091,-0.05080550774542723,0,70,255.0,255.0,255.0
419,20.950000000000003,-1.9900682335830588,-1.9541387622543547,-20.549945972461277,-0.06459783320245417,0.136699127837581,-1.8898592248797508,-0.0017131749383097442,0.0032216302034105446,-0.04934115378041631,0,70,255.0,255.0,255.0
420,21.0,-1.9933,-1.9473,-20.6445,-0.06466748923812023,0.1368469388310611,-1.8922896737196464,-0.001073066488332386,0.0026908095357940365,-0.047876799815403714,0,70,255.0,255.0,255.0
421,21.05,-1.996534712549918,-1.9404542561265734,-20.73917458113836,-0.06472094785663743,0.13698348450508657,-1.8946986008668274,-0.0010652782523557169,0.0027710174252242327,-0.04848028607183573,0,70,255.0,255.0,255.0
422,21.1,-1.9997720882954673,-1.933601584709583,-20.8339703629919,-0.0647740170633558,0.13712404057358354,-1.89713770232683,-0.0010574900163790478,0.0028512253146544286,-0.049083772328267744,0,70,255.0,255.0,255.0
423,21.150000000000002,-2.003012107766057,-1.9267417852293067,-20.92888885427626,-0.06482669685827533,0.13726860703655203,-1.8996069780996543,-0.0010497017804023787,0.002931433204084625,-0.04968725858469976,0,70,255.0,255.0,255.0
424,21.200000000000003,-2.0062547514910984,-1.91987465716602,-21.02393156370708,-0.06487898724139604,0.137417183893992,-1.9021064281853,-0.0010419135444257096,0.0030116410935148207,-0.050290744841131774,0,70,255.0,255.0,255.0
425,21.25,-2.0095,-1.913,-21.1191,-0.06493088821271792,0.1375697711459035,-1.9046360525837676,-0.001034125308449374,0.0030918489829450113,-0.05089423109756552,0,70,255.0,255.0,255.0
426,21.3,-2.012748116759519,-1.9061175591360138,-21.214394224755118,-0.06499937601298739,0.13772961332279815,-1.9071090243621296,-0.0017053867023291243,0.003301838092840773,-0.04802464003692104,0,70,255.0,255.0,255.0
427,21.35,-2.016000496985794,-1.8992268636767953,-21.30980851111033,-0.06510142688295083,0.1378999549551876,-1.9094385165874599,-0.0023766480962088745,0.003511827202736534,-0.04515504897627656,0,70,255.0,255.0,255.0
428,21.400000000000002,-2.0192588188323093,-1.8923273886495697,-21.405335685087984,-0.06523704082260827,0.1380807960430718,-1.9116245292597576,-0.0030479094900886248,0.0037218163126322957,-0.04228545791563208,0,70,255.0,255.0,255.0
429,21.450000000000003,-2.02252476045255,-1.8854186090815628,-21.500968572710427,-0.06540621783195971,0.13827213658645082,-1.9136670623790228,-0.003719170883968375,0.003931805422528057,-0.0394158668549876,0,70,255.0,255.0,255.0
430,21.5,-2.0258,-1.8785,-21.5967,-0.0656089579110051,0.13847397658532462,-1.9155661159452562,-0.0043904322778478555,0.0041417945324231376,-0.03654627579434333,0,70,255.0,255.0,255.0
431,21.55,-2.029085620412006,-1.8715715073293722,-21.692524519841164,-0.06580954809140925,0.13865806220372046,-1.9174253016846274,-0.0036331749383181292,0.003221630203410162,-0.03782115378051147,0,70,255.0,255.0,255.0
432,21.6,-2.032380323761358,-1.8646349605832353,-21.788443592566786,-0.06597227540483691,0.13879613960566564,-1.9193482313233075,-0.002875917598788403,0.0023014658743971865,-0.03909603176667961,0,70,255.0,255.0,255.0
433,21.650000000000002,-2.0356822169047066,-1.8576926601724126,-21.884460405371822,-0.0660971398512881,0.13888820879116018,-1.9213349048612955,-0.0021186602592586767,0.001381301545384211,-0.040370909752847746,0,70,255.0,255.0,255.0
434,21.700000000000003,-2.0389894066987035,-1.8507469065077267,-21.980578145451236,-0.06618414143076279,0.13893426976020407,-1.9233853222985922,-0.0013614029197289504,0.0004611372163712355,-0.04164578773901589,0,70,255.0,255.0,255.0
435,21.75,-2.0423,-1.8438,-22.0768,-0.066233280143261,0.1389343225127973,-1.9254994836351969,-0.0006041455801993889,-0.0004590271126425627,-0.042920665725185714,0,70,255.0,255.0,255.0
436,21.8,-2.0456126015924565,-1.8368532115464984,-22.173127695880215,-0.06627443162137664,0.13895013786231922,-1.9275897688993555,-0.0010419135444259381,0.001091641093519091,-0.04069074484115764,0,70,255.0,255.0,255.0
437,21.85,-2.048927807968775,-1.8299036939902626,-22.269557118622533,-0.06633747149770361,0.13904348662214921,-1.9295685581193127,-0.0014796815086524874,0.002642309299680745,-0.038460823957129554,0,70,255.0,255.0,255.0
438,21.900000000000002,-2.052246713548864,-1.822947570660778,-22.366082693424747,-0.06642239977224189,0.1392143687922873,-1.9314358512950685,-0.0019174494728790368,0.004192977505842399,-0.03623090307310148,0,70,255.0,255.0,255.0
439,21.950000000000003,-2.055570412752636,-1.8159809648875287,-22.46269884548464,-0.0665292164449915,0.13946278437273346,-1.933191648426623,-0.002355217437105586,0.005743645712004052,-0.034000982189073395,0,70,255.0,255.0,255.0
440,22.0,-2.0589,-1.809,-22.5594,-0.06665792151595244,0.13978873336348765,-1.9348359495139758,-0.0027929854013321043,0.00729431391816493,-0.03177106130504903,0,70,255.0,255.0,255.0
441,22.05,-2.0622359732181668,-1.8020020464846342,-22.656181496637977,-0.06677272542308486,0.14011738634700488,-1.9364236227179754,-0.0017991708839641598,0.005851805422523461,-0.031735866854938524,0,70,255.0,255.0,255.0
442,22.1,-2.0655764443635443,-1.7949894634557122,-22.753042332943092,-0.06683783860434886,0.14037391390574,-1.9380095361994698,-0.0008053563665962153,0.004409296926881993,-0.03170067240482801,0,70,255.0,255.0,255.0
443,22.150000000000002,-2.068918928899837,-1.7879658571844732,-22.849982420929216,-0.06685326105974448,0.14055831603969307,-1.9395936899584583,0.00018845815077172872,0.002966788431240524,-0.031665477954717504,0,70,255.0,255.0,255.0
444,22.200000000000003,-2.0722609422907543,-1.780934833942156,-22.94700167261023,-0.06681899278927168,0.14067059274886407,-1.9411760839949415,0.0011822726681396736,0.0015242799355990556,-0.03163028350460699,0,70,255.0,255.0,255.0
445,22.25,-2.0756,-1.7739,-23.0441,-0.06673503379293053,0.14071074403325295,-1.9427567183089187,0.002176087185507436,8.177143995702352e-05,-0.0315950890544876,0,70,255.0,255.0,255.0
446,22.3,-2.0789347055348752,-1.7668642025149637,-23.141276717567884,-0.06666666668628596,0.14072431674966115,-1.9442997402287554,0.0005585970802749465,0.000461137216370938,-0.03012578773897088,0,70,255.0,255.0,255.0
447,22.35,-2.08226801457705,-1.7598272521868867,-23.238528749605116,-0.06667917408490304,0.14075685775489005,-1.9457692970828158,-0.001058893024957543,0.0008405029927848525,-0.028656486423454156,0,70,255.0,255.0,255.0
448,22.400000000000002,-2.085603970851787,-1.7527882006013276,-23.335852422858405,-0.06677255598878172,0.14080836704893965,-1.9471653888711007,-0.0026763831301900324,0.001219868769198767,-0.027187185107937432,0,70,255.0,255.0,255.0
449,22.450000000000003,-2.088946618084349,-1.7457460993438456,-23.433244064074465,-0.06694681239792204,0.14087884463180994,-1.9484880155936097,-0.004293873235422522,0.0015992345456126815,-0.02571788379242071,0,70,255.0,255.0,255.0
450,22.5,-2.0923,-1.7387,-23.5307,-0.06720194331232394,0.1409682905035009,-1.9497371772503427,-0.005911363340654563,0.001978600322025681,-0.02424858247690409,0,70,255.0,255.0,255.0
451,22.55,-2.095666804642332,-1.7316491434555097,-23.628217233090492,-0.06745660783176805,0.14106534665435164,-1.9509534163669926,-0.004275217437109501,0.0019036457120037644,-0.0244009821890991,0,70,255.0,255.0,255.0
452,22.6,-2.0990442973282573,-1.7245935277967397,-23.725795468636463,-0.0676294650560349,0.14115865507470127,-1.9521772754692526,-0.002639071533564439,0.0018286911019818476,-0.024553381901294108,0,70,255.0,255.0,255.0
453,22.650000000000002,-2.102428387693016,-1.7175333404102144,-23.82343508763718,-0.06772051498512449,0.14124821576454982,-1.9534087545571222,-0.001002925630019377,0.0017537364919599308,-0.024705781613489113,0,70,255.0,255.0,255.0
454,22.700000000000003,-2.10581498537185,-1.7104687686824593,-23.921136471091938,-0.06772975761903684,0.14133402872389728,-1.9546478536306016,0.000633220273525685,0.0016787818819380142,-0.024858181325684122,0,70,255.0,255.0,255.0
455,22.75,-2.1092,-1.7034,-24.0189,-0.06765719295777195,0.14141609395274363,-1.9558945726896908,0.00226936617707052,0.001603827271916547,-0.025010581037877344,0,70,255.0,255.0,255.0
456,22.8,-2.112580475895796,-1.6963272236629963,-24.116725550070143,-0.06757090198664191,0.1414942966329315,-1.957118594303255,0.0011822726681309194,0.001524279935599092,-0.023950283504686695,0,70,255.0,255.0,255.0
457,22.85,-2.1159579961099215,-1.6892506366261535,-24.21461097584905,-0.06753896569095887,0.14156852194630354,-1.9582896010401596,9.51791591913189e-05,0.0014447325992816373,-0.022889985971496045,0,70,255.0,255.0,255.0
458,22.900000000000002,-2.119335278376149,-1.6821704377578128,-24.312553626592887,-0.06756138407072278,0.14163876989285967,-1.9594075929004047,-0.0009919143497482815,0.0013651852629641824,-0.021829688438305395,0,70,255.0,255.0,255.0
459,22.950000000000003,-2.1227150404282518,-1.6750868259263145,-24.41055085155781,-0.06763815712593368,0.14170504047259996,-1.96047256988399,-0.002079007858687882,0.0012856379266467277,-0.020769390905114746,0,70,255.0,255.0,255.0
460,23.0,-2.1261,-1.668,-24.5086,-0.06776928485659155,0.14176733368552435,-1.961484531990916,-0.003166101367627072,0.0012060905903297225,-0.01970909337192772,0,70,255.0,255.0,255.0
461,23.05,-2.129492091774484,-1.6609099618925045,-24.606698166628938,-0.06790778422166746,0.14183746681392292,-1.9624282064200234,-0.0023738732354095515,0.0015992345456123992,-0.01803788379237223,0,70,255.0,255.0,255.0
462,23.1,-2.132890118232057,-1.6538159256986447,-24.704841427967356,-0.0680066721801325,0.14192725714008558,-1.9632883203701534,-0.0015816451031920307,0.001992378500895076,-0.01636667421281674,0,70,255.0,255.0,255.0
463,23.150000000000002,-2.1362920988023872,-1.646716908558533,-24.803025605991305,-0.06806594873198667,0.14203670466401241,-1.9640648738413053,-0.0007894169709745098,0.002385522456177752,-0.014695464633261253,0,70,255.0,255.0,255.0
464,23.200000000000003,-2.139696052915146,-1.6396119276122805,-24.901246522676843,-0.06808561387722996,0.1421658093857034,-1.9647578668334793,2.8111612430108297e-06,0.002778666411460429,-0.013024255053705762,0,70,255.0,255.0,255.0
465,23.25,-2.1431,-1.6325,-24.9995,-0.06806566761586237,0.14231457130515845,-1.965367299346676,0.0007950392934606976,0.0031718103667421893,-0.011353045474145063,0,70,255.0,255.0,255.0
466,23.3,-2.146502357006268,-1.6253809287669856,-25.097782583414116,-0.06802996112668772,0.14243583611137545,-1.965936580016669,0.000633220273525501,0.0016787818819377308,-0.011418181325575462,0,70,255.0,255.0,255.0
467,23.35,-2.149903130961852,-1.6182576605792662,-25.19609371228155,-0.06800234558850983,0.14248244949335223,-1.9665091174792335,0.00047140125359030434,0.00018575339713327232,-0.01148331717700586,0,70,255.0,255.0,255.0
468,23.400000000000002,-2.153302726414302,-1.611133928008054,-25.29443354944192,-0.06798282100132869,0.14245441145108878,-1.9670849117343696,0.0003095822336551077,-0.0013072750876711864,-0.011548453028436259,0,70,255.0,255.0,255.0
469,23.450000000000003,-2.1567015479111684,-1.604013463624561,-25.392802257734864,-0.0679713873651443,0.1423517219845851,-1.9676639627820771,0.0001477632137199111,-0.0028003035724756447,-0.011613588879866658,0,70,255.0,255.0,255.0
470,23.5,-2.1601,-1.5969,-25.4912,-0.06796804467995671,0.14217438109384123,-1.9682462706223565,-1.4055806215163003e-05,-0.004293332057281329,-0.011678724731298828,0,70,255.0,255.0,255.0
471,23.55,-2.163498480200444,-1.5897959230395529,-25.589626699714607,-0.06797237127157939,0.14200318874057546,-1.968817473513269,-0.00015900785869203056,-0.0025543620733487343,-0.011169390905207514,0,70,255.0,255.0,255.0
472,23.6,-2.166897357920535,-1.582698231984289,-25.688081322906474,-0.06798394546582591,0.14191894488650636,-1.9693632097128773,-0.0003039599111688981,-0.0008153920894161397,-0.0106600570791162,0,70,255.0,255.0,255.0
473,23.650000000000002,-2.170296995540404,-1.5756025794092487,-25.78656259624104,-0.06800276726269627,0.14192164953163386,-1.9698834792211808,-0.00044891196364576564,0.0009235778945164549,-0.010150723253024886,0,70,255.0,255.0,255.0
474,23.700000000000003,-2.1736977554401817,-1.568504617889472,-25.88506924638374,-0.06802883666219049,0.14201130267595802,-1.9703782820381797,-0.0005938640161226332,0.00266254787844905,-0.00964138942693357,0,70,255.0,255.0,255.0
475,23.75,-2.1771,-1.5614,-25.9836,-0.06806215366430854,0.14218790431947875,-1.970847618163874,-0.0007388160685992684,0.004401517862381521,-0.009132055600842293,0,70,255.0,255.0,255.0
476,23.8,-2.180503722191955,-1.5542857790748026,-26.082153017727467,-0.06808055378699265,0.1423674089263246,-1.9712575259302398,2.811161234605444e-06,0.002778666411451768,-0.007264255053786046,0,70,255.0,255.0,255.0
477,23.85,-2.1839074373560075,-1.5471646114835764,-26.180724196092573,-0.06806187254818508,0.14246577096062393,-1.9715740436692526,0.0007444383910684793,0.001155814960522015,-0.0053964545067298,0,70,255.0,255.0,255.0
478,23.900000000000002,-2.187309291424082,-1.540040554354949,-26.27930886559394,-0.0680061099478858,0.1424829904223768,-1.9717971713809128,0.0014860656209023534,-0.0004670364904077375,-0.003528653959673554,0,70,255.0,255.0,255.0
479,23.950000000000003,-2.190707430328105,-1.5329176648175475,-26.377902356730207,-0.06791326598609485,0.14241906731158316,-1.97192690906522,0.002227692850736227,-0.002089887941337491,-0.001660853412617307,0,70,255.0,255.0,255.0
480,24.0,-2.1941,-1.5258,-26.4765,-0.06778334066281218,0.14227400162824305,-1.9719632567221745,0.002969320080570381,-0.0037127393922680163,0.00020694713444235902,0,70,255.0,255.0,255.0
481,24.05,-2.1974858310317344,-1.5186905606612364,-26.575098029375532,-0.0676574135804546,0.14211117555412453,-1.9719604227658074,0.002067763213732486,-0.0028003035724721717,-9.358887975743782e-05,0,70,255.0,255.0,255.0
482,24.1,-2.200866492655435,-1.5115881220814045,-26.673696292723264,-0.06757656434143892,0.14199397127099583,-1.9719726156101502,0.0011662063468945905,-0.0018878677526763272,-0.00039412489395723466,0,70,255.0,255.0,255.0
483,24.150000000000002,-2.204244238763268,-1.5044904031709536,-26.77229554138323,-0.06754079294576514,0.1419223887788569,-1.971999835255203,0.00026464948005669496,-0.0009754319328804826,-0.0006946609081570316,0,70,255.0,255.0,255.0
484,24.200000000000003,-2.2076213232474005,-1.497395122840335,-26.870896526695464,-0.06755009939343326,0.14189642807770778,-1.972042081700966,-0.0006369073867812003,-6.299611308463807e-05,-0.0009951969223568283,0,70,255.0,255.0,255.0
485,24.25,-2.211,-1.4903,-26.9695,-0.06760448368444326,0.14191608916754844,-1.9720993549474386,-0.0015384642536190318,0.0008494397067111414,-0.0012957329365477221,0,70,255.0,255.0,255.0
486,24.3,-2.214381753681107,-1.4832031782802508,-27.068106064770415,-0.0676577918911868,0.14195588885717744,-1.9721327830065243,-0.0005938640161225893,0.0007425478784493385,-4.138942688596708e-05,0,70,255.0,255.0,255.0
487,24.35,-2.217764992022254,-1.4761045001908055,-27.166712233014398,-0.06766387008605552,0.14199034395539337,-1.9721034938901272,0.0003507362213738532,0.0006356560501875355,0.001212954082775788,0,70,255.0,255.0,255.0
488,24.400000000000002,-2.2211473535228476,-1.469004232961235,-27.265315368873175,-0.06762271826904942,0.14201945446219622,-1.9720114875982468,0.0012953364588702957,0.0005287642219257326,0.0024672975924375433,0,70,255.0,255.0,255.0
489,24.450000000000003,-2.2245264766822945,-1.4619026438211093,-27.363912336487967,-0.06753433644016849,0.14204322037758596,-1.9718567641308835,0.0022399366963667382,0.00042187239366392964,0.003721641102099298,0,70,255.0,255.0,255.0
490,24.5,-2.2279,-1.4548,-27.4625,-0.06739872459941275,0.14206164170156263,-1.9716393234880372,0.0031845369338628915,0.0003149805654028004,0.004975984611755635,0,70,255.0,255.0,255.0
491,24.55,-2.231266354243838,-1.4476967262177598,-27.561075311542815,-0.06726341885479799,0.14206526901716426,-1.9713644452080628,0.002227692850727756,-0.0001698879413378387,0.006019146587226857,0,70,255.0,255.0,255.0
492,24.6,-2.234627139255549,-1.4405938771553723,-27.65963557521916,-0.06717595531433998,0.14204465290742885,-1.9710374088293146,0.00127084876759262,-0.0006547564480784778,0.007062308562698079,0,70,255.0,255.0,255.0
493,24.650000000000002,-2.237984747145341,-1.4334926649841055,-27.7581781831241,-0.06713633397803873,0.14199979337235638,-1.9706582143517928,0.0003140046844574843,-0.0011396249548191169,0.0081054705381693,0,70,255.0,255.0,255.0
494,24.700000000000003,-2.2413415700234225,-1.4263943018752252,-27.856700527352697,-0.06714455484589421,0.14193069041194692,-1.9702268617754974,-0.0006428393986776513,-0.001624493461559756,0.009148632513640523,0,70,255.0,255.0,255.0
495,24.75,-2.2447,-1.4193,-27.9552,-0.06720061791790648,0.14183734402620043,-1.9697433511004288,-0.0015996834818129413,-0.0021093619683008047,0.01019179448910812,0,70,255.0,255.0,255.0
496,24.8,-2.2480616293435416,-1.4122107168487106,-28.053674289058335,-0.06725653268962112,0.14173503507416588,-1.9692254361612571,-0.0006369073867726534,-0.0019829961130805244,0.010524803077757033,0,70,255.0,255.0,255.0
497,24.85,-2.25142485095555,-1.4051263911877037,-28.152122266108975,-0.06726430865658374,0.1416390444148924,-1.9686908707926531,0.0003258687082676344,-0.0018566302578602442,0.010857811666405946,0,70,255.0,255.0,255.0
498,24.900000000000002,-2.2547872578957873,-1.3980467071023417,-28.250543098630448,-0.06722394581879436,0.14154937204837986,-1.9681396549946164,0.0012886448033079222,-0.001730264402639964,0.01119082025505486,0,70,255.0,255.0,255.0
499,24.950000000000003,-2.2581464432240166,-1.3909713486779864,-28.34893595410128,-0.06713544417625296,0.14146601797462838,-1.9675717887671476,0.00225142089834821,-0.0016038985474196837,0.011523828843703773,0,70,255.0,255.0,255.0
500,25.0,-2.2615,-1.3839,-28.4473,-0.06699880372895954,0.14138898219363788,-1.9669872721102464,0.0032141969933888737,-0.0014775326922005227,0.01185683743234378,0,70,255.0,255.0,255.0
501,25.05,-2.264846328381996,-1.3768324063873973,-28.54563393222386,-0.06686245038671587,0.14131459068617425,-1.966357810146886,0.002239936696358277,-0.001498127606344202,0.0133216411020719,0,70,255.0,255.0,255.0
502,25.1,-2.2681870569222524,-1.3697685580938108,-28.643934560344967,-0.0667748100593237,0.14123916943300344,-1.965655108000039,0.001265676399327681,-0.0015187225204878812,0.014786444771800019,0,70,255.0,255.0,255.0
503,25.150000000000002,-2.27152462127151,-1.3627085066065252,-28.74219822235414,-0.06673588274678309,0.14116271843412545,-1.9648791656697058,0.0002914161022970845,-0.0015393174346315605,0.01625124844152814,0,70,255.0,255.0,255.0
504,25.200000000000003,-2.274861457080512,-1.3556523034128263,-28.840421256242212,-0.066745668449094,0.14108523768954032,-1.9640299831558865,-0.0006828441947335116,-0.00155991234877524,0.017716052111256257,0,70,255.0,255.0,255.0
505,25.25,-2.2782,-1.3486,-28.9386,-0.06680416716625642,0.14100672719924795,-1.9631075604585806,-0.0016571044917634836,-0.0015805072629198058,0.019180855780975392,0,70,255.0,255.0,255.0
506,25.3,-2.281541857128472,-1.3415516576016988,-29.036731582046233,-0.06686166576351744,0.14092660218113606,-1.962159323251216,-0.0006428393986776049,-0.0016244934615557765,0.018748632513615953,0,70,255.0,255.0,255.0
507,25.35,-2.284885321355441,-1.3345073764370516,-29.134816292511182,-0.06686845110612419,0.14084427785309236,-1.961232697207219,0.0003714256944082738,-0.0016684796601917475,0.018316409246256514,0,70,255.0,255.0,255.0
508,25.400000000000002,-2.2882278570181733,-1.3274672664715552,-29.232855211953016,-0.06682452319407661,0.14075975421511686,-1.9603276823265903,0.0013856907874941525,-0.0017124658588277184,0.017884185978897075,0,70,255.0,255.0,255.0
509,25.450000000000003,-2.2915669284539377,-1.3204314376707054,-29.330849420929898,-0.06672988202737476,0.14067303126720962,-1.9594442786093291,0.0023999558805800313,-0.0017564520574636891,0.017451962711537636,0,70,255.0,255.0,255.0
510,25.5,-2.2949,-1.3134,-29.4288,-0.06658452760601863,0.14058410900937052,-1.9585824860554364,0.003414220973665838,-0.0018004382560996568,0.017019739444178228,0,70,255.0,255.0,255.0
511,25.55,-2.2982254431041156,-1.306372963205806,-29.526706939591215,-0.06644288655921805,0.14049900058928252,-1.957676896848238,0.002251420898356732,-0.0016038985474200879,0.019203828843751256,0,70,255.0,255.0,255.0
512,25.6,-2.301545257655985,-1.2993499361579808,-29.624565869610326,-0.06635938551618295,0.1404237191546285,-1.9566621031710612,0.001088620823047626,-0.001407358838740519,0.021387918243324283,0,70,255.0,255.0,255.0
513,25.650000000000002,-2.304862350655797,-1.2923304275072527,-29.722371329833827,-0.0663340244769133,0.14035826470540846,-1.9555381050239056,-7.41792522614801e-05,-0.00121081913006095,0.02357200764289731,0,70,255.0,255.0,255.0
514,25.700000000000003,-2.308179629103739,-1.285313945904349,-29.82011786003822,-0.0663668034414091,0.1403026372416224,-1.9543049024067716,-0.0012369793275705861,-0.001014279421381381,0.02575609704247034,0,70,255.0,255.0,255.0
515,25.75,-2.3115,-1.2783,-29.9178,-0.06645772240967034,0.14025683676327036,-1.9529624953196587,-0.0023997794028792763,-0.000817739712702048,0.02794018644205387,0,70,255.0,255.0,255.0
516,25.8,-2.314825170455067,-1.2712884895750756,-30.015413459588903,-0.06653478799961064,0.14019739546173332,-1.951581089355828,-0.0006828441947330766,-0.0015599123487800898,0.027316052111165227,0,70,255.0,255.0,255.0
517,25.85,-2.318152048020621,-1.2642808789310231,-30.11295862904753,-0.06652600682914364,0.14010084552839233,-1.9502308901085421,0.001034091013413123,-0.0023020849848581315,0.02669191778027658,0,70,255.0,255.0,255.0
518,25.900000000000002,-2.321476340358642,-1.2572790234994329,-30.210437068711702,-0.06643137889826933,0.1399671869632475,-1.9489118975778004,0.002751026221559323,-0.0030442576209361734,0.026067783449387934,0,70,255.0,255.0,255.0
519,25.950000000000003,-2.3247937551311084,-1.250284778711895,-30.307850338917255,-0.06625090420698772,0.13979641976629872,-1.9476241117636033,0.004467961429705522,-0.003786430257014215,0.02544364911849929,0,70,255.0,255.0,255.0
520,26.0,-2.3281,-1.2433,-30.4052,-0.06598458275529878,0.13958854393754605,-1.9463675326659504,0.006184896637852155,-0.004528602893092426,0.024819514787619568,0,70,255.0,255.0,255.0
521,26.05,-2.3313922750756166,-1.2363258784938906,-30.50248642205318,-0.06572196144233809,0.13938341756378236,-1.9450707457284686,0.004319955880575562,-0.0036764520574548475,0.027051962711652097,0,70,255.0,255.0,255.0
522,26.1,-2.3346737502615316,-1.2293609481179253,-30.59970521419958,-0.06555258716724122,0.13922089873180057,-1.9436623363947851,0.0024550151232989675,-0.0028243012218172694,0.02928441063568463,0,70,255.0,255.0,255.0
523,26.150000000000002,-2.3379490879096383,-1.2224030784950142,-30.69685079531939,-0.0654764599300082,0.13910098744160065,-1.9421423046649002,0.0005900743660223733,-0.001972150386179691,0.031516858559717156,0,70,255.0,255.0,255.0
524,26.200000000000003,-2.3412229503718303,-1.2154501392480688,-30.793917584292807,-0.06549357973063899,0.1390236836931826,-1.9405106505388134,-0.0012748663912542204,-0.0011199995505421128,0.03374930648374969,0,70,255.0,255.0,255.0
525,26.25,-2.3445,-1.2085,-30.8909,-0.0656039465691336,0.13898898748654642,-1.938767374016525,-0.003139807148530238,-0.00026784871490459494,0.0359817544077945,0,70,255.0,255.0,255.0
526,26.3,-2.3477833292424672,-1.2015511964493606,-30.987793652198384,-0.06571336623103612,0.13895693428313918,-1.9369839277302705,-0.0012369793275702264,-0.0010142794213855773,0.035356097042386014,0,70,255.0,255.0,255.0
527,26.35,-2.3510697509332528,-1.1946049285972746,-31.084598914154167,-0.06572764450189063,0.13888755954440785,-1.9352317643122865,0.0006658484933897853,-0.0017607101278665595,0.03473043967697754,0,70,255.0,255.0,255.0
528,26.400000000000002,-2.3543545080028054,-1.1876630625205082,-31.181317350010755,-0.06564678138169713,0.13878086327035252,-1.9335108837625727,0.002568676314349797,-0.0025071408343475417,0.034104782311569055,0,70,255.0,255.0,255.0
529,26.450000000000003,-2.357632843381572,-1.1807274642958279,-31.277950523911564,-0.06547077687045565,0.1386368454609731,-1.9318212860811295,0.004471504135309809,-0.003253571540828524,0.03347912494616057,0,70,255.0,255.0,255.0
530,26.5,-2.3609,-1.1738,-31.3745,-0.06519963096816617,0.13845550611626964,-1.9301629712679569,0.006374331956269463,-0.004000002247310119,0.03285346758075747,0,70,255.0,255.0,255.0
531,26.55,-2.364152807954516,-1.166882135708666,-31.470966169153282,-0.06492857363351678,0.13826084530366142,-1.928465543350474,0.0044679614297055085,-0.003786430257018788,0.03504364911855052,0,70,255.0,255.0,255.0
532,26.6,-2.3673944460054575,-1.159973737492975,-31.56734472918377,-0.06475283482519562,0.13807686309056774,-1.9266586063561018,0.002561590903141554,-0.0035728582667274573,0.03723383065634358,0,70,255.0,255.0,255.0
533,26.650000000000002,-2.370629680079141,-1.1530742714229507,-31.663630204637617,-0.06467241454320263,0.13790355947698865,-1.9247421602848396,0.0006552203765775996,-0.003359286276436126,0.03942401219413663,0,70,255.0,255.0,255.0
534,26.700000000000003,-2.373863276101883,-1.1461832035686172,-31.759817120060976,-0.06468731278753785,0.13774093446292413,-1.9227162051366882,-0.0012511501499863553,-0.0031457142861447953,0.041614193731929684,0,70,255.0,255.0,255.0
535,26.75,-2.3771,-1.1393,-31.8559,-0.06479752955820126,0.13758898804837416,-1.9205807409116467,-0.003157520676549952,-0.0029321422958537013,0.043804375269717255,0,70,255.0,255.0,255.0
536,26.8,-2.38034303893947,-1.1324242607159738,-31.95187447118849,-0.06490833923489635,0.13743968450221436,-1.9184018988678087,-0.0012748663912537771,-0.0030399995505375104,0.04334930648379717,0,70,255.0,255.0,255.0
537,26.85,-2.3835892650449186,-1.1255561214308238,-32.04774056911077,-0.06492501619732663,0.1372849880933204,-1.916245810263267,0.0006077878940423977,-0.0031478568052213194,0.04289423769787709,0,70,255.0,255.0,255.0
538,26.900000000000002,-2.386833971680632,-1.118695851787687,-32.14349943143881,-0.0648475604454921,0.13712489882169224,-1.914112475098021,0.0024904421793385725,-0.0032557140599051284,0.04243916891195701,0,70,255.0,255.0,255.0
539,26.950000000000003,-2.3900724522108967,-1.1118437214297001,-32.23915219584456,-0.06467597197939277,0.1369594166873299,-1.912001893372071,0.004373096464634747,-0.0033635713145889375,0.04198410012603692,0,70,255.0,255.0,255.0
540,27.0,-2.3933,-1.105,-32.3347,-0.06441025079902866,0.13678854169023333,-1.9099140650854174,0.0062557507499306775,-0.0034714285692725166,0.04152903134010977,0,70,255.0,255.0,255.0
541,27.05,-2.396513436287604,-1.098164821427438,-32.43014314609276,-0.06414206942689765,0.1366204166874808,-1.9077988611782646,0.004471504135309564,-0.0032535715408286117,0.04307912494600112,0,70,255.0,255.0,255.0
542,27.1,-2.3997156938148683,-1.091337776783728,-32.525478594373155,-0.06396310038549771,0.13646318453615047,-1.9056061525908172,0.0026872575206884513,-0.003035714512384707,0.04462921855189248,0,70,255.0,255.0,255.0
543,27.150000000000002,-2.402911233198332,-1.084518321426299,-32.620702469607174,-0.0638733436748288,0.13631684523624232,-1.9033359393230753,0.0009030109060673384,-0.0028178574839408015,0.046179312157783835,0,70,255.0,255.0,255.0
544,27.200000000000003,-2.4061045150545306,-1.07770591071258,-32.71581089656079,-0.06387279929489097,0.13618139878775637,-1.9009882213750386,-0.0008812357085537749,-0.002600000455496897,0.047729405763675195,0,70,255.0,255.0,255.0
545,27.25,-2.4093,-1.0709,-32.8108,-0.06396146724568418,0.13605684519069267,-1.898562998746708,-0.0026654823231747615,-0.0023821434270527853,0.049279499369557556,0,70,255.0,255.0,255.0
546,27.3,-2.4125008159101156,-1.0641004535742737,-32.90566654444047,-0.0640593830575132,0.13591864874786272,-1.8960986564191697,-0.0012511501499861155,-0.0031457142861451293,0.04929419373197774,0,70,255.0,255.0,255.0
547,27.35,-2.415704759695607,-1.0573087714342626,-33.000409853396626,-0.06408658226068278,0.13574227376207815,-1.8936335793735102,0.0001631820232025306,-0.003909285145237473,0.04930888809439793,0,70,255.0,255.0,255.0
548,27.400000000000002,-2.4189082955260397,-1.0505268625071147,-33.09502989013252,-0.06404306485519294,0.13552772023333895,-1.8911677676097298,0.001577514196391177,-0.004672856004329816,0.049323582456818116,0,70,255.0,255.0,255.0
549,27.450000000000003,-2.422107887570982,-1.043756635719978,-33.189526617912286,-0.06392883084104367,0.13527498816164515,-1.8887012211278285,0.0029918463695798227,-0.0054364268634221604,0.0493382768192383,0,70,255.0,255.0,255.0
550,27.5,-2.4253,-1.037,-33.2839,-0.06374388021823499,0.13498407754699673,-1.8862339399278059,0.0044061785427678135,-0.006199997722515116,0.04935297118166382,0,70,255.0,255.0,255.0
551,27.55,-2.4284817000719325,-1.0302581642754665,-33.378149076145355,-0.06352439834304993,0.13469698832106902,-1.8837105131451086,0.0043730964646343734,-0.005283571314593192,0.051584100126219244,0,70,255.0,255.0,255.0
552,27.6,-2.431652467402704,-1.0235295374792197,-33.47226919204039,-0.06330657057177154,0.1344557204155374,-1.8810755299151838,0.004340014386500933,-0.004367144906671268,0.05381522907077467,0,70,255.0,255.0,255.0
553,27.650000000000002,-2.434812384697508,-1.0168118285452392,-33.56625476986276,-0.06309039690439984,0.13426027383040187,-1.8783289902380311,0.004306932308367493,-0.003450718498749344,0.056046358015330096,0,70,255.0,255.0,255.0
554,27.700000000000003,-2.437961534661542,-1.0101027464075059,-33.66010023179008,-0.06287587734093479,0.13411064856566246,-1.8754708941136509,0.004273850230234053,-0.0025342920908274203,0.05827748695988552,0,70,255.0,255.0,255.0
555,27.75,-2.4411,-1.0034,-33.7538,-0.06266301188137645,0.13400684462131918,-1.8725012415420428,0.004240768152100505,-0.0016178656829053395,0.06050861590444434,0,70,255.0,255.0,255.0
556,27.8,-2.4442283838021543,-0.9967020893238596,-33.84734995097811,-0.06248302357028778,0.13390139796785924,-1.869507291000344,0.0029587642914460184,-0.002600000455492349,0.05924940576350755,0,70,255.0,255.0,255.0
557,27.85,-2.4473493706935794,-0.9900106786488577,-33.940751778441815,-0.062367135452231846,0.13374684457576996,-1.866576300965692,0.001676760430791532,-0.0035821352280793585,0.05799019562257076,0,70,255.0,255.0,255.0
558,27.900000000000002,-2.450466165683928,-0.9833282233119263,-34.03400863041647,-0.062315347527208624,0.13354318444505128,-1.8637082714380866,0.00039475657013704566,-0.0045642700006663685,0.056730985481633966,0,70,255.0,255.0,255.0
559,27.950000000000003,-2.4535819737828506,-0.9766571786499963,-34.127123654927416,-0.062327659795218135,0.13329041757570328,-1.8609032024175285,-0.0008872472905174407,-0.0055464047732533776,0.05547177534069718,0,70,255.0,255.0,255.0
560,28.0,-2.4567,-0.97,-34.2201,-0.06240407225626036,0.132988543967726,-1.858161093904017,-0.0021692511511716694,-0.006528539545839651,0.0542125651997587,0,70,255.0,255.0,255.0
