idx,t,px,py,pz,vx,vy,vz,ax,ay,az,yaw,mode,ledr,ledg,ledb
0,0.0,-1.5,3.0,0.0,2.312022679198878e-20,-1.98773971664012e-20,0.017974594246339348,-2.7744272150386533e-19,2.385287659968144e-19,-0.5084951309560722,0,70,255.0,255.0,255.0
1,0.05,-1.5,3.0,0.00026468539286821644,1.0635304324314839e-20,-9.14360269654455e-21,-0.007355686646683905,-2.219541772030923e-19,1.9082301279745152e-19,-0.5047161047648578,0,70,255.0,255.0,255.0
2,0.1,-1.5,3.0,-0.0007324194761757119,9.248090716795516e-22,-7.950958866560455e-22,-0.03249701623014644,-1.6646563290231919e-19,1.4311725959808863e-19,-0.5009370785736433,0,70,255.0,255.0,255.0
3,0.15000000000000002,-1.5,3.0,-0.002981867041653749,-6.01125896591708e-21,5.168123263264319e-21,-0.05744939450404825,-1.1097708860154612e-19,9.541150639872574e-20,-0.49715805238242894,0,70,255.0,255.0,255.0
4,0.2,-1.5,3.0,-0.006474209738087858,-1.0172899788475061e-20,8.746054753216529e-21,-0.08221282146838933,-5.548854430077305e-20,4.770575319936287e-20,-0.4933790261912145,0,70,255.0,255.0,255.0
5,0.25,-1.5,3.0,-0.0112,-1.156011339599439e-20,9.9386985832006e-21,-0.10678729712316967,0.0,0.0,-0.4895999999999998,0,70,255.0,255.0,255.0
6,0.30000000000000004,-1.5,3.0,-0.01714979026191215,-1.0172899788475061e-20,8.746054753216526e-21,-0.13117282146838932,5.548854430077312e-20,-4.770575319936292e-20,-0.4858209738087854,0,70,255.0,255.0,255.0
7,0.35000000000000003,-1.5,3.0,-0.024314132958346255,-6.011258965917079e-21,5.168123263264308e-21,-0.15536939450404824,1.1097708860154616e-19,-9.54115063987258e-20,-0.4820419476175711,0,70,255.0,255.0,255.0
8,0.4,-1.5,3.0,-0.032683580523824286,9.248090716795539e-22,-7.950958866560515e-22,-0.1793770162301464,1.664656329023192e-19,-1.4311725959808868e-19,-0.4782629214263567,0,70,255.0,255.0,255.0
9,0.45,-1.5,3.0,-0.04224868539286821,1.063530432431484e-20,-9.143602696544559e-21,-0.20319568664668392,2.219541772030923e-19,-1.9082301279745155e-19,-0.47448389523514234,0,70,255.0,255.0,255.0
10,0.5,-1.5,3.0,-0.053,2.312022679198878e-20,-1.98773971664012e-20,-0.22682540575366067,2.7744272150386537e-19,-2.385287659968144e-19,-0.4707048690439266,0,70,255.0,255.0,255.0
11,0.55,-1.5,3.0,-0.06492632434521964,3.0056294829585416e-20,-2.5840616316321558e-20,-0.2501610274797589,-2.407412430484045e-34,1.925929944387236e-34,-0.4627199999999996,0,70,255.0,255.0,255.0
12,0.6000000000000001,-1.5,3.0,-0.0780094486904393,2.3120226791988755e-20,-1.987739716640118e-20,-0.27309740575366065,-2.7744272150386586e-19,2.385287659968148e-19,-0.45473513095607254,0,70,255.0,255.0,255.0
13,0.65,-1.5,3.0,-0.0922294108630491,2.312022679198869e-21,-1.9877397166401205e-21,-0.2956345405753661,-5.548854430077308e-19,4.770575319936289e-19,-0.4467502619121455,0,70,255.0,255.0,255.0
14,0.7000000000000001,-1.5,3.0,-0.10756624869043929,-3.236831750878436e-20,2.7828356032961723e-20,-0.3177724319448752,-8.323281645115966e-19,7.155862979904434e-19,-0.4387653928682185,0,70,255.0,255.0,255.0
15,0.75,-1.5,3.0,-0.124,-8.092079377196072e-20,6.95708900824042e-20,-0.3395110798621879,-1.1097708860154617e-18,9.541150639872577e-19,-0.43078052382429144,0,70,255.0,255.0,255.0
16,0.8,-1.5,3.0,-0.1415121123572093,-1.1005227952986659e-19,9.461641051206971e-20,-0.3609350686125756,-5.548854430077237e-20,4.770575319936217e-20,-0.4261790261912144,0,70,255.0,255.0,255.0
17,0.8500000000000001,-1.5,3.0,-0.16008967227989668,-8.646964820203797e-20,7.434146540234042e-20,-0.3821289824813094,9.98793797413917e-19,-8.587035575885333e-19,-0.42157752855813735,0,70,255.0,255.0,255.0
18,0.9,-1.5,3.0,-0.17972117602397936,-1.0172899788475028e-20,8.746054753216523e-21,-0.4030928214683893,2.053076139128604e-18,-1.765112868376427e-18,-0.4169760309250603,0,70,255.0,255.0,255.0
19,0.9500000000000001,-1.5,3.0,-0.20039511984537475,1.1883796571082255e-19,-1.0216982143530236e-19,-0.4238265855738154,3.1073584808432933e-18,-2.6715221791643228e-18,-0.41237453329198326,0,70,255.0,255.0,255.0
20,1.0,-1.5,3.0,-0.2221,3.0056294829585414e-19,-2.584061631632156e-19,-0.44433027479758763,4.161640822557982e-18,-3.577931489952216e-18,-0.4077730356589071,0,70,255.0,255.0,255.0
21,1.05,-1.5,3.0,-0.24482282622594312,4.10152823289881e-19,-3.5262502573195737e-19,-0.46451469806993884,2.219541772030895e-19,-1.908230127974483e-19,-0.39960389523514184,0,70,255.0,255.0,255.0
22,1.1,-1.5,3.0,-0.26854466218997414,3.227583660161631e-19,-2.774884644429605e-19,-0.48429066432110185,-3.717732468151803e-18,3.1962854643573197e-18,-0.39143475481137663,0,70,255.0,255.0,255.0
23,1.1500000000000001,-1.5,3.0,-0.2932450850410336,3.837957647470039e-20,-3.299647929622499e-20,-0.5036581735510766,-7.657419113506694e-18,6.5833939415120866e-18,-0.38326561438761136,0,70,255.0,255.0,255.0
24,1.2000000000000002,-1.5,3.0,-0.31890367192806196,-4.42983545334507e-19,3.8085092970824867e-19,-0.522617225759863,-1.1597105758861587e-17,9.970502418666856e-18,-0.3750964739638461,0,70,255.0,255.0,255.0
25,1.25,-1.5,3.0,-0.3455,-1.1213309994114559e-18,9.640537625704583e-19,-0.5411678209474611,-1.5536792404216466e-17,1.3357610895821603e-17,-0.366927333540076,0,70,255.0,255.0,255.0
26,1.3,-1.5,3.0,-0.37301498273901823,-1.5305590136296577e-18,1.3158836924157594e-18,-0.5593901391076684,-8.323281645115862e-19,7.155862979904306e-19,-0.3619653928682176,0,70,255.0,255.0,255.0
27,1.35,-1.5,3.0,-0.401434878960207,-1.2045638158626143e-18,1.0356123923695017e-18,-0.577364360234283,1.3872136075193294e-17,-1.1926438299840742e-17,-0.3570034521963592,0,70,255.0,255.0,255.0
28,1.4000000000000001,-1.5,3.0,-0.43074728381188665,-1.43345406110327e-19,1.2323986243168378e-19,-0.5950904843273044,2.8576600314898177e-17,-2.4568462897671916e-17,-0.3520415115245008,0,70,255.0,255.0,255.0
29,1.4500000000000002,-1.5,3.0,-0.4609397924423776,1.6530962156272057e-18,-1.4212338973976917e-18,-0.612568511386733,4.3281064554603053e-17,-3.721048749550309e-17,-0.3470795708526424,0,70,255.0,255.0,255.0
30,1.5,-1.5,3.0,-0.492,4.1847610493499696e-18,-3.597808887118617e-18,-0.6297984414125685,5.798552879430787e-17,-4.9852512093334207e-17,-0.34211763018077956,0,70,255.0,255.0,255.0
31,1.55,-1.5,3.0,-0.5239148428179841,5.712083231228749e-18,-4.9109097439310805e-18,-0.6467407454993876,3.107358480843245e-18,-2.6715221791642723e-18,-0.33557453329198433,0,70,255.0,255.0,255.0
32,1.6,-1.5,3.0,-0.5566686219691981,4.495496897434295e-18,-3.8649611050350434e-18,-0.6633558947417669,-5.1770811832621384e-17,4.450946773500566e-17,-0.3290314364031891,0,70,255.0,255.0,255.0
33,1.6500000000000001,-1.5,3.0,-0.5902449797114202,5.350020479666053e-19,-4.599629704305106e-19,-0.6796438891397065,-1.0664898214608601e-16,9.169045764917559e-17,-0.3224883395143939,0,70,255.0,255.0,255.0
34,1.7000000000000002,-1.5,3.0,-0.6246275583024282,-6.169401317174317e-18,5.304084659882524e-18,-0.6956047286932063,-1.6152715245955064e-16,1.3887144756334554e-16,-0.31594524262559864,0,70,255.0,255.0,255.0
35,1.75,-1.5,3.0,-0.6598,-1.5617713197988422e-17,1.342718178590401e-17,-0.7112384134022662,-2.1640532277301503e-16,1.8605243747751524e-16,-0.3094021457368026,0,70,255.0,255.0,255.0
36,1.8,-1.5,3.0,-0.6957456459890456,-2.1317773911285337e-17,1.8327755283308563e-17,-0.7265268788947824,-1.1597105758861373e-17,9.970502418666716e-18,-0.3021364739638418,0,70,255.0,255.0,255.0
37,1.85,-1.5,3.0,-0.7324466331630008,-1.677742377387456e-17,1.4424232027770684e-17,-0.7414520607986504,1.9321111125529228e-16,-1.661114326401818e-16,-0.2948708021908811,0,70,255.0,255.0,255.0
38,1.9000000000000001,-1.5,3.0,-0.7698847973424333,-1.9966627857560916e-18,1.7166120192903632e-18,-0.7560139591138705,3.980193282694459e-16,-3.421933676990304e-16,-0.2876051304179203,0,70,255.0,255.0,255.0
39,1.9500000000000002,-1.5,3.0,-0.8080419743479106,2.302450905307006e-17,-1.9795104742132386e-17,-0.7702125738404425,6.028275452835996e-16,-5.182753027578789e-16,-0.2803394586449595,0,70,255.0,255.0,255.0
40,2.0,-1.5,3.0,-0.8469,5.828609174260372e-17,-5.011091825649742e-17,-0.7840479049783664,8.076357622977523e-16,-6.943572378167269e-16,-0.27307378687200234,0,70,255.0,255.0,255.0
41,2.0500000000000003,-1.5,3.0,-0.8864417732258338,7.95590124139126e-17,-6.840011138930319e-17,-0.7975837389214826,4.328106455459897e-17,-3.7210487495499724e-17,-0.2683595708526407,0,70,255.0,255.0,255.0
42,2.1,-1.5,3.0,-0.9266544453787988,6.261419819806394e-17,-5.3831967006047676e-17,-0.8108838620636305,-7.210736331885476e-16,6.199362628257217e-16,-0.26364535483327917,0,70,255.0,255.0,255.0
43,2.15,-1.5,3.0,-0.967526230918847,7.451649095058091e-18,-6.406485106731235e-18,-0.8239482744048104,-1.4854283309316943e-15,1.2770830131469431e-15,-0.25893113881391766,0,70,255.0,255.0,255.0
44,2.2,-1.5,3.0,-1.0090453443059304,-8.592863489510593e-17,7.387633430864703e-17,-0.8367769759450222,-2.2497830286748473e-15,1.93422976346817e-15,-0.25421692279455604,0,70,255.0,255.0,255.0
45,2.25,-1.5,3.0,-1.0512,-2.1752665377242647e-16,1.870164912400857e-16,-0.849369966684266,-3.014137726417994e-15,2.5913765137893917e-15,-0.2495027067751927,0,70,255.0,255.0,255.0
46,2.3000000000000003,-1.5,3.0,-1.0939768611076202,-2.9691827574436517e-16,2.5527269027390416e-16,-0.8616341654192858,-1.6152715245953598e-16,1.3887144756333248e-16,-0.2410652426256003,0,70,255.0,255.0,255.0
47,2.35,-1.5,3.0,-1.1373563853218036,-2.3367936901838137e-16,2.0090363599642008e-16,-0.8734764909468261,2.691083421498897e-15,-2.3136336186627047e-15,-0.23262777847600802,0,70,255.0,255.0,255.0
48,2.4000000000000004,-1.5,3.0,-1.181317478982178,-2.780993359447387e-17,2.3909328407632346e-17,-0.8848969432668867,5.543693995457355e-15,-4.7661386848887635e-15,-0.22419031432641562,0,70,255.0,255.0,255.0
49,2.45,-1.5,3.0,-1.225839048428368,3.206900305273534e-16,-2.757102324924557e-16,-0.8958955223794677,8.396304569415787e-15,-7.218643751114802e-15,-0.2157528501768233,0,70,255.0,255.0,255.0
50,2.5,-1.5,3.0,-1.2709,8.118205233471022e-16,-6.979550467038453e-16,-0.906472228284569,1.1248915143374222e-14,-9.671148817340838e-15,-0.2073153860272292,0,70,255.0,255.0,255.0
51,2.5500000000000003,-1.5,3.0,-1.3164811823436866,1.1081140905635479e-15,-9.526906497063134e-16,-0.9167435994013737,6.028275452835419e-16,-5.18275302757828e-16,-0.20353945864496265,0,70,255.0,255.0,255.0
52,2.6,-1.5,3.0,-1.3625712133339853,8.721032778754612e-16,-7.497825769796323e-16,-0.9268261741490652,-1.0043260052807044e-14,8.6345982118251e-15,-0.19976353126269614,0,70,255.0,255.0,255.0
53,2.6500000000000004,-1.4999999999999998,3.0,-1.4091606531524417,1.037880852828378e-16,-8.923082852379859e-17,-0.9367199525276435,-2.0689347650897724e-14,1.778747172640811e-14,-0.1959876038804296,0,70,255.0,255.0,255.0
54,2.7,-1.4999999999999998,3.0000000000000004,-1.456240061980598,-1.1968314872143084e-15,1.0289645956611763e-15,-0.9464249345371082,-3.133543524898831e-14,2.6940345240991037e-14,-0.19221167649816306,0,70,255.0,255.0,255.0
55,2.75,-1.5,3.0,-1.5038,-3.0297554396159823e-15,2.6048036955752955e-15,-0.9559411201774596,-4.19815228470789e-14,3.6093218755573956e-14,-0.18843574911589567,0,70,255.0,255.0,255.0
56,2.8000000000000003,-1.5000000000000002,3.0,-1.5518288095176342,-4.135538086509827e-15,3.55548990855135e-15,-0.9651354369752208,-2.249783028674631e-15,1.9342297634679776e-15,-0.1793369227945513,0,70,255.0,255.0,255.0
57,2.85,-1.5000000000000002,3.0000000000000004,-1.6003059613422546,-3.2547337424834628e-15,2.7982266719221084e-15,-0.9738748124569148,3.7481956789729286e-14,-3.22247592286377e-14,-0.17023809647320698,0,70,255.0,255.0,255.0
58,2.9000000000000004,-1.5000000000000004,3.0000000000000004,-1.649208708408058,-3.8734240753687733e-16,3.3301398568756124e-16,-0.9821592466225415,7.721369660813355e-14,-6.638374822074366e-14,-0.1611392701518626,0,70,255.0,255.0,255.0
59,2.95,-1.5000000000000004,3.0000000000000004,-1.698514303649241,4.466635918329879e-15,-3.840148150152248e-15,-0.989988739472101,1.1694543642653748e-13,-1.0054273721284935e-13,-0.1520404438305183,0,70,255.0,255.0,255.0
60,3.0,-1.5,3.0,-1.7482,1.1307201235116827e-14,-9.721259735597336e-15,-0.9973632910055933,1.5667717624494133e-13,-1.3470172620495503e-13,-0.142941617509174,0,70,255.0,255.0,255.0
61,3.0500000000000003,-1.4999999999999991,2.9999999999999996,-1.798245179585778,1.5434038255475755e-14,-1.3269268984499084e-14,-1.004410652697743,8.396304569414976e-15,-7.218643751114117e-15,-0.13895285017681844,0,70,255.0,255.0,255.0
62,3.1,-1.4999999999999984,2.9999999999999987,-1.8486377412969974,1.2146831692058395e-14,-1.0443124110708803e-14,-1.0112585760232753,-1.3988456710611007e-13,1.2026443870272568e-13,-0.13496408284446293,0,70,255.0,255.0,255.0
63,3.1500000000000004,-1.4999999999999982,2.9999999999999987,-1.8993677132153286,1.4455815448646715e-15,-1.2428251142264523e-15,-1.0179070609821896,-2.881654387816364e-13,2.477475211565666e-13,-0.13097531551210737,0,70,255.0,255.0,255.0
64,3.2,-1.4999999999999987,2.999999999999999,-1.9504251234224395,-1.66697121861052e-14,1.4331628004947822e-14,-1.0243561075744858,-4.3644631045716147e-13,3.752306036104064e-13,-0.12698654817975186,0,70,255.0,255.0,255.0
65,3.25,-1.5,3.0,-2.0018,-4.219904950085132e-14,3.628023524681405e-14,-1.0306057158001645,-5.847271821326866e-13,5.027136860642462e-13,-0.12299778084739543,0,70,255.0,255.0,255.0
66,3.3000000000000003,-1.5000000000000027,3.000000000000002,-2.0534808721392555,-5.76006149353932e-14,4.952158602944499e-14,-1.0365659522338038,-3.133543524898532e-14,2.6940345240988592e-14,-0.11541167649817506,0,70,255.0,255.0,255.0
67,3.35,-1.5000000000000053,3.0000000000000044,-2.1054502734697556,-4.533259302575011e-14,3.897426977091312e-14,-1.042146883449982,5.220563116347109e-13,-4.4883299558226476e-13,-0.10782557214895475,0,70,255.0,255.0,255.0
68,3.4000000000000004,-1.5000000000000069,3.0000000000000058,-2.157689238730629,-5.39498377192181e-15,4.638286471218248e-15,-1.0473485094486992,1.0754480585184123e-12,-9.246063364055225e-13,-0.10023946779973437,0,70,255.0,255.0,255.0
69,3.45,-1.5000000000000056,3.0000000000000044,-2.2101788026610016,6.221221282609095e-14,-5.3486363869638987e-14,-1.0521708302299555,1.6288398054021084e-12,-1.4003796772287757e-12,-0.09265336345051406,0,70,255.0,255.0,255.0
70,3.5,-1.5,3.0,-2.2629,1.5748899676828847e-13,-1.3539968125165886e-13,-1.0566138457937506,2.182231552285805e-12,-1.87615301805203e-12,-0.08506725910129731,0,70,255.0,255.0,255.0
71,3.5500000000000003,-1.4999999999999905,2.999999999999992,-2.315834531857202,2.149684214860971e-13,-1.8481707513328086e-13,-1.060717538367046,1.1694543642652678e-13,-1.0054273721284035e-13,-0.07908044383051088,0,70,255.0,255.0,255.0
72,3.6,-1.4999999999999802,2.999999999999983,-2.368966764823979,1.6918354041094207e-13,-1.4545395497294371e-13,-1.0645218901768017,-1.948340679432734e-12,1.6750675436263337e-12,-0.07309362855972451,0,70,255.0,255.0,255.0
73,3.6500000000000004,-1.4999999999999751,2.9999999999999782,-2.4222817318621566,2.0134353542822665e-14,-1.731032077064657e-14,-1.0680269012230184,-4.013626795292012e-12,3.4506778244655237e-12,-0.06710681328893808,0,70,255.0,255.0,255.0
74,3.7,-1.4999999999999798,2.999999999999983,-2.4757644659335556,-2.3217913911825854e-13,1.9961382747360807e-13,-1.0712325715056954,-6.078912911151273e-12,5.226288105304698e-12,-0.06111999801815171,0,70,255.0,255.0,255.0
75,3.75,-1.5,3.0,-2.5294,-5.877569375723025e-13,5.053184897598214e-13,-1.0741389010248334,-8.14419902701053e-12,7.0018983861438715e-12,-0.05513318274736534,0,70,255.0,255.0,255.0
76,3.8000000000000003,-1.5000000000000364,3.0000000000000315,-2.5831730004319393,-8.022730710089948e-13,6.897467145036785e-13,-1.0767238942980113,-4.3644631045711805e-13,3.752306036103697e-13,-0.04826654817975037,0,70,255.0,255.0,255.0
77,3.85,-1.5000000000000737,3.0000000000000635,-2.637066667234328,-6.314015686180178e-13,5.428415501208613e-13,-1.0789655558428084,7.2713064060962266e-12,-6.251437178923072e-12,-0.04139991361213545,0,70,255.0,255.0,255.0
78,3.9000000000000004,-1.500000000000093,3.00000000000008,-2.6910638338207473,-7.514243039936834e-14,6.460299661136744e-14,-1.080863885659225,1.497905912264964e-11,-1.2878104961456576e-11,-0.03453327904452048,0,70,255.0,255.0,255.0
79,3.95,-1.5000000000000748,3.0000000000000644,-2.745147333604778,8.66504343646944e-13,-7.449689460247941e-13,-1.0824188837472606,2.2686811839202984e-11,-1.9504772743990017e-11,-0.027666644476905564,0,70,255.0,255.0,255.0
80,4.0,-1.5,3.0,-2.7993,2.1935387535209214e-12,-1.885874277787627e-12,-1.0836305501069157,3.039456455575631e-11,-2.613144052652346e-11,-0.02080000990929598,0,70,255.0,255.0,255.0
81,4.05,-1.4999999999998643,2.999999999999883,-2.853505466415041,2.994123862549881e-12,-2.5741697828814326e-12,-1.0845468844409112,1.6288398054022011e-12,-1.400379677228864e-12,-0.015853363450525057,0,70,255.0,255.0,255.0
82,4.1000000000000005,-1.4999999999997247,2.9999999999997633,-2.9077505662387098,2.356422734061117e-12,-2.025912245510493e-12,-1.0852158864519683,-2.7136884944952417e-11,2.3330681172066173e-11,-0.010906716991754042,0,70,255.0,255.0,255.0
83,4.15,-1.4999999999996525,2.9999999999997016,-2.962022932854856,2.804353680546512e-13,-2.411016656748246e-13,-1.0856375561400866,-5.5902609695306525e-11,4.8061742021360774e-11,-0.005960070532983117,0,70,255.0,255.0,255.0
84,4.2,-1.4999999999997204,2.9999999999997597,-3.016310199647336,-3.2338382354695164e-12,2.7802619566255673e-12,-1.0858118935052665,-8.466833444566064e-11,7.279280287065537e-11,-0.0010134240742121943,0,70,255.0,255.0,255.0
85,4.25,-1.5,3.0,-3.0706,-8.186398076511382e-12,7.0381786213906865e-12,-1.0857388985475076,-1.1343405919601472e-10,9.752386371994995e-11,0.003933222384556956,0,70,255.0,255.0,255.0
86,4.3,-1.5000000000005065,3.000000000000435,-3.124878733907896,-1.117422237919053e-11,9.606932417022052e-12,-1.085344567938347,-6.0789129111516314e-12,5.22628810530501e-12,0.011840001981865073,0,70,255.0,255.0,255.0
87,4.3500000000000005,-1.5000000000010278,3.0000000000008837,-3.1791278678108377,-8.794289367626455e-12,7.560807431921108e-12,-1.084554898349321,1.0127623337371337e-10,-8.707128750934156e-11,0.01974678157917333,0,70,255.0,255.0,255.0
88,4.4,-1.5000000000012963,3.0000000000011147,-3.2333276347598305,-1.0465990418192373e-12,8.99803666087929e-13,-1.0833698897804298,2.0863137965857647e-10,-1.793688631239865e-10,0.027653561176481444,0,70,255.0,255.0,255.0
89,4.45,-1.5000000000010432,3.000000000000897,-3.2874582678058824,1.2068848598231117e-11,-1.037607888047748e-11,-1.081789542231673,3.1598652594343955e-10,-2.7166643873863147e-10,0.03556034077378956,0,70,255.0,255.0,255.0
90,4.5,-1.5,3.0,-3.3415,3.0552053552524605e-11,-2.6266840207775118e-11,-1.0798138557030508,4.233416722283026e-10,-3.6396401435327633e-10,0.04346712037109768,0,70,255.0,255.0,255.0
91,4.55,-1.4999999999981102,2.9999999999983755,-3.3954339979533756,4.1702765654212244e-11,-3.5853559885206774e-11,-1.0774988438056963,2.2686811839204305e-11,-1.9504772743991187e-11,0.049133355523083094,0,70,255.0,255.0,255.0
92,4.6000000000000005,-1.4999999999961637,2.9999999999967017,-3.4492451625179434,3.2820734736444696e-11,-2.8217317482173934e-11,-1.0749005201507422,-3.7796804854990104e-10,3.2495446886530006e-10,0.05479959067506861,0,70,255.0,255.0,255.0
93,4.65,-1.4999999999951619,2.9999999999958407,-3.5029193281058233,3.9059607992222924e-12,-3.3581129986768905e-12,-1.0720188847381893,-7.786229089389993e-10,6.694137104745852e-10,0.060465825827054016,0,70,255.0,255.0,255.0
94,4.7,-1.499999999996107,2.999999999996653,-3.5564423291291356,-4.504155615745497e-11,3.872405356528435e-11,-1.068853937568037,-1.1792777693280976e-09,1.0138729520838705e-09,0.06613206097903943,0,70,255.0,255.0,255.0
95,4.75,-1.5,3.0,-3.6098,-1.1402181613358704e-10,9.802918220970978e-11,-1.0654056786402855,-1.579932629717196e-09,1.3583321936931555e-09,0.07179829613102484,0,70,255.0,255.0,255.0
96,4.800000000000001,-1.5000000000070528,3.0000000000060636,-3.6629780742786036,-1.5563684023765853e-10,1.3380730712380508e-10,-1.0616680568388654,-8.466833444563948e-11,7.279280287063703e-11,0.07770657592577529,0,70,255.0,255.0,255.0
97,4.8500000000000005,-1.5000000000143177,3.0000000000123093,-3.715961882117391,-1.224886495781524e-10,1.0530846249677466e-10,-1.057635021047708,1.4105959608258905e-09,-1.2127465879518587e-09,0.08361485572052564,0,70,255.0,255.0,255.0
98,4.9,-1.5000000000180558,3.000000000015523,-3.7687366528168784,-1.457724415506995e-11,1.2532648328619714e-11,-1.0533065712668128,2.9058602560974207e-09,-2.498285978774355e-09,0.08952313551527599,0,70,255.0,255.0,255.0
99,4.95,-1.5000000000145295,3.0000000000124913,-3.8212876156775764,1.6809737603158864e-10,-1.4452013538065995e-10,-1.0486827074961804,4.401124551368951e-09,-3.78382536959685e-09,0.09543141531002634,0,70,255.0,255.0,255.0
100,5.0,-1.5,3.0,-3.8736,4.2553521098182355e-10,-3.6584988863106397e-10,-1.0437634297358103,5.89638884664048e-09,-5.069364760419346e-09,0.10133969510478025,0,70,255.0,255.0,255.0
101,5.050000000000001,-1.499999999973678,2.9999999999773697,-3.9256585049322146,5.808445952964218e-10,-4.993756686100136e-10,-1.0385169288388456,3.1598652594335936e-10,-2.7166643873856323e-10,0.10852034077380007,0,70,255.0,255.0,255.0
102,5.1000000000000005,-1.4999999999465659,2.9999999999540607,-3.977445709012495,4.571338635761646e-10,-3.930165325049248e-10,-1.0329113956584302,-5.2644157947536634e-09,4.526031882942135e-09,0.11570098644281977,0,70,255.0,255.0,255.0
103,5.15,-1.499999999932615,2.9999999999420663,-4.028943660626667,5.440301582105744e-11,-4.677248031580176e-11,-1.026946830194564,-1.0844818115450684e-08,9.323730204622833e-09,0.12288163211183947,0,70,255.0,255.0,255.0
104,5.2,-1.499999999945776,2.9999999999533813,-4.080134408160559,-6.273479479688999e-10,5.393564879573552e-10,-1.0206232324472462,-1.6425220436147707e-08,1.412142852630353e-08,0.13006227778085916,0,70,255.0,255.0,255.0
105,5.25,-1.5,3.0,-4.131,-1.5881190277937072e-09,1.365370372314546e-09,-1.0139406024164777,-2.200562275684473e-08,1.8919126847984224e-08,0.13724292344988065,0,70,255.0,255.0,255.0
106,5.300000000000001,-1.5000000000982354,3.000000000084457,-4.181523105992541,-2.167741540948029e-09,1.8636953673162492e-09,-1.0069362278057545,-1.1792777693278015e-09,1.013872952083615e-09,0.142932060979047,0,70,255.0,255.0,255.0
107,5.3500000000000005,-1.500000000199419,3.000000000171448,-4.2316888818326355,-1.7060468047265068e-09,1.4667576675229239e-09,-0.9996473963185729,1.9647067218188757e-08,-1.6891380943816676e-08,0.1486211985082133,0,70,255.0,255.0,255.0
108,5.4,-1.5000000002514848,3.0000000002162115,-4.281483104676457,-2.030348191291602e-10,1.7455727293458773e-10,-0.9920741079549331,4.047341220570532e-08,-3.479663483971697e-08,0.15431033603737956,0,70,255.0,255.0,255.0
109,5.45,-1.5000000002023668,3.000000000173983,-4.330891551680186,2.3412944158440115e-09,-2.0129058164487604e-09,-0.984216362714835,6.129975719322188e-08,-5.270188873561726e-08,0.1599994735665458,0,70,255.0,255.0,255.0
110,5.5,-1.5,3.0,-4.3799,5.926940900193005e-09,-5.09563160062712e-09,-0.9760741605982787,8.212610218073844e-08,-7.060714263151754e-08,0.16568861109570943,0,70,255.0,255.0,255.0
111,5.550000000000001,-1.4999999996333808,2.999999999684803,-4.428493871097622,8.090121568495694e-09,-6.955405800654982e-09,-0.9676261599381354,4.401124551367852e-09,-3.7838253695958946e-09,0.17223141531001848,0,70,255.0,255.0,255.0
112,5.6000000000000005,-1.4999999992557587,2.9999999993601456,-4.476657163656968,6.36705335532986e-09,-5.474014137586771e-09,-0.9588510190672768,-7.332385307800136e-08,6.303949189232456e-08,0.17877421952432743,0,70,255.0,255.0,255.0
113,5.65,-1.4999999990614463,2.9999999991930872,-4.524373520667505,7.57736260695583e-10,-6.514566114225473e-10,-0.9497487379857027,-1.5104883070737054e-07,1.2986280915424504e-07,0.1853170237386364,0,70,255.0,255.0,255.0
114,5.7,-1.4999999992447557,2.999999999350686,-4.571626585118693,-8.737829715407141e-09,7.512266777837688e-09,-0.9403193166934132,-2.2877380833673977e-07,1.966861264161655e-07,0.19185982795294534,0,70,255.0,255.0,255.0
115,5.75,-1.5,3.0,-4.6184,-2.2119644572978314e-08,1.9017156030193933e-08,-0.9305627551904081,-3.0649878596610893e-07,2.635094436780859e-07,0.19840263216725518,0,70,255.0,255.0,255.0
116,5.800000000000001,-1.5000000013682417,3.000000001176333,-4.664677409616973,-3.0192744733034736e-08,2.595792783530368e-08,-0.9204791324417049,-1.6425220436143532e-08,1.4121428526299966e-08,0.2049422777808659,0,70,255.0,255.0,255.0
117,5.8500000000000005,-1.5000000027775464,3.00000000238797,-4.7104424635394935,-2.3762166616592934e-08,2.0429298882824162e-08,-0.9100685274123215,2.736483450938167e-07,-2.3526658662548165e-07,0.21148192339447652,0,70,255.0,255.0,255.0
118,5.9,-1.5000000035027303,3.000000003011439,-4.755678812653527,-2.8279102236531685e-09,2.4312691727556056e-09,-0.8993309401022574,5.637219106237769e-07,-4.846546017772631e-07,0.21802156900808717,0,70,255.0,255.0,255.0
119,5.95,-1.5000000028186096,3.000000002423273,-4.8003701078450405,3.2610024445784566e-08,-2.8036161294901987e-08,-0.8882663705115127,8.537954761537372e-07,-7.340426169290448e-07,0.22456121462169779,0,70,255.0,255.0,255.0
120,6.0,-1.5,3.0,-4.8445,8.255163739172025e-08,-7.09729925201486e-08,-0.8768748186400876,1.1438690416836975e-06,-9.834306320808263e-07,0.2311008602353084,0,70,255.0,255.0,255.0
121,6.050000000000001,-1.4999999948936524,2.9999999956098655,-4.8880524904344895,1.1268085736364327e-07,-9.687630554055972e-08,-0.865177310295041,6.129975719320633e-08,-5.270188873560397e-08,0.2367994735665527,0,70,255.0,255.0,255.0
122,6.1000000000000005,-1.4999999896340555,2.9999999910879764,-4.931012982185061,8.868161311104189e-08,-7.624318139370987e-08,-0.8531948712834323,-1.0212695272972653e-06,8.780268546096019e-07,0.2424980868977969,0,70,255.0,255.0,255.0
123,6.15,-1.4999999869276321,2.999999988761155,-4.97336722871839,1.0553904633917101e-08,-9.073620079599832e-09,-0.8409275016052613,-2.103838811787737e-06,1.8087555979548079e-06,0.2481967002290411,0,70,255.0,255.0,255.0
124,6.2,-1.4999999894808058,2.9999999909562223,-5.015100983501145,-1.217022680677311e-07,1.0463237840177023e-07,-0.8283752012605282,-3.1864080962782095e-06,2.7394843413000136e-06,0.2538953135602853,0,70,255.0,255.0,255.0
125,6.25,-1.5,3.0,-5.0562,-3.080869049939027e-07,2.648748140504005e-07,-0.8155379702492328,-4.2689773807686805e-06,3.6702130846452185e-06,0.25959392689153216,0,70,255.0,255.0,255.0
126,6.300000000000001,-1.500000019057149,3.000000016384204,-5.096649428645072,-4.2053068472153825e-07,3.615472943269352e-07,-0.8023796263781212,-2.287738083366813e-07,1.9668612641611597e-07,0.2667398279529258,0,70,255.0,255.0,255.0
127,6.3500000000000005,-1.5000000386862322,3.000000033260124,-5.136432007720262,-3.309642858275746e-07,2.845434266920153e-07,-0.78886398745394,3.811429764095245e-06,-3.2768408318129247e-06,0.27388572901431935,0,70,255.0,255.0,255.0
128,6.4,-1.5000000487867413,3.000000041943941,-5.175529872472914,-3.938770831201526e-08,3.386321114564389e-08,-0.7749910534766894,7.851633336527172e-06,-6.7503677900419654e-06,0.28103163007571286,0,70,255.0,255.0,255.0
129,6.45,-1.5000000392581667,3.0000000337518387,-5.213925158150379,4.5419904782513997e-07,-3.90493352312179e-07,-0.7607608244463688,1.18918369089591e-05,-1.0223894748271005e-05,0.28817753113710637,0,70,255.0,255.0,255.0
130,6.5,-1.5,3.0,-5.2516,1.1497959825838905e-06,-9.885262636814533e-07,-0.7461733003629787,1.593204048139102e-05,-1.369742170650005e-05,0.29532343219850077,0,70,255.0,255.0,255.0
131,6.550000000000001,-1.4999999288777524,2.999999938853317,-5.288536994985225,1.5694418815225102e-06,-1.3493128717671812e-06,-0.7312561841924737,8.537954761535182e-07,-7.340426169288594e-07,0.3013612146216887,0,70,255.0,255.0,255.0
132,6.6000000000000005,-1.499999855621016,2.9999998758715285,-5.324720586933895,1.2351755301992565e-06,-1.0619305253743511e-06,-0.7160371789008096,-1.4224449529083717e-05,1.2229336472642101e-05,0.3073989970448765,0,70,255.0,255.0,255.0
133,6.65,-1.4999998179254035,2.999999843463081,-5.360135681389953,1.4699692861414326e-07,-1.2637922450297514e-07,-0.7005162844879862,-2.930269453432095e-05,2.5192715562213065e-05,0.31343677946806425,0,70,255.0,255.0,255.0
134,6.7,-1.499999853486527,2.999999874036422,-5.39476718389734,-1.6950939232328284e-06,1.4573410308469465e-06,-0.6846935009540034,-4.4380939539558186e-05,3.815609465178402e-05,0.31947456189125206,0,70,255.0,255.0,255.0
135,6.75,-1.5,3.0,-5.4286,-4.291097025341659e-06,3.689230240675413e-06,-0.6685688282988611,-5.945918454479542e-05,5.1119473741354986e-05,0.32551234431443987,0,70,255.0,255.0,255.0
136,6.800000000000001,-1.5000002654318418,3.0000002282025253,-5.461619391414032,-5.857236841368502e-06,5.03570419274179e-06,-0.6521636368519921,-3.186408096277406e-06,2.7394843412993284e-06,0.3306953135603124,0,70,255.0,255.0,255.0
137,6.8500000000000005,-1.5000005388297037,3.0000004632537616,-5.493812044544161,-4.60973783496945e-06,3.963178674805389e-06,-0.6354992969428297,5.3086368352239606e-05,-4.5640505058755475e-05,0.33587828280618487,0,70,255.0,255.0,255.0
138,6.9,-1.500000679511645,3.0000005842037347,-5.5251650019672764,-5.486000061445584e-07,4.7165368686625974e-07,-0.6185758085713737,0.00010935914480075663,-9.402049445881029e-05,0.34106125205205734,0,70,255.0,255.0,255.0
139,6.95,-1.500000546795724,3.0000004701024725,-5.55566530626026,6.326176645106173e-06,-5.438870771075604e-06,-0.6013931717376241,0.00016563192124927366,-0.00014240048385886508,0.34624422129792976,0,70,255.0,255.0,255.0
140,7.0,-1.5,3.0,-5.5853,1.6014592118782746e-05,-1.3768394699020198e-05,-0.583951386441581,0.00022190469769779066,-0.00019078047325891983,0.35142719054380134,0,70,255.0,255.0,255.0
141,7.050000000000001,-1.4999990093948807,2.999999148336581,-5.614053439358653,2.18595054839515e-05,-1.8793503899199976e-05,-0.5660892683995576,1.1891836908956103e-05,-1.022389474826841e-05,0.36305753113712064,0,70,255.0,255.0,255.0
142,7.1000000000000005,-1.499997989060169,2.999998271113425,-5.641899234889462,1.720377580967855e-05,-1.4790784173847204e-05,-0.5476456333278686,-0.00019812102387987472,0.00017033268376237981,0.3746878717304397,0,70,255.0,255.0,255.0
143,7.15,-1.499997464028017,2.999997819721979,-5.668808310740945,2.0474030959641014e-06,-1.7602355229620511e-06,-0.5286204812265138,-0.00040813388466870556,0.00035088926227302806,0.38631821232375885,0,70,255.0,255.0,255.0
144,7.2,-1.4999979593305766,2.999998245553688,-5.694751591061618,-2.3609612657191862e-05,2.0298142053455473e-05,-0.509013812095493,-0.0006181467454575364,0.0005314458407836762,0.3979485529170779,0,70,255.0,255.0,255.0
145,7.25,-1.5,3.0,-5.7197,-5.976727144978933e-05,5.138434855540538e-05,-0.48882562593480616,-0.0008281596062463671,0.0007120024192943245,0.4095788935103961,0,70,255.0,255.0,255.0
146,7.300000000000001,-1.5000036969886361,3.00000317845115,-5.743628451151361,-8.158078509443747e-05,7.013831140405811e-05,-0.46829528954976535,-4.438093953954686e-05,3.81560946517745e-05,0.4116345618912247,0,70,255.0,255.0,255.0
147,7.3500000000000005,-1.5000075049296204,3.0000064522925367,-5.766527815897993,-6.420536540374475e-05,5.519995802058345e-05,-0.44766216974568346,0.0007393977271672595,-0.0006356902299907636,0.41369023027205326,0,70,255.0,255.0,255.0
148,7.4,-1.5000094643762876,3.0000081369083484,-5.788392955068944,-7.641012377711801e-06,6.569288404981996e-06,-0.42692626652256016,0.001523176393874066,-0.0013095365546333018,0.4157458986528818,0,70,255.0,255.0,255.0
149,7.45,-1.5000076158819693,3.0000065476827733,-5.8092187294932645,8.811227398366128e-05,-7.575369744274626e-05,-0.40608757988039546,0.002306955060580872,-0.0019833828792758393,0.41780156703371035,0,70,255.0,255.0,255.0
150,7.5,-1.5,3.0,-5.829,0.00022305449368037456,-0.0001917689995226013,-0.3851461098191893,0.003090733727287677,-0.0026572292039183775,0.4198572354145389,0,70,255.0,255.0,255.0
151,7.550000000000001,-1.4999854026505761,2.9999873378588187,-5.847738356035906,0.0003524636348937945,-0.0003097597417171351,-0.36450557340137735,0.002085631921249047,-0.002062400483862908,0.40576422129792655,0,70,255.0,255.0,255.0
152,7.6000000000000005,-1.499965591221349,2.999969519716428,-5.865462301518568,0.0004316176858052813,-0.00039800904790889376,-0.3445696876893964,0.001080530115210435,-0.001467571763807449,0.39167120718131443,0,70,255.0,255.0,255.0
153,7.65,-1.499943078466834,2.999948032644628,-5.882207068983277,0.0004605166464148377,-0.0004565169180978794,-0.32533845268324607,7.542830917182334e-05,-0.0008727430437519899,0.37757819306470236,0,70,255.0,255.0,255.0
154,7.7,-1.4999203771415461,2.999924363715219,-5.898007890965323,0.00043916051672246355,-0.0004852833522840924,-0.30681186838292634,-0.0009296734968667888,-0.00027791432369653115,0.3634851789480903,0,70,255.0,255.0,255.0
155,7.75,-1.4999,2.9999,-5.9129,0.000367549296728159,-0.00048430835046753257,-0.28898993478843715,-0.0019347753029054023,0.0003169143963589285,0.34939216483147906,0,70,255.0,255.0,255.0
156,7.800000000000001,-1.49988349240906,2.9998754701135737,-5.9269173247050135,0.00030372624551908514,-0.0005110993445388566,-0.27179441684472294,-0.0006181467454575171,-0.0013885541592118737,0.33842855291708,0,70,255.0,255.0,255.0
157,7.8500000000000005,-1.4998685301849835,2.9998474688417494,-5.9400885780277335,0.00030573462218240585,-0.0006231637663887191,-0.255147079496729,0.0006984818119903451,-0.0030940227147826455,0.32746494100268114,0,70,255.0,255.0,255.0
158,7.9,-1.4998518217563772,2.999811732513139,-5.952441168997948,0.0003735744267181194,-0.00082050161601712,-0.23904792274445494,0.0020151103694382067,-0.004799491270353418,0.31650132908828227,0,70,255.0,255.0,255.0
159,7.95,-1.4998300755518472,2.999763997456352,-5.964002506645442,0.0005072456591262257,-0.0011031128934240592,-0.22349694658790084,0.003331738926886069,-0.0065049598259241895,0.30553771717388345,0,70,255.0,255.0,255.0
160,8.0,-1.4998,2.9997,-5.9748,0.000706748319406725,-0.0014709975986095364,-0.20849415102706667,0.004648367484333932,-0.008210428381494963,0.29457410525948524,0,70,255.0,255.0,255.0
161,8.05,-1.4997590277131843,2.999616381686885,-5.98486194514404,0.0009286313830295928,-0.0018698428801286896,-0.1940927592197363,0.004226955060580653,-0.007743382879270935,0.28148156703372085,0,70,255.0,255.0,255.0
162,8.1,-1.499707488038717,2.999513404916572,-5.994220186370495,0.0011294438254647893,-0.002245335886536628,-0.18034599432369466,0.0038055426368273876,-0.007276337377046923,0.26838902880795695,0,70,255.0,255.0,255.0
163,8.15,-1.4996464345076574,2.999392237302817,-6.002907455024931,0.0013091856467123296,-0.0025974766178333787,-0.16725385633894074,0.003384130213074108,-0.006809291874822895,0.25529649058219256,0,70,255.0,255.0,255.0
164,8.200000000000001,-1.4995769206510654,2.9992540464593738,-6.010956482452912,0.0014678568467722051,-0.002926265074018927,-0.15481634526547505,0.0029627177893208284,-0.006342246372598868,0.2422039523564282,0,70,255.0,255.0,255.0
165,8.25,-1.4995,2.9991,-6.0184,0.0016054574256444119,-0.003231701255093264,-0.143033461103298,0.0025413053655675526,-0.00587520087037487,0.22911141413066471,0,70,255.0,255.0,255.0
166,8.3,-1.4994163967382035,2.998931003138885,-6.025269294718827,0.0017417482223619225,-0.003529529134945144,-0.1318185462763291,0.002910326503132792,-0.006037914323700169,0.21948517894808525,0,70,255.0,255.0,255.0
167,8.35,-1.4993255176601492,2.9987469114919607,-6.031589876490285,0.0018964900759576894,-0.003835492687463278,-0.12108494320848956,0.0032793476406980182,-0.006200627777025463,0.20985894376550612,0,70,255.0,255.0,255.0
168,8.4,-1.4992264402129931,2.998547318275594,-6.037385810902328,0.002069682986431724,-0.0041495919126476885,-0.11083265189977858,0.0036483687782632576,-0.0063633412303507626,0.2002327085829267,0,70,255.0,255.0,255.0
169,8.450000000000001,-1.4991182418438915,2.998331816706152,-6.042681163542914,0.0022613269537840206,-0.004471826810498364,-0.1010616723501966,0.004017389915828497,-0.006526054683676062,0.1906064734003472,0,70,255.0,255.0,255.0
170,8.5,-1.499,2.9981,-6.0475,0.002471421978014571,-0.0048021973810152925,-0.09177200455974391,0.00438641105339372,-0.0066887681370013455,0.18098023821776832,0,70,255.0,255.0,255.0
171,8.55,-1.498870585334002,2.997850805757574,-6.051868075980651,0.0027123757275216705,-0.0051800405800885374,-0.08306505567495254,0.005251738926890131,-0.00842495982592825,0.16729771717388184,0,70,255.0,255.0,255.0
172,8.6,-1.4987280413206867,2.997580549115584,-6.055817907668366,0.0029965958707035808,-0.005644693363608112,-0.07504223284235577,0.006117066800386512,-0.010161151514855093,0.15361519612999586,0,70,255.0,255.0,255.0
173,8.65,-1.4985702046403704,2.9972848895948054,-6.059383701365756,0.0033240824075603213,-0.006196155731574046,-0.06770353606195302,0.006982394673882924,-0.011897343203782,0.1399326750861094,0,70,255.0,255.0,255.0
174,8.700000000000001,-1.4983949119733695,2.9969594867160185,-6.062599663375431,0.003694835338091883,-0.006834427683986328,-0.06104896533374462,0.007847722547379336,-0.013633534892708903,0.12625015404222292,0,70,255.0,255.0,255.0
175,8.75,-1.4982,2.9966,-6.0655,0.00410885466229825,-0.007559509220844929,-0.05507852065773074,0.008713050420875716,-0.01536972658163576,0.11256763299833727,0,70,255.0,255.0,255.0
176,8.8,-1.497984461925789,2.996203373830818,-6.068117601358573,0.004496748867553052,-0.008294308544700785,-0.04971323102386103,0.00680271778931612,-0.014022246372598026,0.10204395235644809,0,70,255.0,255.0,255.0
177,8.85,-1.497751917057104,2.995771692045704,-6.070480092836254,0.004789126441229864,-0.00896173385810473,-0.04487412542208594,0.004892385157756592,-0.01267476616356034,0.09152027171455926,0,70,255.0,255.0,255.0
178,8.9,-1.4975071412255254,2.9953083233451814,-6.072613783634649,0.0049859873833287055,-0.009561785161056812,-0.04056120385240515,0.0029820525261969946,-0.011327285954522603,0.08099659107267007,0,70,255.0,255.0,255.0
179,8.950000000000001,-1.4972549102626311,2.9948166364297726,-6.074544982955364,0.005087331693849567,-0.010094462453557005,-0.03677446631481883,0.0010717198946373985,-0.00997980574548487,0.07047291043078088,0,70,255.0,255.0,255.0
180,9.0,-1.497,2.9943,-6.0763,0.005093159372792449,-0.010559765735605296,-0.03351391280932708,-0.00083861273692213,-0.008632325536447202,0.05994922978889178,0,70,255.0,255.0,255.0
181,9.05,-1.496745166962843,2.9937604989191544,-6.077905518585059,0.005124628802265115,-0.011034725241108375,-0.03080202022959674,0.0020973899158287387,-0.010366054683675668,0.04852647340032022,0,70,255.0,255.0,255.0
182,9.1,-1.4964850904508964,2.9931950827016,-6.079389720986616,0.005302898364375317,-0.011596371203972855,-0.028661265469295052,0.005033392568579503,-0.012099783830904072,0.03710371701174907,0,70,255.0,255.0,255.0
183,9.15,-1.4962124304575282,2.992599417024468,-6.0807811640956455,0.005627968059123068,-0.01224470362419878,-0.027091648528421865,0.007969395221330371,-0.013833512978132538,0.025680960623177505,0,70,255.0,255.0,255.0
184,9.200000000000001,-1.4959198469761068,2.9919691675648905,-6.082108404803116,0.006099837886508365,-0.012979722501786129,-0.026093169406977267,0.01090539787408124,-0.015567242125361005,0.014258204234605942,0,70,255.0,255.0,255.0
185,9.25,-1.4956,2.9913,-6.0834,0.006718507846531183,-0.013801427836734872,-0.025665828104961253,0.013841400526831978,-0.017300971272589408,0.002835447846034872,0,70,255.0,255.0,255.0
186,9.3,-1.4952476702228397,2.990588230492564,-6.084685124301193,0.00735673592338657,-0.01467079049086733,-0.025846688057754533,0.011687722547383116,-0.017473534892708448,-0.010069845957765944,0,70,255.0,255.0,255.0
187,9.35,-1.4948661211393108,2.9898327771478965,-6.085995423217278,0.007887280101269495,-0.01554878132600571,-0.02667281270073782,0.00953404456793433,-0.01764609851282748,-0.0229751397615663,0,70,255.0,255.0,255.0
188,9.4,-1.494460736944362,2.9890332085569464,-6.087363159982769,0.008310140380179996,-0.016435400342150075,-0.02814420203391118,0.007380366588485468,-0.01781866213294652,-0.03588043356536712,0,70,255.0,255.0,255.0
189,9.450000000000001,-1.4940369018329422,2.9881890933106643,-6.088820597832173,0.008625316760118053,-0.01733064753930039,-0.030260856057274584,0.005226688609036606,-0.01799122575306556,-0.04878572736916793,0,70,255.0,255.0,255.0
190,9.5,-1.4936,2.9873,-6.0904,0.008832809241083659,-0.01823452291745662,-0.033022774770827934,0.003073010629587855,-0.01816378937318458,-0.06169102117296843,0,70,255.0,255.0,255.0
191,9.55,-1.4931537521457985,2.986365779110589,-6.0921323842101724,0.009032427504189177,-0.01913011279542314,-0.036355227539382494,0.004911719894632794,-0.017659805745475526,-0.07160708956921212,0,70,255.0,255.0,255.0
192,9.600000000000001,-1.4926952249918601,2.985387408706814,-6.094043786144268,0.009323981230546946,-0.020000503492004197,-0.04018348372774925,0.006750429159677733,-0.01715582211776647,-0.08152315796545581,0,70,255.0,255.0,255.0
193,9.65,-1.4922198217650229,2.984366148747745,-6.096158995973277,0.009707470420156945,-0.020845695007199776,-0.04450754333592803,0.008589138424722607,-0.01665183849005743,-0.09143922636169916,0,70,255.0,255.0,255.0
194,9.700000000000001,-1.4917229456921237,2.9833032591924504,-6.0985028038681905,0.010182895073019206,-0.021665687341009935,-0.04932740636391915,0.010427847689767547,-0.016147854862348376,-0.10135529475794283,0,70,255.0,255.0,255.0
195,9.75,-1.4912,2.9822,-6.1011,0.010750255189133692,-0.02246048049343461,-0.05464307281172225,0.012266556954812463,-0.01564387123463923,-0.11127136315418601,0,70,255.0,255.0,255.0
196,9.8,-1.4906477211939668,2.981056653065081,-6.103977338858117,0.011329554059856146,-0.023288758327434943,-0.060572401784712196,0.01090539787408543,-0.01748724212537353,-0.12590179576540833,0,70,255.0,255.0,255.0
197,9.850000000000001,-1.4900681788932484,2.979869588024848,-6.107169432205647,0.01184079497654225,-0.024209204705971987,-0.06723325238826326,0.009544238793358395,-0.01933061301610783,-0.14053222837663062,0,70,255.0,255.0,255.0
198,9.9,-1.4894647759955464,2.9786341964520746,-6.110712856124119,0.012283977939191986,-0.025221819629045714,-0.07462562462237518,0.00818307971263141,-0.021173983906842067,-0.15516266098785242,0,70,255.0,255.0,255.0
199,9.950000000000001,-1.4888409153985631,2.9773458699195343,-6.1146441866950605,0.012659102947805385,-0.02632660309665619,-0.08274951848704848,0.006821920631904376,-0.023017354797576366,-0.1697930935990747,0,70,255.0,255.0,255.0
200,10.0,-1.4882,2.976,-6.119,0.012966170002382425,-0.027523555108803336,-0.09160493398228257,0.0054607615511774316,-0.02486072568831041,-0.18442352621029656,0,70,255.0,255.0,255.0
201,10.05,-1.4875441630783344,2.974593208629089,-6.12381186035736,0.013281356256387777,-0.02873885389483784,-0.10089116532176937,0.007146688609036483,-0.02375122575306912,-0.18702572736916961,0,70,255.0,255.0,255.0
202,10.100000000000001,-1.4868704594351465,2.9731270391937956,-6.129091285033143,0.013680838863286084,-0.02989867768411028,-0.1103075067191998,0.008832615666895534,-0.022641725817827824,-0.18962792852804267,0,70,255.0,255.0,255.0
203,10.15,-1.486174674252791,2.9716042654439576,-6.134844779530246,0.014164617823077324,-0.031003026476620617,-0.11985395817457355,0.010518542724754524,-0.021532225882586572,-0.19223012968691564,0,70,255.0,255.0,255.0
204,10.200000000000001,-1.4854525927136237,2.970027661129413,-6.141078849351565,0.014732693135761536,-0.032051900272368934,-0.1295305196878913,0.012204469782613574,-0.02042272594734528,-0.1948323308457887,0,70,255.0,255.0,255.0
205,10.25,-1.4847,2.9684,-6.1478,0.015385064801338673,-0.03304529907135514,-0.13933719125915234,0.013890396840472552,-0.019313226012104,-0.1974345320046611,0,70,255.0,255.0,255.0
206,10.3,-1.4839140264926953,2.9667241124185626,-6.155000819712444,0.01604102091459457,-0.033979826093216134,-0.14843893692821714,0.012347847689763014,-0.018067854862335368,-0.1666352947579262,0,70,255.0,255.0,255.0
207,10.350000000000001,-1.483097183366166,2.9650030551999698,-6.162618227661783,0.016619849570314992,-0.0348520845575887,-0.1560007207349452,0.010805298539053477,-0.016822483712566737,-0.13583605751119132,0,70,255.0,255.0,255.0
208,10.4,-1.4822533269932894,2.963239941772095,-6.1705752257549,0.017121550768499916,-0.0356620744644728,-0.16202254267933627,0.009262749388343993,-0.015577112562798147,-0.10503682026445751,0,70,255.0,255.0,255.0
209,10.450000000000001,-1.4813863137469416,2.9614378855628143,-6.178794815898677,0.017546124509149386,-0.03640979581386851,-0.16650440276139086,0.007720200237634456,-0.014331741413029515,-0.07423758301772261,0,70,255.0,255.0,255.0
210,10.5,-1.4805,2.9596,-6.1872,0.017893570792263364,-0.03709524860577575,-0.16944630098110858,0.006177651086925029,-0.013086370263261038,-0.04343834577098793,0,70,255.0,255.0,255.0
211,10.55,-1.4795973309508845,2.957728741696659,-6.195729660792864,0.018218560085234106,-0.03775784173229683,-0.17180108696536028,0.006821920631904463,-0.01341735479758161,-0.050753093599078904,0,70,255.0,255.0,255.0
212,10.600000000000001,-1.4786776071001888,2.9558239400063253,-6.204386204319726,0.01857576285545382,-0.038436984085533935,-0.17452161034101654,0.007466190176883898,-0.01374833933190218,-0.058067841427169885,0,70,255.0,255.0,255.0
213,10.65,-1.4777392177740516,2.953884767467661,-6.213187917450156,0.01896517910292249,-0.03913267566548704,-0.17760787110807724,0.00811045972186331,-0.014079323866222739,-0.0653825892552606,0,70,255.0,255.0,255.0
214,10.700000000000001,-1.4767805522986093,2.951910396619331,-6.222153087053724,0.01938680882764015,-0.0398449164721562,-0.1810598692665426,0.008754729266842745,-0.01441030840054331,-0.07269733708335158,0,70,255.0,255.0,255.0
215,10.75,-1.4758,2.9499,-6.2313,0.019840652029606765,-0.04057370650554137,-0.18487760481641233,0.00939899881182224,-0.01474129293486387,-0.08001208491144207,0,70,255.0,255.0,255.0
216,10.8,-1.4747966497037672,2.947852920794799,-6.240642937116099,0.020284738744467783,-0.04130880697759673,-0.18882071521034316,0.008364469782618202,-0.014662725947350151,-0.07771233084578864,0,70,255.0,255.0,255.0
217,10.850000000000001,-1.4737723882330773,2.9457691847747296,-6.250180155059313,0.020677099007868596,-0.0420399791002764,-0.1926488379009913,0.0073299407534141645,-0.014584158959836432,-0.07541257678013522,0,70,255.0,255.0,255.0
218,10.9,-1.4727298019105044,2.943648988357261,-6.259905904444477,0.021017732819809197,-0.04276722287358037,-0.19636197288835663,0.006295411724210163,-0.014505591972322717,-0.07311282271448188,0,70,255.0,255.0,255.0
219,10.950000000000001,-1.4716714770586208,2.9414925279598614,-6.269814435886428,0.021306640180289608,-0.04349053829750867,-0.19996012017243944,0.005260882695006125,-0.014427024984808998,-0.07081306864882846,0,70,255.0,255.0,255.0
220,11.0,-1.4706,2.9393,-6.2799,0.021543821089309807,-0.044209925372061254,-0.20344327975323948,0.004226353665801985,-0.014348457997295228,-0.068513314583176,0,70,255.0,255.0,255.0
221,11.05,-1.469516870234047,2.937071575124144,-6.290157790742739,0.02179448493689562,-0.04492693035731917,-0.20686805219326232,0.005800200237630426,-0.01433174141302107,-0.06847758301773674,0,70,255.0,255.0,255.0
222,11.100000000000001,-1.4684192399675007,2.9348073208947545,-6.300586775443021,0.02212384111307286,-0.04564309951336338,-0.21029103805501326,0.0073740468094588675,-0.014315024828746914,-0.06844185145229749,0,70,255.0,255.0,255.0
223,11.15,-1.4673031745839302,2.932507279103294,-6.311186864771935,0.022531889617841503,-0.04635843284019386,-0.21371223733849207,0.008947893381287254,-0.014298308244472757,-0.06840611988685823,0,70,255.0,255.0,255.0
224,11.200000000000001,-1.4661647394669064,2.930171491541222,-6.321957969400566,0.023018630451201585,-0.04707293033781065,-0.21713165004369905,0.010521739953115694,-0.0142815916601986,-0.06837038832141898,0,70,255.0,255.0,255.0
225,11.25,-1.465,2.9278,-6.3329,0.023584063613153065,-0.04778659200621372,-0.22054927617063397,0.01209558652494408,-0.014264875075924388,-0.06833465675598038,0,70,255.0,255.0,255.0
226,11.3,-1.4638062693600438,2.9253927787086256,-6.344013099912947,0.02415332150794774,-0.04850347159312542,-0.2239790760166171,0.010674729266842577,-0.014410308400543262,-0.06885733708334306,0,70,255.0,255.0,255.0
227,11.350000000000001,-1.4625858518969204,2.92294953164625,-6.355298343168601,0.02465153653983734,-0.04922762284626807,-0.2274350098789684,0.009253872008741075,-0.014555741725162134,-0.06938001741070574,0,70,255.0,255.0,255.0
228,11.4,-1.461342299753775,2.920469895229562,-6.366757036467783,0.025078708708821847,-0.04995904576564163,-0.23091707775768766,0.007833014750639623,-0.014701175049781003,-0.06990269773806838,0,70,255.0,255.0,255.0
229,11.450000000000001,-1.4600791650737532,2.917953505875249,-6.37839048651131,0.025434838014901293,-0.05069774035124616,-0.23442527965277518,0.0064121574925381205,-0.014846608374399875,-0.07042537806543106,0,70,255.0,255.0,255.0
230,11.5,-1.4588,2.9154,-6.3902,0.02571992445807566,-0.05144370660308162,-0.23795961556423073,0.004991300234436558,-0.014992041699018799,-0.07094805839279372,0,70,255.0,255.0,255.0
231,11.55,-1.4575076523257782,2.912809310041353,-6.402185809605476,0.025976229031311943,-0.05217918327017754,-0.241455643740271,0.005260882695014561,-0.014427024984817464,-0.06889306864881611,0,70,255.0,255.0,255.0
232,11.600000000000001,-1.4562021524448183,2.910182552520244,-6.414343851882575,0.026246012727577123,-0.052886409101563385,-0.24484892242911244,0.005530465155592564,-0.013862008270616129,-0.06683807890483852,0,70,255.0,255.0,255.0
233,11.65,-1.4548828264009699,2.907521139978458,-6.4266689893569335,0.026529275546871196,-0.05356538409723914,-0.24813945163075485,0.005800047616170558,-0.013296991556414813,-0.06478308916086098,0,70,255.0,255.0,255.0
234,11.700000000000001,-1.4535490002380809,2.904826484957782,-6.439156084554196,0.02682601748919418,-0.05421610825720486,-0.2513272313451985,0.006069630076748562,-0.012731974842213478,-0.06272809941688337,0,70,255.0,255.0,255.0
235,11.75,-1.4522,2.9021,-6.4518,0.027136238554546048,-0.05483858158146048,-0.2544122615724432,0.006339212537326444,-0.012166958128011995,-0.06067310967290629,0,70,255.0,255.0,255.0
236,11.8,-1.4508351213368442,2.899342781125962,-6.464597261665151,0.027461762366806905,-0.055451795326165655,-0.2574943490223017,0.00668173995310754,-0.012361591660194519,-0.06261038832143301,0,70,255.0,255.0,255.0
237,11.850000000000001,-1.449453538323806,2.896554658272773,-6.477551049301105,0.02780441254985681,-0.05607474074747995,-0.2606733004045866,0.007024267368888636,-0.01255622519237704,-0.06454766696995971,0,70,255.0,255.0,255.0
238,11.9,-1.4480543946423456,2.893735144856604,-6.490666206104483,0.028164189103695763,-0.05670741784540335,-0.26394911571929763,0.007366794784669719,-0.012750858724559557,-0.06648494561848636,0,70,255.0,255.0,255.0
239,11.950000000000001,-1.4466368339739233,2.890883754293623,-6.5039475752719085,0.02854109202832378,-0.0573498266199359,-0.26732179496643516,0.007709322200450815,-0.012945492256742078,-0.06842222426701307,0,70,255.0,255.0,255.0
240,12.0,-1.4452,2.888,-6.5174,0.028935121323740837,-0.05800196707107755,-0.270791338145999,0.008051849616231926,-0.01314012578892465,-0.07035950291554105,0,70,255.0,255.0,255.0
241,12.05,-1.4437430623268444,2.8850835654547993,-6.531026743733925,0.02934472150146009,-0.05865363542516057,-0.27426296017052304,0.00833215749253795,-0.012926608374395961,-0.06850537806541862,0,70,255.0,255.0,255.0
242,12.100000000000001,-1.442265294259957,2.8821348143886625,-6.544824750913011,0.029768337072994644,-0.05929462790851717,-0.2776418759525409,0.00861246536884397,-0.012713090959867272,-0.0666512532152962,0,70,255.0,255.0,255.0
243,12.15,-1.4407659950296479,2.879154280595126,-6.558789386225137,0.030205968038344484,-0.0599249445211473,-0.2809280854920526,0.008892773245149983,-0.012499573545338592,-0.06479712836517384,0,70,255.0,255.0,255.0
244,12.200000000000001,-1.4392444638662258,2.876142497867727,-6.572916014358174,0.03065761439750964,-0.060544585263051016,-0.2841215887890583,0.009173081121456006,-0.012286056130809903,-0.06294300351505143,0,70,255.0,255.0,255.0
245,12.25,-1.4377,2.8731,-6.5872,0.03112327615049008,-0.06115355013422828,-0.28722238584355775,0.009453388997761852,-0.012072538716281556,-0.06108887866492818,0,70,255.0,255.0,255.0
246,12.3,-1.4361326293557786,2.870026957054841,-6.601637363399155,0.03155935162735294,-0.061773662973190674,-0.29026981029560317,0.00798963007675247,-0.012731974842213521,-0.060808099416887446,0,70,255.0,255.0,255.0
247,12.350000000000001,-1.4345452846363653,2.8669220841725758,-6.616226747046854,0.03192223915816534,-0.06242674761844965,-0.29330319578524655,0.006525871155743088,-0.013391410968145487,-0.06052732016884671,0,70,255.0,255.0,255.0
248,12.4,-1.432941625239063,2.863783732762891,-6.630967448994974,0.03221193874292725,-0.06311280407000522,-0.29632254231248784,0.005062112234733757,-0.014050847094077428,-0.06024654092080599,0,70,255.0,255.0,255.0
249,12.450000000000001,-1.4313253105611736,2.8606102542354703,-6.645858767295396,0.03242845038163871,-0.0638318323278574,-0.2993278498773272,0.003598353313724375,-0.014710283220009394,-0.05996576167276525,0,70,255.0,255.0,255.0
250,12.5,-1.4297,2.8574,-6.6609,0.03257177407429969,-0.06458383239200614,-0.3023191184797644,0.002134594392714795,-0.015369719345940891,-0.05968498242472409,0,70,255.0,255.0,255.0
251,12.55,-1.4280680202500406,2.854151806325838,-6.6760910026694535,0.03272187198912873,-0.06533971268207332,-0.30532979864705834,0.0038693222004469365,-0.014865492256745865,-0.06074222426703148,0,70,255.0,255.0,255.0
252,12.600000000000001,-1.4264263671945807,2.8508664489210336,-6.691433860899576,0.032958706294344386,-0.06607038161768075,-0.3083933409064676,0.005604050008179078,-0.014361265167550838,-0.06179946610933887,0,70,255.0,255.0,255.0
253,12.65,-1.4247707040140998,2.847545188353311,-6.706931217794969,0.03328227698994664,-0.0667758391988284,-0.3115097452579922,0.007338777815911158,-0.013857038078355829,-0.06285670795164623,0,70,255.0,255.0,255.0
254,12.700000000000001,-1.4230966938890794,2.844189285190392,-6.722585716460243,0.033692584075935506,-0.06745608542551633,-0.31467901170163226,0.0090735056236433,-0.013352810989160802,-0.06391394979395362,0,70,255.0,255.0,255.0
255,12.75,-1.4214,2.8408,-6.7384,0.034189627552310954,-0.06811112029774448,-0.3179011402373875,0.010808233431375214,-0.012848583899965571,-0.06497119163626008,0,70,255.0,255.0,255.0
256,12.8,-1.4196776896440577,2.8373786176418085,-6.754375425923031,0.034689160416131744,-0.06873948629851409,-0.3210989951161699,0.009173081121455927,-0.01228605613081856,-0.06294300351503376,0,70,255.0,255.0,255.0
257,12.850000000000001,-1.4179324465853116,2.8339265201432897,-6.77050820935485,0.03510693566445656,-0.06933972591082635,-0.324195440588891,0.007537928811536641,-0.011723528361671549,-0.06091481539380744,0,70,255.0,255.0,255.0
258,12.9,-1.416168358704537,2.830445113823867,-6.786793279825154,0.035442953297285404,-0.06991183913468124,-0.3271904766555506,0.005902776501617412,-0.011161000592524558,-0.05888662727258119,0,70,255.0,255.0,255.0
259,12.950000000000001,-1.414389513882508,2.8269358050029627,-6.803225566863637,0.035697213314618295,-0.0704558259700788,-0.3300841033161491,0.0042676241916981255,-0.010598472823377546,-0.05685843915135487,0,70,255.0,255.0,255.0
260,13.0,-1.4126,2.8234,-6.8198,0.03586971571645522,-0.070971686417019,-0.3328763205706861,0.002632471881778786,-0.010035945054231,-0.05483025103012773,0,70,255.0,255.0,255.0
261,13.05,-1.4108028211737285,2.8198385231069287,-6.836512893638424,0.0360254863463429,-0.07149434212387482,-0.33565022088825824,0.0035983533137285556,-0.010870283220001331,-0.05612576167275709,0,70,255.0,255.0,255.0
262,13.100000000000001,-1.4089966464641723,2.816249870505808,-6.853366101681029,0.03622955104782808,-0.07205871473901915,-0.3384888967379619,0.004564234745678325,-0.011704621385771665,-0.05742127231538644,0,70,255.0,255.0,255.0
263,13.15,-1.4071790611677524,2.812631956351222,-6.870362862904422,0.036481909820910735,-0.07266480426245196,-0.3413923481197969,0.00553011617762806,-0.012538959551541967,-0.05871678295801575,0,70,255.0,255.0,255.0
264,13.200000000000001,-1.405347650580888,2.808982694797758,-6.887506416085211,0.036782562665590886,-0.07331261069417333,-0.34436057503376344,0.006495997609577829,-0.0133732977173123,-0.06001229360064511,0,70,255.0,255.0,255.0
265,13.25,-1.4035,2.8053,-6.9048,0.03713150958186851,-0.0740021340341832,-0.3473935774798613,0.007461879041527675,-0.014207635883082825,-0.061307804243274866,0,70,255.0,255.0,255.0
266,13.3,-1.4016342256610288,2.801582489930476,-6.922245799523276,0.03749689419849779,-0.07469114520598909,-0.35042812133079276,0.007153505623643437,-0.013352810989152185,-0.06007394979397985,0,70,255.0,255.0,255.0
267,13.350000000000001,-1.3997505675579982,2.797831597833479,-6.939841783921039,0.037846860144232865,-0.07533741513309843,-0.3534009724592594,0.006845132205759199,-0.012497986095221545,-0.058840095344684824,0,70,255.0,255.0,255.0
268,13.4,-1.3978497966244536,2.7940494607712445,-6.957584868557161,0.038181407419073714,-0.07594094381551122,-0.3563121308652612,0.006536758787874972,-0.011643161201290934,-0.05760624089538985,0,70,255.0,255.0,255.0
269,13.450000000000001,-1.3959326837939392,2.7902382158060064,-6.9754719687955244,0.03850053602302036,-0.07650173125322753,-0.35916159654879837,0.006228385369990735,-0.010788336307360296,-0.05637238644609483,0,70,255.0,255.0,255.0
270,13.5,-1.394,2.7864,-6.9935,0.038804245956072785,-0.07701977744624726,-0.36194936950987067,0.0059200119521065075,-0.009933511413429463,-0.05513853199680252,0,70,255.0,255.0,255.0
271,13.55,-1.3920522761821563,2.7825363171711666,-7.011666308268471,0.039106936859667686,-0.07753307705216766,-0.36470129378857435,0.00618762419168936,-0.010598472823386138,-0.05493843915134295,0,70,255.0,255.0,255.0
272,13.600000000000001,-1.3900890833038335,2.778646138160275,-7.02996996263482,0.03942300837524173,-0.07807962472858589,-0.3674432134250051,0.006455236431272212,-0.011263434233342813,-0.05473834630588338,0,70,255.0,255.0,255.0
273,13.65,-1.3881097523344326,2.7747278005637996,-7.048410462866934,0.039752460502794906,-0.07865942047550194,-0.37017512841916267,0.006722848670855055,-0.011928395643299465,-0.054538253460423826,0,70,255.0,255.0,255.0
274,13.700000000000001,-1.386113614243354,2.7707796419782165,-7.066987308732698,0.04009529324232723,-0.07927246429291583,-0.3728970387710474,0.006990460910437907,-0.01259335705325614,-0.05433816061496426,0,70,255.0,255.0,255.0
275,13.75,-1.3841,2.7668,-7.0857,0.04045150659383869,-0.07991875618082754,-0.3756089444806591,0.00725807315002075,-0.013258318463212793,-0.054138067769506026,0,70,255.0,255.0,255.0
276,13.8,-1.382068669610346,2.762787441384857,-7.104548167402842,0.040795358362828875,-0.08058454658534067,-0.37831870351491287,0.006495997609586368,-0.013373297717312417,-0.0542522936006411,0,70,255.0,255.0,255.0
277,13.850000000000001,-1.3800210992266675,2.7587414495254206,-7.123531965539685,0.041101106354797336,-0.0812560859525588,-0.3810341738407233,0.005733922069151987,-0.013488276971412042,-0.05436651943177617,0,70,255.0,255.0,255.0
278,13.9,-1.3779591940378164,2.754661736973556,-7.142651679975106,0.04136875056974407,-0.08193337428248187,-0.3837553554580904,0.004971846528717632,-0.013603256225511662,-0.054480745262911245,0,70,255.0,255.0,255.0
279,13.950000000000001,-1.3758848592326434,2.7505480162811273,-7.161907596273687,0.0415982910076691,-0.08261641157510996,-0.38648224836701445,0.004209770988283252,-0.013718235479611287,-0.05459497109404632,0,70,255.0,255.0,255.0
280,14.0,-1.3738,2.7464,-7.1813,0.0417897276685724,-0.08330519783044302,-0.389214852567495,0.0034476954478490085,-0.013833214733710575,-0.05470919692517917,0,70,255.0,255.0,255.0
281,14.05,-1.3717058453764606,2.742217917289405,-7.200829022120166,0.0419836296890184,-0.08396873660646968,-0.391943892151777,0.004308385369991009,-0.012708336307355534,-0.0544523864460995,0,70,255.0,255.0,255.0
282,14.100000000000001,-1.3696009197894963,2.7380040637380416,-7.220494175206445,0.042220566205571505,-0.08457603146117858,-0.39466009121210505,0.005169075292133009,-0.011583457881000493,-0.05419557596701984,0,70,255.0,255.0,255.0
283,14.15,-1.3674830715143016,2.7337612515419756,-7.240294817232643,0.0425005372182317,-0.08512708239456972,-0.397363449748479,0.006029765214274979,-0.010458579454645492,-0.05393876548794019,0,70,255.0,255.0,255.0
284,14.200000000000001,-1.3653501488260713,2.729492292897273,-7.260230306172561,0.042823542726999,-0.08562188940664313,-0.400053967760899,0.00689045513641698,-0.009333701028290451,-0.05368195500886052,0,70,255.0,255.0,255.0
285,14.25,-1.3632,2.7252,-7.2803,0.0431895827318734,-0.08606045249739877,-0.402731645249365,0.007751145058559228,-0.008208822601935006,-0.053425144529780866,0,70,255.0,255.0,255.0
286,14.3,-1.3610311488838114,2.7208864894575227,-7.3005029441164995,0.04355812288109812,-0.08648450698877877,-0.4053777278779834,0.00699046091042942,-0.008753357053264972,-0.05241816061495291,0,70,255.0,255.0,255.0
287,14.350000000000001,-1.3588448216153468,2.7165510955224126,-7.320836933634537,0.04388862882291635,-0.08693578820272528,-0.4079734613108604,0.006229776762299611,-0.00929789150459494,-0.051411176700124954,0,70,255.0,255.0,255.0
288,14.4,-1.3566429199049765,2.7121924568585407,-7.341299451094324,0.04418110055732808,-0.08741429613923826,-0.4105188455479959,0.00546909261416983,-0.009842425955924886,-0.050404192785297036,0,70,255.0,255.0,255.0
289,14.450000000000001,-1.3544273454630709,2.7078092121297797,-7.361887979036075,0.04443553808433333,-0.08792003079831777,-0.41301388058939004,0.0047084084660400215,-0.010386960407254854,-0.04939720887046908,0,70,255.0,255.0,255.0
290,14.5,-1.3522,2.7034,-7.3826,0.04465194140393208,-0.08845299217996375,-0.41545856643504275,0.0039477243179102395,-0.010931494858584578,-0.04839022495564116,0,70,255.0,255.0,255.0
291,14.55,-1.3499623590882934,2.6989633248805034,-7.403433601413838,0.04485587878658714,-0.08902123543841856,-0.4178891963362853,0.004209770988291787,-0.01179823547960718,-0.04883497109405859,0,70,255.0,255.0,255.0
292,14.600000000000001,-1.347714193749116,2.694497154172307,-7.4243892902554105,0.04507291850276127,-0.08963281572792449,-0.4203420635444487,0.004471817658673335,-0.012664976100629778,-0.04927971723247603,0,70,255.0,255.0,255.0
293,14.65,-1.3454548488657918,2.6899993210238597,-7.445468178390065,0.04530306055245447,-0.09028773304848152,-0.42281716805953284,0.004733864329054873,-0.013531716721652348,-0.04972446337089345,0,70,255.0,255.0,255.0
294,14.700000000000001,-1.3431836693216452,2.685467658583608,-7.466671377683146,0.04554630493566675,-0.09098598740008972,-0.425314509881538,0.00499591099943642,-0.014398457342674949,-0.050169209509310884,0,70,255.0,255.0,255.0
295,14.75,-1.3409,2.6809,-7.488,0.04580265165239811,-0.09172757878274901,-0.4278340890104639,0.005257957669817959,-0.015265197963697297,-0.05061395564772875,0,70,255.0,255.0,255.0
296,14.8,-1.338603414763015,2.676295411020464,-7.50945465022815,0.046058361972553995,-0.09243855125754848,-0.43034548677687845,0.004970455136417314,-0.013173701028281274,-0.049841955008852856,0,70,255.0,255.0,255.0
297,14.850000000000001,-1.336294403388189,2.671657887788357,-7.531033905343824,0.04629969716603984,-0.09304494888557716,-0.43281828451134924,0.0046829526030166685,-0.011082204092865252,-0.049069954369976965,0,70,255.0,255.0,255.0
298,14.9,-1.3339736846318557,2.6669926590460196,-7.55273583534542,0.04652665723285566,-0.093546771666835,-0.43525248221387614,0.004395450069616034,-0.008990707157449304,-0.0482979537311011,0,70,255.0,255.0,255.0
299,14.950000000000001,-1.331641977250348,2.662304953535787,-7.574558510231345,0.04673924217300145,-0.09394401960132208,-0.4376480798844593,0.004107947536215389,-0.00689921022203328,-0.04752595309222521,0,70,255.0,255.0,255.0
300,15.0,-1.3293,2.6576,-7.5965,0.046937451986477204,-0.09423669268903835,-0.4400050775230987,0.0038204450028148096,-0.004807713286616999,-0.0467539524533489,0,70,255.0,255.0,255.0
301,15.05,-1.3269479818596461,2.652881431037639,-7.618558997673563,0.047150673323198465,-0.09452055953138537,-0.4423608565561943,0.004708408466035775,-0.006546960407263571,-0.047477208870473055,0,70,255.0,255.0,255.0
302,15.100000000000001,-1.3245841926981274,2.648146494674261,-7.6407366883693015,0.04740829283308079,-0.09489138872976471,-0.44475279841014603,0.005596371929256741,-0.008286207527910143,-0.0482004652875972,0,70,255.0,255.0,255.0
303,15.15,-1.3222064126067856,2.6433908427920625,-7.663034880228257,0.04771031051612414,-0.09534918028417638,-0.44718090308495395,0.006484335392477676,-0.010025454648556654,-0.048923721704721326,0,70,255.0,255.0,255.0
304,15.200000000000001,-1.3198124216769624,2.638610127273243,-7.685455381391477,0.04805672637232856,-0.09589393419462038,-0.4496451705806182,0.0073722988556986415,-0.011764701769203228,-0.04964697812184548,0,70,255.0,255.0,255.0
305,15.25,-1.3174,2.6338,-7.708,0.048447540401694,-0.0965256504610967,-0.4521456008971385,0.008260262318919576,-0.013503948889849737,-0.05037023453896872,0,70,255.0,255.0,255.0
306,15.3,-1.3149678577983996,2.6289572648289776,-7.730669359077602,0.048826944734652905,-0.09717521061690972,-0.4546110869983456,0.0069159109994361735,-0.012478457342670841,-0.048249209509314966,0,70,255.0,255.0,255.0
307,15.350000000000001,-1.3125184258193008,2.624083333514598,-7.753459341178977,0.04913913150163763,-0.0977734961953638,-0.4569705218480701,0.0055715596799527705,-0.011452965795491947,-0.04612818447966121,0,70,255.0,255.0,255.0
308,15.4,-1.310055064941002,2.61918076978573,-7.776364643741551,0.049384100702648176,-0.0983205071964589,-0.45922390544631175,0.004227208360469416,-0.010427474248313088,-0.044007159450007535,0,70,255.0,255.0,255.0
309,15.450000000000001,-1.3075811360418024,2.6142521373712415,-7.799379964202751,0.049561852337684564,-0.0988162436201951,-0.4613712377930708,0.002882857040986013,-0.009401982701134192,-0.041886134420353785,0,70,255.0,255.0,255.0
310,15.5,-1.3051,2.6093,-7.8225,0.04967238640674678,-0.09926070546657234,-0.4634125188883471,0.0015385057215026587,-0.008376491153955445,-0.039765109390700104,0,70,255.0,255.0,255.0
311,15.55,-1.3026141869467545,2.6043263096464506,-7.845721166016031,0.04976554773818974,-0.09969059800097216,-0.4654507954504202,0.0021879475362156712,-0.008819210222037294,-0.04176595309222189,0,70,255.0,255.0,255.0
312,15.600000000000001,-1.3001229040246687,2.599330571267346,-7.869046746914794,0.04989118116036835,-0.10014262648877607,-0.4675891141975694,0.0028373893509286837,-0.009261929290119143,-0.04376679679374368,0,70,255.0,255.0,255.0
313,15.65,-1.2976245276292055,2.5943116780650164,-7.89248174480554,0.0500492866732826,-0.10061679092998409,-0.46982747512979456,0.0034868311656416733,-0.009704648358200977,-0.045767640495265396,0,70,255.0,255.0,255.0
314,15.700000000000001,-1.2951174341558283,2.589268523241791,-7.916031161797525,0.050239864276932514,-0.10111309132459619,-0.4721658782470959,0.004136272980354685,-0.010147367426282826,-0.047768484196787184,0,70,255.0,255.0,255.0
315,15.75,-1.2926,2.5842,-7.9397,0.05046291397131807,-0.10163152767261237,-0.4746043235494732,0.004785714795067675,-0.010590086494364548,-0.049769327898309346,0,70,255.0,255.0,255.0
316,15.8,-1.2900705944145816,2.5791054965852203,-7.963491576858273,0.05071886431258724,-0.10214239737920168,-0.4770417311999768,0.005452298855698843,-0.009844701769207521,-0.04772697812183294,0,70,255.0,255.0,255.0
317,15.850000000000001,-1.287527558082024,2.573986381416017,-7.987402471161852,0.05100814385688796,-0.10261599784953312,-0.47937702136165655,0.006118882916330012,-0.009099317044050493,-0.04568462834535655,0,70,255.0,255.0,255.0
318,15.9,-1.2849692245421755,2.5688445179542048,-8.01142757703629,0.05133075260422024,-0.10305232908360673,-0.48161019403451244,0.0067854669769611565,-0.008353932318893493,-0.04364227856888022,0,70,255.0,255.0,255.0
319,15.950000000000001,-1.2823939273348848,2.563681769661595,-8.035561788607154,0.05168669055458408,-0.10345139108142248,-0.48374124921854456,0.007452051037592325,-0.007608547593736465,-0.04159992879240382,0,70,255.0,255.0,255.0
320,16.0,-1.2798,2.5585,-8.0598,0.05207595770797947,-0.10381318384298038,-0.48577018691375273,0.008118635098223748,-0.006863162868579131,-0.03955757901592616,0,70,255.0,255.0,255.0
321,16.05,-1.2771866353949188,2.553300504012668,-8.084138126550876,0.05244699501145982,-0.1041718124822229,-0.48775827974965985,0.00672285704098994,-0.007481982701121579,-0.03996613442035795,0,70,255.0,255.0,255.0
322,16.1,-1.274556463647235,2.5480823030685835,-8.108576168437802,0.052748243412078476,-0.10456138211309254,-0.4897668003557886,0.005327078983756133,-0.008100802533664027,-0.04037468982478974,0,70,255.0,255.0,255.0
323,16.150000000000002,-1.271912974202092,2.5428438501181647,-8.13311514704929,0.05297970290983544,-0.10498189273558932,-0.4917957487321389,0.003931300926522325,-0.008719622366206475,-0.04078324522922154,0,70,255.0,255.0,255.0
324,16.2,-1.2692596565046328,2.5375835981118313,-8.157756083773855,0.05314137350473071,-0.10543334434971319,-0.4938451248787107,0.0025355228692886178,-0.009338442198748877,-0.041191800633653304,0,70,255.0,255.0,255.0
325,16.25,-1.2666,2.5323,-8.1825,0.05323325519676429,-0.1059157369554642,-0.49591492879550414,0.0011397448120550324,-0.009957262031291436,-0.04160035603808421,0,70,255.0,255.0,255.0
326,16.3,-1.263936464005743,2.5269916873641063,-8.20734791693822,0.05331715564157444,-0.10641835269190378,-0.49800514980137717,0.0022162729803506687,-0.010147367426291413,-0.0420084841968345,0,70,255.0,255.0,255.0
327,16.35,-1.2612673873290356,2.5216580063096474,-8.232300855086939,0.053454882494799356,-0.10693047369809336,-0.5001157772151876,0.0032928011486463046,-0.010337472821291388,-0.04241661235558479,0,70,255.0,255.0,255.0
328,16.400000000000002,-1.2585900786494564,2.5162984815731346,-8.257359834766541,0.05364643575643907,-0.10745209997403293,-0.5022468110369357,0.0043693293169419405,-0.010527578216291364,-0.04282474051433509,0,70,255.0,255.0,255.0
329,16.45,-1.255901846646585,2.5109126378910815,-8.282525876297427,0.053891815426493545,-0.10798323151972247,-0.5043982512666211,0.0054458574852375,-0.010717683611291325,-0.04323286867308535,0,70,255.0,255.0,255.0
330,16.5,-1.2532,2.5055,-8.3078,0.05419102150496282,-0.10852386833516205,-0.5065700979042441,0.0065223856535331914,-0.010907789006291746,-0.04364099683183564,0,70,255.0,255.0,255.0
331,16.55,-1.2504827085821082,2.500060746530906,-8.333182205696236,0.05449238242224097,-0.10903477675016286,-0.5087011210448492,0.005532051037592597,-0.009528547593740602,-0.0415999287923691,0,70,255.0,255.0,255.0
332,16.6,-1.2477515870366225,2.4945976716928278,-8.358668411214454,0.05474422660872209,-0.10947672309453613,-0.5107300907834811,0.004541716421652003,-0.008149306181189458,-0.03955886075290257,0,70,255.0,255.0,255.0
333,16.650000000000002,-1.2450091112000825,2.489114223589296,-8.384253513884552,0.054946554064406176,-0.10984970736828181,-0.5126570071201395,0.0035513818057114088,-0.006770064768638315,-0.03751779271343603,0,70,255.0,255.0,255.0
334,16.7,-1.2422577569090287,2.483613850323843,-8.409932411036435,0.055099364789293226,-0.11015372957139993,-0.5144818700548247,0.002561047189770885,-0.0053908233560872685,-0.03547672467396963,0,70,255.0,255.0,255.0
335,16.75,-1.2395,2.4781,-8.4357,0.055202658783383256,-0.11038878970389054,-0.5162046795875365,0.0015707125738301797,-0.004011581943535791,-0.033435656634499544,0,70,255.0,255.0,255.0
336,16.8,-1.2367375016658237,2.47257492651227,-8.461552860276838,0.055305314669461335,-0.11062654030744745,-0.5179263660192389,0.002535522869292908,-0.0054984421987406265,-0.03543180063359677,0,70,255.0,255.0,255.0
337,16.85,-1.2339686645244743,2.4670361069190427,-8.487494300055257,0.05545621107031255,-0.11093863392376462,-0.5197478596508961,0.0035003331647556367,-0.006985302453945462,-0.037427944632694,0,70,255.0,255.0,255.0
338,16.900000000000002,-1.231191076550213,2.46147982406968,-8.51352930969526,0.0556553479859369,-0.111325070552842,-0.5216691604825084,0.004465143460218365,-0.008472162709150296,-0.039424088631791226,0,70,255.0,255.0,255.0
339,16.95,-1.2284023257173011,2.4559023608135457,-8.53966287955684,0.05590272541633437,-0.11178585019467963,-0.5236902685140753,0.005429953755681024,-0.009959022964355024,-0.041420232630888315,0,70,255.0,255.0,255.0
340,17.0,-1.2256,2.4503,-8.5659,0.056198343361505,-0.11232097284927749,-0.5258111837455971,0.006394764051143309,-0.011445883219559971,-0.04341637662998554,0,70,255.0,255.0,255.0
341,17.05,-1.2227824847545967,2.4446699474200146,-8.59224395319642,0.056494358899914415,-0.1128750620200488,-0.5279294148781757,0.0054458574852331385,-0.010717683611291674,-0.041312868673158726,0,70,255.0,255.0,255.0
342,17.1,-1.2199513548654801,2.439013100631002,-8.61869118856452,0.05674292911002832,-0.11339274121040667,-0.5299424706129131,0.004496950919322968,-0.009989484003023377,-0.0392093607163319,0,70,255.0,255.0,255.0
343,17.150000000000002,-1.217108982599065,2.433331280131981,-8.645236447334414,0.05694405399184672,-0.11387401042035113,-0.531850350949809,0.0035480443534127975,-0.009261284394755077,-0.037105852759505085,0,70,255.0,255.0,255.0
344,17.2,-1.2142577402217671,2.4276263064219736,-8.671874470736203,0.057097733545369594,-0.11431886964988215,-0.5336530558888635,0.0025991377875026946,-0.008533084786486832,-0.035002344802678415,0,70,255.0,255.0,255.0
345,17.25,-1.2114,2.4219,-8.6986,0.057203967770596977,-0.1147273188989998,-0.5353505854300767,0.001650231221592413,-0.007804885178218313,-0.03289883684584982,0,70,255.0,255.0,255.0
346,17.3,-1.2085373593157898,2.4161540838076694,-8.72540892693749,0.05730924973088106,-0.11510521161235754,-0.5370119744680723,0.002561047189770884,-0.007310823356091116,-0.03355672467397196,0,70,255.0,255.0,255.0
347,17.35,-1.205668316013605,2.410389890556949,-8.752301745686665,0.05746007248957406,-0.11545840123460892,-0.538706257897474,0.0034718631579493545,-0.006816761533963919,-0.034214612502094094,0,70,255.0,255.0,255.0
348,17.400000000000002,-1.2027905930535252,2.4046086554023938,-8.779280100967096,0.057656436046676,-0.11578688776575395,-0.5404334357182817,0.004382679126127826,-0.006322699711836723,-0.03487250033021623,0,70,255.0,255.0,255.0
349,17.45,-1.1999019133956306,2.398811613498559,-8.806345637498351,0.05789834040218684,-0.11609067120579258,-0.5421935079304956,0.005293495094306232,-0.005828637889709561,-0.035530388158338325,0,70,255.0,255.0,255.0
350,17.5,-1.197,2.393,-8.8335,0.05818578555610662,-0.1163697515547249,-0.5439864745341155,0.0062043110624846465,-0.005334576067582919,-0.036188275986458684,0,70,255.0,255.0,255.0
351,17.55,-1.1940832779822446,2.387174517349305,-8.860744339053625,0.05847664217656087,-0.11665609153052316,-0.545782687249547,0.00542995375568508,-0.006119022964347132,-0.03566023263079909,0,70,255.0,255.0,255.0
352,17.6,-1.1911529810800996,2.3813337371412002,-8.888077828688827,0.05872878093167514,-0.11698165385115962,-0.5475524977971955,0.0046555964488855135,-0.006903469861111344,-0.03513218927513949,0,70,255.0,255.0,255.0
353,17.650000000000002,-1.1882110451868324,2.3754756982584415,-8.915499148797215,0.05894220182144943,-0.11734643851663429,-0.5492959061770609,0.003881239142085946,-0.007687916757875557,-0.03460414591947989,0,70,255.0,255.0,255.0
354,17.7,-1.1852594061957105,2.36959843958379,-8.943006979270402,0.05911690484588373,-0.11775044552694716,-0.5510129123891434,0.0031068818352864348,-0.008472363654639714,-0.03407610256382033,0,70,255.0,255.0,255.0
355,17.75,-1.1823,2.3637,-8.9706,0.05925289000497806,-0.11819367488209827,-0.552703516433443,0.002332524528486757,-0.009256810551403816,-0.03354805920816073,0,70,255.0,255.0,255.0
356,17.8,-1.1793343287552325,2.357779046795108,-8.998276916848013,0.05937618156287769,-0.11863842226554575,-0.5543692765337158,0.002599137787498344,-0.008533084786495027,-0.03308234480275071,0,70,255.0,255.0,255.0
357,17.85,-1.176362159665996,2.3518367608782493,-9.026036539558035,0.0595128037837279,-0.11904698336074777,-0.5560117509137181,0.002865751046509931,-0.007809359021586239,-0.032616630397340696,0,70,255.0,255.0,255.0
358,17.900000000000002,-1.1733828261991437,2.3458749515638373,-9.053877703844048,0.05966275666752869,-0.11941935816770438,-0.5576309395734498,0.003132364305521518,-0.007085633256677451,-0.03215091599193068,0,70,255.0,255.0,255.0
359,17.95,-1.1703956618215274,2.339895428166283,-9.081799245420038,0.05982604021428004,-0.11975554668641551,-0.5592268425129111,0.003398977564533086,-0.006361907491768714,-0.03168520158652069,0,70,255.0,255.0,255.0
360,18.0,-1.1674,2.3339,-9.1098,0.060002654423981984,-0.12005554891688124,-0.5607994597321019,0.0036655908235447288,-0.0056381817268599255,-0.031219487181108896,0,70,255.0,255.0,255.0
361,18.05,-1.1643954069968254,2.3278900954702624,-9.13787919355432,0.06017863157192816,-0.12034221940729549,-0.5623722066155883,0.003373495094302277,-0.005828637889709868,-0.03169038815834587,0,70,255.0,255.0,255.0
362,18.1,-1.161382380255915,2.321865619345801,-9.166037613079041,0.06034000393341222,-0.12063841270585222,-0.5639684985479365,0.0030813993650598255,-0.006019094052559809,-0.03216128913558284,0,70,255.0,255.0,255.0
363,18.150000000000002,-1.1583616500165916,2.315826095486208,-9.194276435826596,0.06048677150843415,-0.12094412881255147,-0.5655883355291467,0.0027893036358173735,-0.00620955021540975,-0.032632190112819814,0,70,255.0,255.0,255.0
364,18.2,-1.1553339465181793,2.3097710477510773,-9.222596839049436,0.06061893429699395,-0.1212593677273932,-0.5672317175592184,0.0024972079065749427,-0.0064000063782596785,-0.03310309109005675,0,70,255.0,255.0,255.0
365,18.25,-1.1523,2.3037,-9.251,0.060736492299091636,-0.12158412945037743,-0.5688986446381522,0.00220511217733238,-0.006590462541109177,-0.0335739920672955,0,70,255.0,255.0,255.0
366,18.3,-1.1492600432574664,2.2976125713238407,-9.279486308934699,0.06086929214940732,-0.12191270010527105,-0.5705418970039293,0.003106881835294863,-0.006552363654635517,-0.032156102563791734,0,70,255.0,255.0,255.0
367,18.35,-1.1462123193103444,2.2915087617385446,-9.308053008125807,0.06104718048262113,-0.12223936581584098,-0.5721142548945315,0.004008651493257346,-0.006514264768161858,-0.03073821306028797,0,70,255.0,255.0,255.0
368,18.400000000000002,-1.143154573734489,2.2853886664913285,-9.336696552849567,0.06127015729873306,-0.12256412658208723,-0.5736157183099583,0.004910421151219828,-0.006476165881688199,-0.029320323556784204,0,70,255.0,255.0,255.0
369,18.45,-1.140084552105756,2.279252380829409,-9.365413398382216,0.061538222597743095,-0.1228869824040098,-0.5750462872502098,0.005812190809182247,-0.006438066995214543,-0.027902434053280543,0,70,255.0,255.0,255.0
370,18.5,-1.137,2.2731,-9.3942,0.06185137637965128,-0.12320793328160869,-0.5764059617152864,0.006713960467144897,-0.006399968108740661,-0.026484544549777667,0,70,255.0,255.0,255.0
371,18.55,-1.1338996199733093,2.2669316192343736,-9.423053970706885,0.06215219983044323,-0.12352698017162142,-0.577764205368694,0.005318977564532903,-0.006361907491768703,-0.02784520158652841,0,70,255.0,255.0,255.0
372,18.6,-1.1307859425027078,2.2607473337000186,-9.451977554417732,0.06238327413610458,-0.12384412403078557,-0.5791904818739393,0.003923994661920909,-0.006323846874796745,-0.02920585862327915,0,70,255.0,255.0,255.0
373,18.650000000000002,-1.127662455045451,2.254547238548476,-9.480974152775143,0.06254459929663533,-0.1241593648591011,-0.5806847912310219,0.0025290117593089146,-0.0062857862578247865,-0.030566515660029894,0,70,255.0,255.0,255.0
374,18.7,-1.1245326450587965,2.2483314289312895,-9.5100471674217,0.06263617531203547,-0.12447270265656804,-0.5822471334399422,0.0011340288566970202,-0.006247725640852831,-0.03192717269678054,0,70,255.0,255.0,255.0
375,18.75,-1.1214,2.2421,-9.5392,0.06265800218230502,-0.12478413742318638,-0.5838775085007001,-0.000260954045915307,-0.0062096650238802065,-0.03328782973353395,0,70,255.0,255.0,255.0
376,18.8,-1.118267076849295,2.2358529517386634,-9.568434608237766,0.06266590852882141,-0.12509937920823988,-0.58548928152129,0.0005772079065706878,-0.006400006378259285,-0.03118309109006227,0,70,255.0,255.0,255.0
377,18.85,-1.115132710678824,2.2295899034613806,-9.59774717420326,0.06271572297296209,-0.12542413806101232,-0.5869958176097064,0.0014153698590566826,-0.006590347732638363,-0.02907835244659059,0,70,255.0,255.0,255.0
378,18.900000000000002,-1.111994806083705,2.223310379314767,-9.627132436049868,0.06280744551472708,-0.12575841398150372,-0.5883971167659491,0.0022535318115426773,-0.006780689087017441,-0.026973613803118912,0,70,255.0,255.0,255.0
379,18.95,-1.1088512676590576,2.2170139034454355,-9.656585131930983,0.06294107615411636,-0.12610220696971403,-0.5896931789900182,0.003091693764028613,-0.006971030441396506,-0.024868875159647384,0,70,255.0,255.0,255.0
380,19.0,-1.1057,2.2107,-9.6861,0.06311661489112992,-0.12645551702564334,-0.5908840042819139,0.0039298557165142745,-0.007161371795775029,-0.022764136516178368,0,70,255.0,255.0,255.0
381,19.05,-1.1025392726295091,2.2043685738109735,-9.715673196342047,0.06331216605427224,-0.1267955029954183,-0.5920546685461506,0.003892190809178308,-0.006438066995222947,-0.02406243405329038,0,70,255.0,255.0,255.0
382,19.1,-1.0993688147819953,2.198021052454459,-9.74530654876923,0.06350583397204776,-0.12709932372516566,-0.593290247687243,0.003854525901842342,-0.005714762194670865,-0.025360731590402388,0,70,255.0,255.0,255.0
383,19.150000000000002,-1.096188720619727,2.191659244192457,-9.775003303025388,0.06369761864445647,-0.12736697921488538,-0.5945907417051909,0.0038168609945063753,-0.004991457394118784,-0.0266590291275144,0,70,255.0,255.0,255.0
384,19.200000000000003,-1.0929990843049724,2.1852849572869704,-9.804766704854364,0.0638875200714984,-0.12759846946457754,-0.5959561505999944,0.0037791960871704088,-0.004268152593566702,-0.02795732666462641,0,70,255.0,255.0,255.0
385,19.25,-1.0898,2.1789,-9.8346,0.0640755382531735,-0.12779379447424205,-0.5973864743716535,0.003741531179834112,-0.0035448477930146716,-0.029255624201733,0,70,255.0,255.0,255.0
386,19.3,-1.086591832632668,2.172505553017443,-9.864505406394041,0.06424542725408687,-0.1279906088100886,-0.5988200442941157,0.0030540288567009093,-0.004327725640848634,-0.02808717269675432,0,70,255.0,255.0,255.0
387,19.35,-1.083376030193194,2.1661002867207846,-9.894481030719824,0.06438094113884359,-0.1282265670383269,-0.600195191641329,0.002366526533567706,-0.005110603488682597,-0.02691872119177564,0,70,255.0,255.0,255.0
388,19.400000000000002,-1.0801543114373862,2.159682243915404,-9.924523951848588,0.06448207990744365,-0.1285016691589569,-0.6015119164132933,0.0016790242104345026,-0.00589348133651656,-0.025750269686796962,0,70,255.0,255.0,255.0
389,19.450000000000003,-1.076928395121052,2.153249467406682,-9.95463124865157,0.06454884355988705,-0.12881591517197857,-0.6027702186100087,0.0009915218873012997,-0.0066763591843505225,-0.02458181818181828,0,70,255.0,255.0,255.0
390,19.5,-1.0737,2.1468,-9.9848,0.06458123209617378,-0.12916930507739194,-0.6039700982314751,0.0003040195641683674,-0.007459237032183541,-0.023413366676839686,0,70,255.0,255.0,255.0
391,19.55,-1.0704701968398196,2.140332414119253,-10.015027578081789,0.06461812492937882,-0.1295300617642312,-0.6051291542773874,0.0011716937640330674,-0.006971030441387331,-0.022948875159654485,0,70,255.0,255.0,255.0
392,19.6,-1.0672374644452287,2.1338474006624017,-10.045312528351475,0.06469840147257709,-0.12986640812153066,-0.6062649857474406,0.0020393679638977674,-0.006482823850591121,-0.022484383642469283,0,70,255.0,255.0,255.0
393,19.650000000000002,-1.0639996336307285,2.1273461801459255,-10.07565368958027,0.0648220617257686,-0.13017834414929036,-0.6073775926416345,0.002907042163762467,-0.005994617259794911,-0.02201989212528408,0,70,255.0,255.0,255.0
394,19.700000000000003,-1.0607545352108187,2.1208299730862987,-10.106049900539375,0.06498910568895333,-0.13046586984751019,-0.6084669749599689,0.003774716363627167,-0.005506410668998702,-0.02155540060809888,0,70,255.0,255.0,255.0
395,19.75,-1.0575,2.1143,-10.1365,0.06519953336213132,-0.13072898521619017,-0.6095331327024442,0.004642390563491916,-0.00501820407820186,-0.021090909090911936,0,70,255.0,255.0,255.0
396,19.8,-1.0542345800080544,2.107757590505545,-10.16700348127881,0.06541007302839788,-0.1309611441329844,-0.610615338596333,0.0037791960871701325,-0.004268152593566776,-0.022197326664636936,0,70,255.0,255.0,255.0
397,19.85,-1.0509597120258904,2.1012045106296053,-10.197562455874278,0.06557745297084833,-0.13115580047554684,-0.6117528653689079,0.002916001610848349,-0.0035181011089316936,-0.023303744238361932,0,70,255.0,255.0,255.0
398,19.900000000000002,-1.0476775540396999,2.0946426355008936,-10.228179689830345,0.06570167318948271,-0.13131295424387757,-0.6129457130201692,0.002052807134526565,-0.0027680496242966104,-0.024410161812086932,0,70,255.0,255.0,255.0
399,19.950000000000003,-1.0443902640356724,2.088073840248121,-10.25885794919094,0.065782733684301,-0.13143260543797652,-0.6141938815501167,0.0011896126582047815,-0.002017998139661527,-0.02551657938581193,0,70,255.0,255.0,255.0
400,20.0,-1.0411,2.0815,-10.2896,0.06582063445530319,-0.13151475405784374,-0.6154973709587503,0.00032641818188305916,-0.0012679466550262752,-0.026622996959535072,0,70,255.0,255.0,255.0
401,20.05,-1.0378082831279634,2.0749220238585684,-10.320407296802982,0.06585358295703268,-0.13161736170382837,-0.6167774913372842,0.0009915218872971515,-0.0028363591843590056,-0.024581818181817965,0,70,255.0,255.0,255.0
402,20.1,-1.0345140874512087,2.068336956819176,-10.351276048151416,0.0659197866440329,-0.13179838997627966,-0.6179555527769321,0.001656625592711244,-0.004404771713691736,-0.022540639404100858,0,70,255.0,255.0,255.0
403,20.150000000000002,-1.0312157502104722,2.0617408778504993,-10.382201151098359,0.06601924551630381,-0.13205783887519754,-0.6190315552776943,0.0023217292981253363,-0.0059731842430244654,-0.020499460626383748,0,70,255.0,255.0,255.0
404,20.200000000000003,-1.0279116086464906,2.0551298659212147,-10.41317750269687,0.06615195957384544,-0.1323957084005821,-0.6200054988395706,0.0029868330035394287,-0.007541596772357196,-0.018458281848666644,0,70,255.0,255.0,255.0
405,20.25,-1.0246,2.0485,-10.4442,0.06631792881665777,-0.13281199855243325,-0.620877383462561,0.003651936708953585,-0.00911000930168937,-0.01641710307094879,0,70,255.0,255.0,255.0
406,20.3,-1.0212794874800915,2.0418487140601815,-10.475264931509274,0.06650359514347218,-0.13322540905170055,-0.6217306960545366,0.0037747163636229447,-0.007426410669002224,-0.017715400608072526,0,70,255.0,255.0,255.0
407,20.35,-1.0179495381692738,2.0351788620936904,-10.50637415152007,0.06669540045302007,-0.13355463961933348,-0.6226489235233683,0.0038974960182923046,-0.005742812036315078,-0.01901369814519626,0,70,255.0,255.0,255.0
408,20.400000000000002,-1.0146098451184105,2.0284946530971086,-10.537530905776226,0.06689334474530141,-0.13379969025533206,-0.6236320658690563,0.004020275672961665,-0.004059213403627932,-0.020311995682319995,0,70,255.0,255.0,255.0
409,20.450000000000003,-1.0112601013783649,2.021800296067018,-10.56873844002159,0.06709742802031625,-0.13396056095969627,-0.6246801230916004,0.004143055327631024,-0.002375614770940786,-0.02161029321944373,0,70,255.0,255.0,255.0
410,20.5,-1.0079,2.0151,-10.6,0.06730765027806453,-0.13403725173242614,-0.6257930951910005,0.004265834982300487,-0.0006920161382528711,-0.022908590756566483,0,70,255.0,255.0,255.0
411,20.55,-1.0045297669516706,2.008396719900705,-10.631317777159925,0.06749203646907731,-0.1341050020893738,-0.6269077244445602,0.003109612658210953,-0.00201799813965284,-0.021676579385820443,0,70,255.0,255.0,255.0
412,20.6,-1.0011517598716955,2.0016883948060613,-10.662689745768315,0.06761861154388563,-0.13423905154639143,-0.6279607531295824,0.001953390334121419,-0.003343980141052809,-0.020444568015074403,0,70,255.0,255.0,255.0
413,20.650000000000002,-0.9977688693158853,1.9949717097610646,-10.694112825796743,0.06768737550248946,-0.13443940010347907,-0.6289521812460676,0.000797168010031885,-0.0046699621424527785,-0.019212556644328364,0,70,255.0,255.0,255.0
414,20.700000000000003,-0.9943839858400498,1.988243349810712,-10.72558393721678,0.06769832834488881,-0.13470604776063672,-0.6298820087940153,-0.00035905431405764895,-0.005995944143852747,-0.017980545273582324,0,70,255.0,255.0,255.0
415,20.75,-0.991,1.9815,-10.7571,0.0676514700710837,-0.1350389945178643,-0.6307502357734259,-0.0015152766381473226,-0.007321926145251956,-0.016748533902839036,0,70,255.0,255.0,255.0
416,20.8,-0.987619044713226,1.9747396063369973,-10.788658359851029,0.0675922589802185,-0.13536258259080444,-0.6315824061672146,-0.0008531669964601768,-0.005621596772352897,-0.016538281848706225,0,70,255.0,255.0,255.0
417,20.85,-0.9842402223439433,1.9679651586820635,-10.820258065406676,0.06756615337143768,-0.1356011541950996,-0.6324040639582966,-0.00019105735477303095,-0.003921267399453839,-0.01632802979457341,0,70,255.0,255.0,255.0
418,20.900000000000002,-0.9808618776180474,1.9611809078586313,-10.851898591036813,0.0675731532447412,-0.13575470933074982,-0.633215209146672,0.0004710522869141149,-0.0022209380265547805,-0.0161177777404406,0,70,255.0,255.0,255.0
419,20.950000000000003,-0.9774823552614343,1.9543911046901323,-10.8835794111113,0.06761325860012908,-0.13582324799775508,-0.6340158417323407,0.0011331619286012607,-0.0005206086536557221,-0.015907525686307787,0,70,255.0,255.0,255.0
420,21.0,-0.9741,1.9476,-10.9153,0.06768646943760133,-0.1358067701961154,-0.6348059617153026,0.0017952715702883593,0.0011797207192427717,-0.01569727363217055,0,70,255.0,255.0,255.0
421,21.05,-0.9707132541954249,1.9408104547513056,-10.947059983435967,0.06778692761004927,-0.13578866754740807,-0.6355946508865924,0.002223055327629259,-0.00045561477094959823,-0.01585029321942031,0,70,255.0,255.0,255.0
422,21.1,-0.9673209507525304,1.9340197704656839,-10.978859592604984,0.06790877497036425,-0.13585233167321037,-0.6363909910372446,0.002650839084970159,-0.002090950261141968,-0.01600331280667007,0,70,255.0,255.0,255.0
423,21.150000000000002,-0.9639220202119237,1.927223858804409,-11.010699210056016,0.06805201151854628,-0.13599776257352225,-0.6371949821672593,0.003078622842311059,-0.003726285751334338,-0.016156332393919833,0,70,255.0,255.0,255.0
424,21.200000000000003,-0.9605153931142113,1.9204186314287564,-11.042579218338032,0.06821663725459537,-0.1362249602483438,-0.6380066242766367,0.003506406599651959,-0.005361621241526708,-0.016309351981169593,0,70,255.0,255.0,255.0
425,21.25,-0.9571,1.9136,-11.0745,0.06840265217851148,-0.13653392469767495,-0.6388259173653763,0.003934190356992606,-0.006996956731719628,-0.016462371568417566,0,70,255.0,255.0,255.0
426,21.3,-0.9536751385050745,1.90676497465778,-11.10646170640511,0.06858803057958483,-0.13685874721956415,-0.6396389902864256,0.00348094568594181,-0.005995944143848039,-0.016060545273554532,0,70,255.0,255.0,255.0
427,21.35,-0.950241574645934,1.8999149594551998,-11.138463564173398,0.06875074674710567,-0.13713351911205976,-0.6404319718927317,0.0030277010148910136,-0.00499493155597645,-0.015658718978691498,0,70,255.0,255.0,255.0
428,21.400000000000002,-0.9468004415342561,1.8930524569237301,-11.170504568739137,0.06889080068107395,-0.1373582403751618,-0.6412048621842947,0.0025744563438402177,-0.003993918968104861,-0.015256892683828465,0,70,255.0,255.0,255.0
429,21.450000000000003,-0.9433528722817189,1.88617996959484,-11.202583715536583,0.0690081923814897,-0.13753291100887025,-0.6419576611611146,0.002121211672789421,-0.002992906380233272,-0.014855066388965431,0,70,255.0,255.0,255.0
430,21.5,-0.9399,1.8793,-11.2347,0.06910292184835287,-0.13765753101318512,-0.6426903688231913,0.001667967001738102,-0.001991893792360866,-0.014453240094104203,0,70,255.0,255.0,255.0
431,21.55,-0.9364429917842771,1.8724144466175745,-11.266852390943606,0.06917295007161135,-0.1377683435743355,-0.6434013879677016,0.0011331619286011041,-0.0024406086536553026,-0.013987525686311024,0,70,255.0,255.0,255.0
432,21.6,-0.9329831506637329,1.8655227917135153,-11.299039750701432,0.06921623804121299,-0.13790159187855067,-0.6440891213918224,0.0005983568554641064,-0.002889323514949739,-0.013521811278517846,0,70,255.0,255.0,255.0
433,21.650000000000002,-0.92952181365105,1.8586239135006681,-11.331260914987451,0.06923278575715777,-0.1380572759258305,-0.6447535690955535,6.355178232710871e-05,-0.003338038376244176,-0.013056096870724667,0,70,255.0,255.0,255.0
434,21.700000000000003,-0.9260603177589113,1.851716690191881,-11.363514719515647,0.0692225932194457,-0.13823539571617507,-0.6453947310788949,-0.0004712532908098892,-0.0037867532375386124,-0.012590382462931489,0,70,255.0,255.0,255.0
435,21.75,-0.9226,1.8448,-11.3958,0.06918566042807678,-0.13843595124958435,-0.6460126073418466,-0.001006058363947293,-0.004235468098832573,-0.012124668055136567,0,70,255.0,255.0,255.0
436,21.8,-0.9191416943578161,1.8378732388719208,-11.428115929820464,0.0691521691339694,-0.13862787848309335,-0.6466274578427552,-0.00033359340034778853,-0.003441621241527215,-0.012469351981210868,0,70,255.0,255.0,255.0
437,21.85,-0.9156842226991332,1.8309378736907382,-11.460463033020881,0.06915230108804199,-0.13878011337373708,-0.6472595425399678,0.000338871563251716,-0.002647774384221857,-0.012814035907285169,0,70,255.0,255.0,255.0
438,21.900000000000002,-0.9122259038615422,1.8239958890735948,-11.492842171311066,0.06918605629029456,-0.13889265592151556,-0.6479088614334838,0.001011336526851221,-0.0018539275269164983,-0.013158719833359471,0,70,255.0,255.0,255.0
439,21.950000000000003,-0.908765056682634,1.8170492696376344,-11.525254206400836,0.06925343474072714,-0.13896550612642875,-0.6485754145233037,0.0016838014904507251,-0.0010600806696111401,-0.013503403759433772,0,70,255.0,255.0,255.0
440,22.0,-0.9053,1.8101,-11.5577,0.06935443643933963,-0.13899866398847666,-0.6492592018094272,0.002356266454049849,-0.0002662338123062824,-0.013848087685506272,0,70,255.0,255.0,255.0
441,22.05,-0.9018294307844575,1.803149397894741,-11.59017988977454,0.0694663733925106,-0.13903214249329013,-0.6499287806612882,0.0021212116727891773,-0.001072906380233463,-0.012935066388936165,0,70,255.0,255.0,255.0
442,22.1,-0.8983535585397333,1.796196113523531,-11.62269211721505,0.06956655760661853,-0.13910595462650002,-0.6505527084483208,0.0018861568915285055,-0.0018795789481606436,-0.01202204509236606,0,70,255.0,255.0,255.0
443,22.150000000000002,-0.89487297090278,1.7892381302049507,-11.655234399768291,0.06965498908166345,-0.1392201003881062,-0.6511309851705248,0.0016511021102678337,-0.002686251516087824,-0.011109023795795953,0,70,255.0,255.0,255.0
444,22.200000000000003,-0.8913882555105511,1.78227343125758,-11.687804454881023,0.06973166781764534,-0.1393745797781088,-0.6516636108279004,0.0014160473290071617,-0.0034929240840150047,-0.010196002499225846,0,70,255.0,255.0,255.0
445,22.25,-0.8879,1.7753,-11.7204,0.06979659381456416,-0.1395693927965077,-0.6521505854204475,0.0011809925477459515,-0.004299596651943016,-0.009282981202655805,0,70,255.0,255.0,255.0
446,22.3,-0.8844085825043531,1.7683163695491158,-11.753018911081384,0.0698623372959876,-0.13977155154374488,-0.6526014195120865,0.0014487467091917987,-0.003786753237542932,-0.008750382462905996,0,70,255.0,255.0,255.0
447,22.35,-0.8809135431419333,1.7613232722151373,-11.785659698118927,0.06994146848548334,-0.139948068120262,-0.6530256236667381,0.0017165008706376459,-0.0032739098231428475,-0.008217783723156187,0,70,255.0,255.0,255.0
448,22.400000000000002,-0.8774142125273368,1.7543219901066012,-11.818321029615776,0.07003398738305137,-0.14009894252605914,-0.6534231978844022,0.0019842550320834933,-0.002761066408742763,-0.007685184983406378,0,70,255.0,255.0,255.0
449,22.450000000000003,-0.8739099212751602,1.7473138053320434,-11.851001574075083,0.07013989398869168,-0.1402241747611363,-0.6537941421650787,0.0022520091935293403,-0.0022482229943426787,-0.00715258624365657,0,70,255.0,255.0,255.0
450,22.5,-0.8704,1.7403,-11.8837,0.07025918830240431,-0.1403237648254934,-0.6541384565087677,0.0025197633549746135,-0.0017353795799421867,-0.006619987503905911,0,70,255.0,255.0,255.0
451,22.55,-0.8668842391981295,1.7332819239087962,-11.916415665899924,0.07036427742353989,-0.14039365133173215,-0.6544975412903523,0.001683801490448166,-0.0010600806696067348,-0.007743403759480765,0,70,255.0,255.0,255.0
452,22.6,-0.863364268892533,1.7262611976159183,-11.949150690309247,0.07042756845144912,-0.1404297728924541,-0.6549127968847158,0.0008478396259217187,-0.00038478175927128284,-0.00886682001505562,0,70,255.0,255.0,255.0
453,22.650000000000002,-0.8598421789878715,1.7192395093686426,-11.98190788176861,0.07044906138613206,-0.14043212950765926,-0.655384223291858,1.1877761395271465e-05,0.0002905171510641691,-0.009990236270630474,0,70,255.0,255.0,255.0
454,22.700000000000003,-0.8563200593888068,1.7122185474142444,-12.014690048818647,0.07042875622758865,-0.14040072117734767,-0.6559118205117788,-0.000824084103131176,0.000965816061399621,-0.011113652526205327,0,70,255.0,255.0,255.0
455,22.75,-0.8528,1.7052,-12.0475,0.07036665297581893,-0.14033554790151928,-0.6564955885444784,-0.0016600459676581192,0.0016411149717348028,-0.012237068781780103,0,70,255.0,255.0,255.0
456,22.8,-0.8492832607031283,1.6981847348156989,-12.080339225318918,0.0703125530098526,-0.14028584312932632,-0.6570564153265036,-0.0005039526709950616,0.00034707591598393374,-0.010196002499226047,0,70,255.0,255.0,255.0
457,22.85,-0.8457677812879342,1.6911703373211873,-12.113203940644084,0.07031625770871942,-0.14030084030992088,-0.6575151887944011,0.000652140625667996,-0.0009469631397669353,-0.008154936216671991,0,70,255.0,255.0,255.0
458,22.900000000000002,-0.8422506715211758,1.6841535724188268,-12.146089043309788,0.0703777670724194,-0.140380539443303,-0.6578719089481708,0.0018082339223310533,-0.002241002195517805,-0.006113869934117934,0,70,255.0,255.0,255.0
459,22.950000000000003,-0.8387290411696116,1.6771312050109772,-12.178989430650331,0.07049708110095253,-0.14052494052947267,-0.6581265757878129,0.002964327218994111,-0.0035350412512686735,-0.004072803651563879,0,70,255.0,255.0,255.0
460,23.0,-0.8352,1.6701,-12.2119,0.0706741997943188,-0.14073404356842983,-0.6582791893133272,0.004120420515657086,-0.004829080307019229,-0.0020317373690117435,0,70,255.0,255.0,255.0
461,23.05,-0.8316619179893571,1.6630575368284082,-12.24481703282441,0.07083351053704857,-0.1409589761509639,-0.6584127974036433,0.0022520091935335175,-0.004168222994342309,-0.003312586243631284,0,70,255.0,255.0,255.0
462,23.1,-0.8281182059557303,1.6560046530993306,-12.277742347114426,0.07089940071367215,-0.14115086586786404,-0.6586104479376903,0.0003835978714099488,-0.00350736568166539,-0.004593435118250825,0,70,255.0,255.0,255.0
463,23.150000000000002,-0.8245735349274248,1.6489430009560488,-12.31067914499224,0.07087187032418957,-0.14130971271913043,-0.6588721409154684,-0.0014848134507136198,-0.00284650836898847,-0.005874283992870365,0,70,255.0,255.0,255.0
464,23.200000000000003,-0.8210325759327463,1.6418742325418443,-12.343630628580037,0.07075091936860078,-0.14143551670476293,-0.6591978763369774,-0.0033532247728371885,-0.0021856510563115507,-0.007155132867489906,0,70,255.0,255.0,255.0
465,23.25,-0.8175,1.6348,-12.3766,0.07053654784690587,-0.14152827782476157,-0.6595876542022173,-0.005221636094960291,-0.00152479374363379,-0.008435981742107579,0,70,255.0,255.0,255.0
466,23.3,-0.8139786673394435,1.6277219178706677,-12.40958944338345,0.07033740484195353,-0.1415902522668174,-0.6599803950589254,-0.0027440841031332354,-0.0009541839385998426,-0.0072736525262131315,0,70,255.0,255.0,255.0
467,23.35,-0.8104641948891447,1.620641450281489,-12.442597070898215,0.07026213943659254,-0.14162369621862156,-0.6603150194548386,-0.00026653211130617943,-0.00038357413356589535,-0.006111323310318684,0,70,255.0,255.0,255.0
468,23.400000000000002,-0.8069503887691242,1.6135600237569763,-12.475619976721253,0.07031075163082291,-0.141628609680174,-0.6605915273899572,0.0022110198805208757,0.00018703567146805206,-0.004948994094424237,0,70,255.0,255.0,255.0
469,23.450000000000003,-0.8034310550994025,1.606479064821642,-12.508655255029531,0.07048324142464464,-0.14160499265147475,-0.6608099188642811,0.0046885718723479325,0.0007576454765019992,-0.003786664878529789,0,70,255.0,255.0,255.0
470,23.5,-0.7999,1.5994,-12.5417,0.0707796088180577,-0.1415528451325238,-0.6609701938778101,0.007166123864175367,0.0013282552815363502,-0.0026243356626309833,0,70,255.0,255.0,255.0
471,23.55,-0.7963530126528691,1.5923235916889202,-12.5747515936418,0.07108087009513693,-0.14151201478176711,-0.661089622360665,0.00488432721899389,0.0003049587487311844,-0.0021528036515682846,0,70,255.0,255.0,255.0
472,23.6,-0.7927938144876905,1.5852479457747124,-12.607808569292724,0.07126804153995708,-0.1415223492576507,-0.6611854742429669,0.002602530573812413,-0.0007183377840739814,-0.0016812716405055859,0,70,255.0,255.0,255.0
473,23.650000000000002,-0.7892281099960775,1.5781705040160443,-12.640869748122753,0.07134112315251818,-0.14158384856017453,-0.6612577495247156,0.00032073392863093703,-0.0017416343168791472,-0.0012097396294428874,0,70,255.0,255.0,255.0
474,23.700000000000003,-0.785661603669643,1.5710887081715843,-12.673933951301857,0.0713001149328202,-0.1416965126893386,-0.6613064482059112,-0.0019610627165505407,-0.002764930849684313,-0.0007382076183801887,0,70,255.0,255.0,255.0
475,23.75,-0.7821,1.564,-12.707,0.07114501688086315,-0.14186034164514294,-0.6613315702865538,-0.004242859361731521,-0.0037882273824889623,-0.0002666756073166354,0,70,255.0,255.0,255.0
476,23.8,-0.7785476820490802,1.5569029153736507,-12.740067382049363,0.070955114777499,-0.14200968860611296,-0.6613731154984234,-0.0033532247728347824,-0.0021856510563111214,-0.0013951328674684565,0,70,255.0,255.0,255.0
477,23.85,-0.7750037471600926,1.5498003666196603,-12.773138251930893,0.07080969440357966,-0.14207890675077406,-0.6614710835733006,-0.002463590183938044,-0.0005830747301332805,-0.0025235901276202777,0,70,255.0,255.0,255.0
478,23.900000000000002,-0.7714659712465648,1.5426963601788448,-12.806215430787745,0.0707087557591052,-0.1420679960791263,-0.6616254745111855,-0.001573955595041305,0.00101950159604456,-0.0036520473877720986,0,70,255.0,255.0,255.0
479,23.950000000000003,-0.7679321302220246,1.5355949024920195,-12.839301739763064,0.07065229884407553,-0.1419769565911696,-0.6618362883120779,-0.0006843210061445665,0.0026220779222224013,-0.00478050464792392,0,70,255.0,255.0,255.0
480,24.0,-0.7644,1.5285,-12.8724,0.07064032365849071,-0.14180578828690407,-0.6621035249759777,0.00020531358275133194,0.004224654248399462,-0.00590896190807122,0,70,255.0,255.0,255.0
481,24.05,-0.7608674591508097,1.5214143468164771,-12.905511678160757,0.07066667079486809,-0.14163323079378154,-0.6623459156456427,0.0008485718723439375,0.002677645476501689,-0.00378666487852645,0,70,255.0,255.0,255.0
482,24.1,-0.7573327968719383,1.514335387746645,-12.93863282298371,0.07072518084572511,-0.1415380237392539,-0.6624821914638304,0.0014918301619365431,0.001130636704603916,-0.00166436784898168,0,70,255.0,255.0,255.0
483,24.150000000000002,-0.7537944050176624,1.5072592552685748,-12.971758128726282,0.07081585381106174,-0.14152016712332113,-0.6625123524305409,0.0021350884515291485,-0.00041637206729385704,0.0004579291805630898,0,70,255.0,255.0,255.0
484,24.200000000000003,-0.7502506754422574,1.500182081860336,-13.004882289645906,0.07093868969087803,-0.1415796609459833,-0.6624363985457741,0.0027783467411217544,-0.00196338083919163,0.0025802262101078596,0,70,255.0,255.0,255.0
485,24.25,-0.7467,1.4931,-13.038,0.07109368848517392,-0.1417165052072403,-0.66225432980953,0.003421605030714092,-0.003510389611089293,0.0047025232396524785,0,70,255.0,255.0,255.0
486,24.3,-0.7431416813476809,1.4860100973604413,-13.07110750530762,0.07122620204302807,-0.14187338821875964,-0.6620592219189985,0.001878937283451543,-0.0027649308496839335,0.0031017923816097463,0,70,255.0,255.0,255.0
487,24.35,-0.7395786653521532,1.4789132823937583,-13.104207256134282,0.07128158221351907,-0.1419929982922087,-0.661944150571369,0.00033626953618899396,-0.002019472088278574,0.0015010615235670145,0,70,255.0,255.0,255.0
488,24.400000000000002,-0.736014808682785,1.4718114187468547,-13.137303254307136,0.07125982899664696,-0.1420753354275875,-0.6619091157666418,-0.0012063982110735554,-0.0012740133268732152,-9.966933447571723e-05,0,70,255.0,255.0,255.0
489,24.450000000000003,-0.7324539680089445,1.4647063700666338,-13.170399501653328,0.07116094239241172,-0.14212039962489603,-0.6619541175048166,-0.0027490659583361042,-0.0005285545654678558,-0.0017004001925184494,0,70,255.0,255.0,255.0
490,24.5,-0.7289,1.4576,-13.2035,0.07098492240081337,-0.14212819088413428,-0.6620791557858937,-0.004291733705598433,0.0002169041959374507,-0.00330113105056018,0,70,255.0,255.0,255.0
491,24.55,-0.7253554154584665,1.4504940637417574,-13.236607100608774,0.0708125210330198,-0.1421052163311804,-0.662185196678356,-0.0026043210061447368,0.0007020779222178655,-0.0009405046479295741,0,70,255.0,255.0,255.0
492,24.6,-0.7218173417194483,1.4433898826783202,-13.269716552479169,0.0707244903001989,-0.1420579830919125,-0.6621732062506867,-0.0009169083066910408,0.0011872516484982803,0.0014201217547010316,0,70,255.0,255.0,255.0
493,24.650000000000002,-0.7182815602511969,1.4362886697440045,-13.302822454045174,0.07072083020235069,-0.14198649116633055,-0.6620431845028858,0.0007705043927626548,0.001672425374778695,0.0037807481573316377,0,70,255.0,255.0,255.0
494,24.700000000000003,-0.7147438525219636,1.4291916378731255,-13.335918903740788,0.07080154073947516,-0.14189074055443462,-0.6617951314349535,0.0024579170922163513,0.00215759910105911,0.006141374559962243,0,70,255.0,255.0,255.0
495,24.75,-0.7112,1.4221,-13.369,0.07096662191157231,-0.14177073125622466,-0.6614290470468897,0.004145329791670371,0.0026427728273399342,0.008502000962594458,0,70,255.0,255.0,255.0
496,24.8,-0.7076470568184529,1.4150144476725286,-13.40206169225729,0.07113971382489212,-0.14165774645652074,-0.6610559913675723,0.0027783467411217648,0.0018766191608167284,0.006420226210099293,0,70,255.0,255.0,255.0
497,24.85,-0.7040871677700529,1.4079335868929588,-13.435107333949052,0.0712444565856845,-0.14158306934014298,-0.6607870244258797,0.0014113636905731587,0.0011104654942935225,0.0043384514576041274,0,70,255.0,255.0,255.0
498,24.900000000000002,-0.7005237503124264,1.4008555022771252,-13.46814212951217,0.07128085019394943,-0.14154669990709137,-0.6606221462218119,4.438064002455257e-05,0.0003443118277703166,0.0022566767051089617,0,70,255.0,255.0,255.0
499,24.950000000000003,-0.6969602219032,1.3937782784408608,-13.501171283383528,0.07124889464968695,-0.14154863815736596,-0.6605613567553688,-0.001322602410524054,-0.00042184183875288925,0.00017490195261379675,0,70,255.0,255.0,255.0
500,25.0,-0.6934,1.3867,-13.5342,0.07114858995289705,-0.14158888409096668,-0.6606046560265505,-0.0026895854610720082,-0.0011879955052764846,-0.0019068727998812207,0,70,255.0,255.0,255.0
501,25.05,-0.689845957267722,1.379619345568128,-13.567231730362074,0.07101262366741191,-0.14163179784273539,-0.6606468378513598,-0.002749065958333708,-0.0005285545654724183,0.00021959980751077007,0,70,255.0,255.0,255.0
502,25.1,-0.6862987872003398,1.3725373697498429,-13.600262911724629,0.07087368335706368,-0.1416417395475139,-0.6605826960457994,-0.002808546455595408,0.0001308863743316479,0.002346072414902761,0,70,255.0,255.0,255.0
503,25.150000000000002,-0.6827586384990966,1.3654557211474931,-13.63328822790615,0.07073176902185237,-0.14161870920530223,-0.6604122306098694,-0.002868026952857108,0.0007903273141357139,0.004472545022294752,0,70,255.0,255.0,255.0
504,25.200000000000003,-0.6792256598652355,1.3583760483634288,-13.666302362725112,0.07058688066177796,-0.14156270681610036,-0.66013544154357,-0.0029275074501188083,0.0014497682539397804,0.006599017629686742,0,70,255.0,255.0,255.0
505,25.25,-0.6757,1.3513,-13.6993,0.07043901827684049,-0.14147373237990823,-0.6597523288469008,-0.002986987947380504,0.0021092091937440216,0.008725490237078581,0,70,255.0,255.0,255.0
506,25.3,-0.672181114110659,1.3442289700549581,-13.732276986294416,0.07032979150546127,-0.14136706217253814,-0.6593326572269758,-0.0013820829077874958,0.002157599101059305,0.00806137455992423,0,70,255.0,255.0,255.0
507,25.35,-0.6686656834285875,1.3371633341076687,-13.765233819152428,0.07030080998606174,-0.1412579724698023,-0.6589461913909084,0.00022282213180551238,0.0022059890083745886,0.007397258882769878,0,70,255.0,255.0,255.0
508,25.400000000000002,-0.6651496956911864,1.3301032131329003,-13.798172158863236,0.07035207371864183,-0.1411464632717007,-0.6585929313386987,0.0018277271713985207,0.0022543789156898716,0.006733143205615527,0,70,255.0,255.0,255.0
509,25.450000000000003,-0.6616291386358567,1.3230487281054213,-13.83109366571603,0.0704835827032016,-0.1410325345782333,-0.6582728770703469,0.0034326322109915286,0.002302768823005155,0.006069027528461175,0,70,255.0,255.0,255.0
510,25.5,-0.6581,1.316,-13.864,0.07069533693974099,-0.14091618638940018,-0.6579860285858526,0.005037537250584312,0.002351158730320435,0.005404911851308647,0,70,255.0,255.0,255.0
511,25.55,-0.654559986289642,1.3089567742120392,-13.89689232446027,0.07088421031074255,-0.140819953467111,-0.6577025332407541,0.0025173975894778743,0.001498158161246709,0.0059349019526353155,0,70,255.0,255.0,255.0
512,25.6,-0.6510136790853099,1.3019172938194814,-13.92976981166566,0.07094707669868879,-0.1407663705732755,-0.6573925383905891,-2.742071628563346e-06,0.0006451575921729827,0.006464892053961983,0,70,255.0,255.0,255.0
513,25.650000000000002,-0.6474673787361571,1.2948794263209038,-13.962631136640914,0.07088393610357968,-0.1407554377078937,-0.6570560440353579,-0.0025228817327350014,-0.00020784297690074364,0.006994882155288651,0,70,255.0,255.0,255.0
514,25.700000000000003,-0.6439273855913361,1.287841039214884,-13.995474974410778,0.07069478852541528,-0.14078715487096558,-0.6566930501750602,-0.005043021393841439,-0.0010608435459744697,0.007524872256615319,0,70,255.0,255.0,255.0
515,25.75,-0.6404,1.2808,-14.0283,0.07037963396419557,-0.1408615220624911,-0.6563035568096963,-0.007563161054948142,-0.0019138441150483576,0.008054862357943726,0,70,255.0,255.0,255.0
516,25.8,-0.6368893407307734,1.2737551330968853,-14.061104915864506,0.0700693672515689,-0.14092112395901882,-0.6558892098100048,-0.0048475074501187106,-0.0004702317460600254,0.008519017629716614,0,70,255.0,255.0,255.0
517,25.85,-0.6333908002301722,1.2667090906144054,-14.093888534184943,0.06989488321918369,-0.14090854523709712,-0.6554516550467246,-0.002131853845289278,0.0009733806229283068,0.008983172901489502,0,70,255.0,255.0,255.0
518,25.900000000000002,-0.6298975893641844,1.2596654815834827,-14.126649694573121,0.06985618186703996,-0.140823785896726,-0.6549908925198559,0.0005837997595401542,0.0024169929919166397,0.00944732817326239,0,70,255.0,255.0,255.0
519,25.950000000000003,-0.6264029189987975,1.25262791503504,-14.15938723664087,0.0699532631951377,-0.14066684593790543,-0.6545069222293983,0.0032994533643695857,0.0038606053609049713,0.009911483445035278,0,70,255.0,255.0,255.0
520,26.0,-0.6229,1.2456,-14.1921,0.0701861272034769,-0.14043772536063553,-0.6539997441753522,0.0060151069691986025,0.005304217729892091,0.010375638716812574,0,70,255.0,255.0,255.0
521,26.05,-0.6193842507872639,1.2385842934004194,-14.2247872120817,0.07042232068298167,-0.1401995506968131,-0.6534926275192214,0.0034326322109914232,0.004222768823004659,0.00990902752841975,0,70,255.0,255.0,255.0
522,26.1,-0.6158599199940002,1.231579143722896,-14.25744965159458,0.07052939042457605,-0.14001544847833508,-0.6530088414225103,0.000850157452784244,0.0031413199161172273,0.009442416340026925,0,70,255.0,255.0,255.0
523,26.150000000000002,-0.6123334638071047,1.2245818473451633,-14.290088485066608,0.07050733642826008,-0.13988541870520138,-0.6525483858852187,-0.0017323173054229358,0.002059871009229795,0.0089758051516341,0,70,255.0,255.0,255.0
524,26.200000000000003,-0.6088113384134726,1.2175897006449536,-14.32270487902576,0.07035615869403375,-0.13980946137741207,-0.6521112609073468,-0.004314792063630115,0.0009784221023423634,0.008509193963241275,0,70,255.0,255.0,255.0
525,26.25,-0.6053,1.2106,-14.3553,0.07007585722189709,-0.13978757649496718,-0.6516974664888947,-0.006897266821837333,-0.00010302680454565838,0.008042582774845819,0,70,255.0,255.0,255.0
526,26.3,-0.6018040561201707,1.203610893301437,-14.387874235808694,0.0697773500165051,-0.13976867325373016,-0.6512602801131074,-0.0050430213938414915,0.000859156454025514,0.00944487225664423,0,70,255.0,255.0,255.0
527,26.35,-0.598320719793826,1.1966239344940088,-14.420424859436745,0.06957155508251293,-0.13970166084956462,-0.6507529792632302,-0.00318877596584565,0.0018213397125966865,0.010847161738442641,0,70,255.0,255.0,255.0
528,26.400000000000002,-0.594845355407396,1.1896415290358624,-14.452948365160447,0.06945847241992054,-0.1395865392824705,-0.6501755639392631,-0.0013345305378498085,0.002783522971167859,0.012249451220241053,0,70,255.0,255.0,255.0
529,26.450000000000003,-0.5913733273473105,1.1826660823851436,-14.485441247256102,0.06943810202872795,-0.13942330855244783,-0.6495280341412062,0.0005197148901460334,0.0037457062297390313,0.013651740702039464,0,70,255.0,255.0,255.0
530,26.5,-0.5879,1.1757,-14.5179,0.06951044390893514,-0.13921196865949664,-0.6488103898690594,0.0023739603181417435,0.004707889488309913,0.01505403018383511,0,70,255.0,255.0,255.0
531,26.55,-0.584421924732053,1.1687449333938322,-14.550322244683532,0.06960427925099788,-0.13899775628826616,-0.6480902520283387,0.0013794533643674525,0.0038606053609087413,0.013751483444994488,0,70,255.0,255.0,255.0
532,26.6,-0.5809404008306949,1.161799518301067,-14.58271011065845,0.06964838924537188,-0.13882590812340578,-0.6474352415245599,0.0003849464105931616,0.0030133212335075694,0.012448936706153865,0,70,255.0,255.0,255.0
533,26.650000000000002,-0.5774579145633104,1.1548616365113853,-14.615066854291603,0.0696427738920572,-0.13869642416491543,-0.6468453583577233,-0.0006095605431811293,0.002166037106106397,0.011146389967313241,0,70,255.0,255.0,255.0
534,26.700000000000003,-0.573976952197284,1.1479291698144691,-14.647395731949839,0.06958743319105377,-0.13860930441279512,-0.6463206025278285,-0.0016040674969554202,0.0013187529787052252,0.009843843228472619,0,70,255.0,255.0,255.0
535,26.75,-0.5705,1.141,-14.6797,0.06948236714236164,-0.13856454886704492,-0.645860974034876,-0.0025985744507297515,0.00047146885130433525,0.008541296489633865,0,70,255.0,255.0,255.0
536,26.8,-0.5670290449516173,1.134072573123233,-14.711981585457185,0.06935753297950269,-0.13852830159320387,-0.6453867117735533,-0.002394792063628112,0.0009784221023380352,0.010429193963270605,0,70,255.0,255.0,255.0
537,26.85,-0.5635640768833937,1.127147592301722,-14.744237097929462,0.06924288793599882,-0.1384667066568111,-0.6448180546385489,-0.0021910096765264727,0.001485375353371735,0.012317091436907344,0,70,255.0,255.0,255.0
538,26.900000000000002,-0.5601045863393614,1.1202263249185942,-14.776461817673146,0.06913843201185003,-0.1383797640578667,-0.6441550026298626,-0.0019872272894248333,0.0019923286044054352,0.014204988910544083,0,70,255.0,255.0,255.0
539,26.950000000000003,-0.5566500638635526,1.1133100383569776,-14.808651024944554,0.06904416520705633,-0.13826747379637055,-0.6433975557474945,-0.0017834449023231942,0.002499281855439135,0.016092886384180823,0,70,255.0,255.0,255.0
540,27.0,-0.5532,1.1064,-14.8408,0.06896008752161774,-0.13812983587232275,-0.6425457139914446,-0.0015796625152214583,0.003006235106473909,0.01798078385781743,0,70,255.0,255.0,255.0
541,27.05,-0.5497538954614775,1.0994975741132351,-14.872905013487733,0.06888558883099086,-0.1379610373389174,-0.6416589008774475,-0.001400285109853858,0.0037457062297390313,0.01749174070206258,0,70,255.0,255.0,255.0
542,27.1,-0.5463112916357297,1.0926045124920443,-14.904966297623709,0.06882005901063236,-0.13775526524934886,-0.6407965399212383,-0.0012209077044862575,0.004485177353004154,0.01700269754630773,0,70,255.0,255.0,255.0
543,27.150000000000002,-0.5428717400792431,1.085722663814236,-14.936985075015821,0.06876349806054223,-0.137512519603617,-0.6399586311228168,-0.001041530299118657,0.005224648476269276,0.01651365439055288,0,70,255.0,255.0,255.0
544,27.200000000000003,-0.5394347923485042,1.0788538767576183,-14.968962568271955,0.06871590598072048,-0.1372328004017219,-0.639145174482183,-0.0008621528937510568,0.005964119599534398,0.01602461123479803,0,70,255.0,255.0,255.0
545,27.25,-0.536,1.072,-15.0009,0.06867728277116712,-0.13691610764366358,-0.6383561699993371,-0.0006827754883834691,0.006703590722800801,0.015535568079044104,0,70,255.0,255.0,255.0
546,27.3,-0.5325673732024724,1.065161930423827,-15.03279836059189,0.06862011169653365,-0.13661954905112592,-0.6375776847166503,-0.00160406749695551,0.005158752978705095,0.015603843228426763,0,70,255.0,255.0,255.0
547,27.35,-0.5291387565736871,1.0583367577301004,-15.064657711575709,0.06851687602147158,-0.13640023234579307,-0.6367957856764943,-0.002525359505527551,0.003613915234609389,0.01567211837780942,0,70,255.0,255.0,255.0
548,27.400000000000002,-0.5257164533436656,1.0515206198244607,-15.096477882263581,0.06836757574598089,-0.13625815752766496,-0.6360104728788694,-0.0034466515140995917,0.0020690774905136825,0.01574039352719208,0,70,255.0,255.0,255.0
549,27.450000000000003,-0.5223027667424294,1.0447096546125472,-15.128258701967638,0.0681722108700616,-0.1361933245967417,-0.6352217463237751,-0.0043679435226716325,0.000524239746417977,0.01580866867657474,0,70,255.0,255.0,255.0
550,27.5,-0.5189,1.0379,-15.16,0.06793078139371375,-0.13620573355302318,-0.6344296060112118,-0.005289235531243497,-0.001020597997677175,0.01587694382596183,0,70,255.0,255.0,255.0
551,27.55,-0.515509411728633,1.0310891041914572,-15.191701544144713,0.06770596438287459,-0.13621676645657912,-0.6336303602559573,-0.003703444902322883,0.0005792818554398288,0.01609288638421589,0,70,255.0,255.0,255.0
552,27.6,-0.5121280820695218,1.024279656587553,-15.223362856073466,0.06756043690348146,-0.1361478053674792,-0.6328203173727902,-0.0021176542734022688,0.0021791617085568328,0.01630882894246995,0,70,255.0,255.0,255.0
553,27.650000000000002,-0.508752046546094,1.01747565688792,-15.254983395929862,0.06749419895553437,-0.13599885028572342,-0.6319994773617102,-0.0005318636444816551,0.0037790415616738363,0.016524771500724008,0,70,255.0,255.0,255.0
554,27.700000000000003,-0.5053773406817774,1.010681104792191,-15.286562623857506,0.06750725053903328,-0.13576990121131183,-0.6311678402227178,0.0010539269844389593,0.005378921414790841,0.01674071405897807,0,70,255.0,255.0,255.0
555,27.75,-0.502,1.0039,-15.3181,0.06759959165397826,-0.13546095814424433,-0.6303254059558125,0.0026397176133600153,0.006978801267908397,0.016956656617232113,0,70,255.0,255.0,255.0
556,27.8,-0.49861737988299565,0.9971352528103441,-15.349594662829261,0.06769203077196848,-0.13513738512255824,-0.6294528742595119,0.0010578471062488324,0.0059641195995349195,0.017944611234792532,0,70,255.0,255.0,255.0
557,27.85,-0.4952321151482257,0.9903854159196869,-15.381044464130438,0.06770537636460315,-0.13486454618429083,-0.6285309448323333,-0.0005240234008623505,0.004949437931161442,0.01893256585235295,0,70,255.0,255.0,255.0
558,27.900000000000002,-0.49184816047195784,0.9836479526238578,-15.41244693401698,0.06763962843188225,-0.1346424413294421,-0.6275596176742766,-0.0021058939079735333,0.003934756262787965,0.01992052046991337,0,70,255.0,255.0,255.0
559,27.950000000000003,-0.4884694705304599,0.9769203262186856,-15.44379960260235,0.06749478697380579,-0.13447107055801202,-0.6265388927853419,-0.0036877644150847162,0.002920074594414488,0.020908475087473788,0,70,255.0,255.0,255.0
560,28.0,-0.4851,0.9702,-15.4751,0.06727085199037379,-0.13435043387000067,-0.6254687701655294,-0.005269634922195787,0.0019053929260408609,0.021896429705031473,0,70,255.0,255.0,255.0
561,28.05,-0.48174266873938415,0.9634850845671659,-15.506346204538241,0.06702991252925207,-0.13424169305318914,-0.6243821427059904,-0.0043679435226726335,0.0024442397464200815,0.021568668676528974,0,70,255.0,255.0,255.0
562,28.1,-0.47839625733757507,0.9567762797336977,-15.53753848740479,0.06683405763810651,-0.13410600989535865,-0.6233119032978764,-0.003466252123149479,0.002983086566799302,0.021240907648026476,0,70,255.0,255.0,255.0
563,28.150000000000002,-0.47505851156607387,0.9500749326166469,-15.568677668002218,0.06668328731693712,-0.1339433843965092,-0.6222580519411877,-0.002564560723626325,0.0035219333871785224,0.020913146619523978,0,70,255.0,255.0,255.0
