idx,t,px,py,pz,vx,vy,vz,ax,ay,az,yaw,mode,ledr,ledg,ledb
0,0.0,0.0,3.0,0.0,4.746030648101249e-13,-2.792641867181675e-13,0.0427680836699208,-5.695236777721498e-12,3.3511702406180103e-12,-1.1852170040390495,0,70,255.0,255.0,255.0
1,0.05,1.7085710333164494e-14,2.99999999999999,0.0006652510121171486,2.1831740981265742e-13,-1.2846152589035702e-13,-0.015990681511836437,-4.556189422177198e-12,2.680936192494408e-12,-1.1651336032312396,0,70,255.0,255.0,255.0
2,0.1,2.2780947110885992e-14,2.9999999999999867,-0.0015823319838438024,1.8984122592404968e-14,-1.1170567468726657e-14,-0.07374527665320318,-3.4171420666328986e-12,2.010702144370806e-12,-1.14505020242343,0,70,255.0,255.0,255.0
3,0.15000000000000002,1.9933328722025243e-14,2.9999999999999885,-0.006692540485863329,-1.2339679685063248e-13,7.260868854672359e-14,-0.13049570175417946,-2.2780947110885988e-12,1.3404680962472039e-12,-1.12496680161562,0,70,255.0,255.0,255.0
4,0.2,1.1390473555442996e-14,2.9999999999999933,-0.014615165991921905,-2.0882534851645498e-13,1.2287624215599376e-13,-0.18624195681476519,-1.139047355544299e-12,6.702340481236017e-13,-1.1048834008078103,0,70,255.0,255.0,255.0
5,0.25,0.0,3.0,-0.0253,-2.3730153240506244e-13,1.3963209335908376e-13,-0.24098404183496042,0.0,0.0,-1.0848000000000004,0,70,255.0,255.0,255.0
6,0.30000000000000004,-1.1390473555443005e-14,3.0000000000000067,-0.038696834008078114,-2.088253485164549e-13,1.2287624215599368e-13,-0.2947219568147652,1.1390473555443006e-12,-6.702340481236027e-13,-1.0647165991921903,0,70,255.0,255.0,255.0
7,0.35000000000000003,-1.993332872202525e-14,3.0000000000000115,-0.054755459514136684,-1.233967968506324e-13,7.26086885467235e-14,-0.34745570175417945,2.2780947110886e-12,-1.3404680962472045e-12,-1.04463319838438,0,70,255.0,255.0,255.0
8,0.4,-2.2780947110885992e-14,3.0000000000000133,-0.0734256680161562,1.8984122592405044e-14,-1.1170567468726758e-14,-0.3991852766532032,3.4171420666328994e-12,-2.0107021443708065e-12,-1.0245497975765698,0,70,255.0,255.0,255.0
9,0.45,-1.7085710333164488e-14,3.00000000000001,-0.09465725101211715,2.183174098126575e-13,-1.2846152589035712e-13,-0.44991068151183644,4.556189422177199e-12,-2.6809361924944086e-12,-1.0044663967687595,0,70,255.0,255.0,255.0
10,0.5,0.0,3.0,-0.1184,4.746030648101249e-13,-2.792641867181675e-13,-0.4996319163300792,5.695236777721497e-12,-3.3511702406180108e-12,-0.9843829959609502,0,70,255.0,255.0,255.0
11,0.55,2.8476183888607515e-14,2.9999999999999836,-0.14460191497980476,6.169839842531623e-13,-3.630434427336178e-13,-0.5482414912291029,-5.6545549686242126e-27,3.2311742677852644e-27,-0.9599999999999996,0,70,255.0,255.0,255.0
12,0.6000000000000001,5.695236777721502e-14,2.9999999999999662,-0.17320382995960956,4.746030648101243e-13,-2.7926418671816726e-13,-0.5956319163300792,-5.695236777721509e-12,3.3511702406180172e-12,-0.9356170040390489,0,70,255.0,255.0,255.0
13,0.65,7.119045972151872e-14,2.9999999999999583,-0.2041447874495119,4.7460306481012256e-14,-2.7926418671816504e-14,-0.6418031916330079,-1.1390473555443e-11,6.702340481236022e-12,-0.9112340080780983,0,70,255.0,255.0,255.0
14,0.7000000000000001,5.69523677772149e-14,2.9999999999999662,-0.23736382995960956,-6.64444290734176e-13,3.909698614054355e-13,-0.6867553171378891,-1.7085710333164503e-11,1.0053510721854037e-11,-0.8868510121171477,0,70,255.0,255.0,255.0
15,0.75,0.0,3.0,-0.2728,-1.661110726835437e-12,9.774246535135863e-13,-0.7304882928447225,-2.278094711088599e-11,1.3404680962472043e-11,-0.862468016156198,0,70,255.0,255.0,255.0
16,0.8,-1.0251426199898708e-13,3.0000000000000604,-0.3103923060727029,-2.259110588496194e-12,1.3292975287784774e-12,-0.7730000782688228,-1.139047355544278e-12,6.702340481235896e-13,-0.838003400807812,0,70,255.0,255.0,255.0
17,0.8500000000000001,-2.078761423868348e-13,3.000000000000122,-0.35007962064742537,-1.775015462389865e-12,1.0444480583259456e-12,-0.8142886329255038,2.0502852399797433e-11,-1.2064212866224864e-11,-0.8135387854594259,0,70,255.0,255.0,255.0
18,0.9,-2.6198089177518896e-13,3.000000000000154,-0.3918007821857962,-2.0882534851645376e-13,1.228762421559927e-13,-0.8543539568147653,4.214475215513909e-11,-2.4798659780573285e-11,-0.78907417011104,0,70,255.0,255.0,255.0
19,0.9500000000000001,-2.1072376077569525e-13,3.000000000000124,-0.4354946291494449,2.4394597531240463e-12,-1.4354179197313845e-12,-0.8931960499366077,6.378665191048081e-11,-3.7533106694921737e-11,-0.764609554762654,0,70,255.0,255.0,255.0
20,1.0,0.0,3.0,-0.4811,6.169839842531623e-12,-3.630434427336178e-12,-0.9308149122910307,8.542855166582248e-11,-5.026755360927016e-11,-0.7401449394142716,0,70,255.0,255.0,255.0
21,1.05,3.8158086410734074e-13,2.9999999999997757,-0.5285560607293839,8.419458369731616e-12,-4.954146672380292e-12,-0.9672301956956066,4.556189422177125e-12,-2.6809361924943714e-12,-0.7164663967687609,0,70,255.0,255.0,255.0
22,1.1,7.745522017701244e-13,2.999999999999544,-0.5778032874506895,6.6254587847493385e-12,-3.898528046585614e-12,-1.0024615519679068,-7.631617282146823e-11,4.490568122428142e-11,-0.6927878541232502,0,70,255.0,255.0,255.0
23,1.1500000000000001,9.76733107379237e-13,2.9999999999994253,-0.6287824838073034,7.878410875847838e-13,-4.63578549952145e-13,-1.0365089811079315,-1.5718853506511358e-10,9.249229864105722e-11,-0.6691093114777394,0,70,255.0,255.0,255.0
24,1.2000000000000002,7.859426753255652e-13,2.9999999999995373,-0.6814344534426116,-9.093394721762032e-12,5.350701817520116e-12,-1.069372483115681,-2.3806089730875896e-10,1.40078916057833e-10,-0.6454307688322287,0,70,255.0,255.0,255.0
25,1.25,0.0,3.0,-0.7357,-2.3018248643291055e-11,1.3544313055831125e-11,-1.1010520579911547,-3.189332595524039e-10,1.8766553347460859e-10,-0.6217522261867288,0,70,255.0,255.0,255.0
26,1.3,-1.423809194430376e-12,3.0000000000008376,-0.7915194510097622,-3.141872289043026e-11,1.848728916074269e-11,-1.1315191389487518,-1.7085710333164215e-11,1.0053510721853874e-11,-0.5969310121171467,0,70,255.0,255.0,255.0
27,1.35,-2.890332664693662e-12,3.000000000001701,-0.8488312295498173,-2.4726819676607485e-11,1.4549664128016511e-11,-1.1607451592028695,2.8476183888607545e-10,-1.6755851203090084e-10,-0.5721097980475647,0,70,255.0,255.0,255.0
28,1.4000000000000001,-3.644951537741759e-12,3.000000000002145,-0.9075732825849913,-2.942539001822696e-12,1.7314379576525917e-12,-1.1887301187535082,5.866093881053151e-10,-3.4517053478365547e-10,-0.5472885839779827,0,70,255.0,255.0,255.0
29,1.4500000000000002,-2.9330469405265648e-12,3.000000000001726,-0.9676835570801101,3.393411913392407e-11,-1.9967389350349067e-11,-1.2154740176006678,8.884569373245548e-10,-5.227825575364102e-10,-0.5224673699084007,0,70,255.0,255.0,255.0
30,1.5,0.0,3.0,-1.0291,8.59031547306326e-11,-5.0546817795988324e-11,-1.2409768557443481,1.1903044865437936e-09,-7.003945802891644e-10,-0.4976461558388223,0,70,255.0,255.0,255.0
31,1.55,5.313655913614164e-12,2.9999999999968736,-1.0917613352315676,1.1725543319198946e-10,-6.899500997059048e-11,-1.265285248509385,6.378665191047993e-11,-3.753310669492125e-11,-0.4746895547626579,0,70,255.0,255.0,255.0
32,1.6,1.0786778457004529e-11,2.9999999999936526,-1.1556093943500416,9.228181992168061e-11,-5.430012846548045e-11,-1.2884458112206139,-1.0627311827228337e-09,6.253283668993219e-10,-0.45173295368649347,0,70,255.0,255.0,255.0
33,1.6500000000000001,1.3603073043587806e-11,2.9999999999919957,-1.2205867858527322,1.0982314919706013e-11,-6.4621732806582236e-12,-1.3104585438780345,-2.1892490173561474e-09,1.2881898404935652e-09,-0.428776352610329,0,70,255.0,255.0,255.0
34,1.7000000000000002,1.0946245086780703e-11,2.9999999999935594,-1.2866361182369486,-1.2664308181393435e-10,7.45188555838762e-11,-1.3313234464816468,-3.315766851989461e-09,1.9510513140878083e-09,-0.40581975153416455,0,70,255.0,255.0,255.0
35,1.75,0.0,3.0,-1.3537,-3.205943702792394e-10,1.8864295812812218e-10,-1.3510405190314512,-4.442284686622768e-09,2.6139127876820488e-09,-0.38286315045800556,0,70,255.0,255.0,255.0
36,1.8,-1.9830814460026277e-11,3.000000000011669,-1.4217200080639676,-4.376030098775275e-10,2.574927507216193e-10,-1.3695478670137071,-2.380608973087544e-10,1.4007891605783126e-10,-0.3574307688322374,0,70,255.0,255.0,255.0
37,1.85,-4.025678116332444e-11,3.0000000000236877,-1.4906335930500159,-3.4440046001011487e-10,2.0265084973390528e-10,-1.386783595914675,3.966162892005259e-09,-2.3337549555663863e-09,-0.33199838720646924,0,70,255.0,255.0,255.0
38,1.9000000000000001,-5.076734063660944e-11,3.0000000000298725,-1.5603771740040804,-4.098672067700116e-11,2.4117255164980335e-11,-1.402747705734354,8.170386681319273e-09,-4.807588827190604e-09,-0.30656600558070113,0,70,255.0,255.0,255.0
39,1.9500000000000002,-4.085193340659623e-11,3.0000000000240377,-1.6308871699720966,4.726382081218132e-10,-2.7810803298515555e-10,-1.417440196472745,1.2374610470633287e-08,-7.281422698814821e-09,-0.28113362395493297,0,70,255.0,255.0,255.0
40,2.0,0.0,3.0,-1.7021,1.1964743263863248e-09,-7.040250147165004e-10,-1.4308610681298473,1.6578834259947284e-08,-9.755256570439033e-09,-0.25570124232916314,0,70,255.0,255.0,255.0
41,2.0500000000000003,7.40096019264913e-11,2.9999999999564513,-1.773953032512562,1.6331566063181208e-09,-9.609759929158868e-10,-1.4430672834357865,8.884569373244699e-10,-5.227825575363616e-10,-0.23254736990840344,0,70,255.0,255.0,255.0
42,2.1,1.5024034619629324e-10,2.9999999999115965,-1.8463874334498949,1.2853200201187787e-09,-7.563032704701408e-10,-1.4541158051206875,-1.4801920385298205e-08,8.709691455366227e-09,-0.20939349748764396,0,70,255.0,255.0,255.0
43,2.15,1.8946628950284993e-10,2.999999999888515,-1.9193453181309466,1.5296456778830572e-10,-9.000684737926684e-11,-1.464006633184551,-3.049229770792087e-08,1.7942165468268813e-08,-0.18623962506688446,0,70,255.0,255.0,255.0
44,2.2,1.5246148853960418e-10,2.999999999910289,-1.992768801874666,-1.7639097506733179e-09,1.0379132763567462e-09,-1.4727397676273761,-4.6182675030543693e-08,2.7174639481171486e-08,-0.1630857526461248,0,70,255.0,255.0,255.0
45,2.25,0.0,3.0,-2.0666,-4.46530293526606e-09,2.6274571007378797e-09,-1.480315208449163,-6.187305235316635e-08,3.640711349407408e-08,-0.13993188022537417,0,70,255.0,255.0,255.0
46,2.3000000000000003,-2.7620759324593886e-10,3.000000000162525,-2.1407806618857856,-6.095023415394956e-09,3.586411220941928e-09,-1.4867109992431515,-3.315766851989135e-09,1.951051314087634e-09,-0.11589975153416199,0,70,255.0,255.0,255.0
47,2.35,-5.607046036218485e-10,3.000000000329928,-2.2152510731504065,-4.7968796204650005e-09,2.8225622321466582e-09,-1.4919051836025794,5.5241518649187555e-08,-3.250501086589851e-08,-0.09186762284295003,0,70,255.0,255.0,255.0
48,2.4000000000000004,-7.070978173747906e-10,3.0000000004160676,-2.2899511534721344,-5.708715504761684e-10,3.3591013435205807e-10,-1.4958977615274465,1.1379880415036479e-07,-6.696107304588497e-08,-0.06783549415173784,0,70,255.0,255.0,255.0
49,2.45,-5.689940207518204e-10,3.0000000003348055,-2.3648208225292415,6.583000794571462e-09,-3.873545072441829e-09,-1.4986887330177532,1.7235608965154147e-07,-1.014171352258711e-07,-0.04380336546052588,0,70,255.0,255.0,255.0
50,2.5,0.0,3.0,-2.4398,1.6664737414677916e-08,-9.805803388235019e-09,-1.5002780980734993,2.3091337515271817e-07,-1.3587319740585728e-07,-0.019771236769315692,0,70,255.0,255.0,255.0
51,2.5500000000000003,1.030820771057264e-09,2.9999999993934483,-2.514828319944298,2.2746937055261708e-08,-1.3384668890851823e-08,-1.5006487195916054,1.237461047063209e-08,-7.281422698814139e-09,0.0049463760450693325,0,70,255.0,255.0,255.0
52,2.6,2.0925780682911012e-09,2.999999998768693,-2.589844273948482,1.7902198461741218e-08,-1.0533945658116492e-08,-1.4997834604689924,-2.0616415421145208e-07,1.213103520082279e-07,0.029663988859454135,0,70,255.0,255.0,255.0
53,2.6500000000000004,2.6389249799963125e-09,2.9999999984472137,-2.664786067980519,2.130521634116377e-09,-1.2536336900289663e-09,-1.4976823207056602,-4.2470291889353816e-07,2.49902126715271e-07,0.05438160167383917,0,70,255.0,255.0,255.0
54,2.7,2.1235145944676784e-09,2.9999999987504893,-2.7395919080083693,-2.456809342761253e-08,1.445626701341058e-08,-1.4943453003016085,-6.432416835756224e-07,3.7849390142231306e-07,0.07909921448822396,0,70,255.0,255.0,255.0
55,2.75,0.0,3.0,-2.8142,-6.21936467234456e-08,3.65957564522022e-08,-1.4897723992568375,-8.617804482577065e-07,5.07085676129355e-07,0.10381682730261055,0,70,255.0,255.0,255.0
56,2.8000000000000003,-3.847075490983119e-09,3.000000002263682,-2.888549258337026,-8.489272480565188e-08,4.995226434246536e-08,-1.4840061223904255,-4.618267503053937e-08,2.7174639481168862e-08,0.12683424735386642,0,70,255.0,255.0,255.0
57,2.85,-7.809607669542556e-09,3.0000000045953006,-2.9625814310556664,-6.681191422649989e-08,3.9313220400319305e-08,-1.4770889745214508,7.694150981966205e-07,-4.52736397167013e-07,0.1498516674051221,0,70,255.0,255.0,255.0
58,2.9000000000000004,-9.848602102610461e-09,3.0000000057950786,-3.036238974605795,-7.951214985989389e-09,4.678624625763812e-09,-1.4690209556499132,1.5850128714237874e-06,-9.326474338151991e-07,0.17286908745637797,0,70,255.0,255.0,255.0
59,2.95,-7.925064357118895e-09,3.0000000046632374,-3.1094643454372823,9.168937291587867e-08,-5.395152298120047e-08,-1.459802065775813,2.4006106446509474e-06,-1.412558470463381e-06,0.19588650750763364,0,70,255.0,255.0,255.0
60,3.0,0.0,3.0,-3.1822,2.321098494791045e-07,-1.3657722242057378e-07,-1.44943230489915,3.2162084178781074e-06,-1.8924695071115633e-06,0.21890392755888932,0,70,255.0,255.0,255.0
61,3.0500000000000003,1.4357481192875207e-08,2.999999991551824,-3.2543874467076006,3.168239621673458e-07,-1.8642438847900966e-07,-1.4378547908466908,1.7235608965152513e-07,-1.0141713522586176e-07,0.24419663453947443,0,70,255.0,255.0,255.0
62,3.1,2.9145852609879125e-08,2.999999982850105,-3.3259644018288523,2.4934545844425833e-07,-1.4671893594316077e-07,-1.4250126414452027,-2.87149623857503e-06,1.689635236659824e-06,0.2694893415200593,0,70,255.0,255.0,255.0
63,3.1500000000000004,3.6755483430445526e-08,2.9999999783724736,-3.3968676335963037,2.9674338309841145e-08,-1.746086481302633e-08,-1.4109058566946848,-5.915348566801613e-06,3.480687608545525e-06,0.2947820485006444,0,70,255.0,255.0,255.0
64,3.2,2.9576742834007888e-08,2.9999999825965618,-3.4670339102425034,-3.42189398235902e-07,2.0134982491139124e-07,-1.3955344365951379,-8.959200895028167e-06,5.271739980431211e-06,0.32007475548122927,0,70,255.0,255.0,255.0
65,3.25,0.0,3.0,-3.5364,-8.662457511929724e-07,5.09713133230093e-07,-1.3788983811465623,-1.2003053223254724e-05,7.062792352316898e-06,0.3453674624618124,0,70,255.0,255.0,255.0
66,3.3000000000000003,-5.358284928051772e-08,3.0000000315290225,-3.6049033548325733,-1.1824031238637312e-06,6.957452895735734e-07,-1.3610387142228113,-6.432416835755612e-07,3.784939014222769e-07,0.36901921448822406,0,70,255.0,255.0,255.0
67,3.35,-1.0877380276997393e-07,3.0000000640042805,-3.672484161628926,-9.305699195505336e-07,5.475625233723238e-07,-1.3419964596977398,1.07165698561035e-05,-6.3058045494722845e-06,0.3926709665146355,0,70,255.0,255.0,255.0
68,3.4000000000000004,-1.3717333161917165e-07,3.000000080715026,-3.7390832910089924,-1.10746138253375e-07,6.516483462634121e-08,-1.3217716175713476,2.2076381395782662e-05,-1.2990103000366905e-05,0.4163227185410472,0,70,255.0,255.0,255.0
69,3.45,-1.1038190697891263e-07,3.000000064950515,-3.8046416135927053,1.2770682200277288e-06,-7.51447776664365e-07,-1.300364187843635,3.3436192935461725e-05,-1.9674401451261467e-05,0.43997447056745864,0,70,255.0,255.0,255.0
70,3.5,0.0,3.0,-3.8691,3.232873155292785e-06,-1.9022753104997981e-06,-1.2777741705146017,4.4796004475140794e-05,-2.635869990215603e-05,0.4636262225938754,0,70,255.0,255.0,255.0
71,3.5500000000000003,1.9997391592919564e-07,2.9999998823320855,-3.9323991339621074,4.412788533287579e-06,-2.596556769815284e-06,-1.2539903522620637,2.4006106446507276e-06,-1.41255847046325e-06,0.4877265075076456,0,70,255.0,255.0,255.0
72,3.6,4.059493584700167e-07,2.999999761132774,-3.9944789516554455,3.4729342197578776e-06,-2.043531157546134e-06,-1.229001519763837,-3.999478318583897e-05,2.3533582961229314e-05,0.5118267924214156,0,70,255.0,255.0,255.0
73,3.6500000000000004,5.11937843046241e-07,2.9999996987674207,-4.055279202367729,4.133102147036607e-07,-2.4319847369233966e-07,-1.202807673019922,-8.239017701632903e-05,4.847972439292209e-05,0.5359270773351857,0,70,255.0,255.0,255.0
74,3.7,4.1195088508164303e-07,2.999999757601378,-4.114739635386676,-4.766083481875014e-06,2.8044412817460674e-06,-1.1754088120303186,-0.00012478557084681874,7.342586582461466e-05,0.5600273622489558,0,70,255.0,255.0,255.0
75,3.75,0.0,3.0,-4.1728,-1.2065246869978169e-05,7.0993881087691e-06,-1.1468049367950268,-0.00016718096467730842,9.837200725630721e-05,0.5841276471627239,0,70,255.0,255.0,255.0
76,3.8000000000000003,-7.463128144362648e-07,3.0000004391426365,-4.229400909318998,-1.6468751009286585e-05,9.690481789687563e-06,-1.1170478767289285,-8.959200895027291e-06,5.271739980430715e-06,0.6061547554812081,0,70,255.0,255.0,255.0
77,3.85,-1.5150236311100924e-06,3.000000891464623,-4.2844864317492934,-1.296116695948097e-05,7.626562106812215e-06,-1.086189461246906,0.00014926256288725243,-8.782852729544494e-05,0.6281818637996921,0,70,255.0,255.0,255.0
78,3.9000000000000004,-1.910578040565793e-06,3.000001124215291,-4.33800149952009,-1.542494720561263e-06,9.076290601430194e-07,-1.0542296903489592,0.0003074843266695335,-0.00018092879457132146,0.6502089721181763,0,70,255.0,255.0,255.0
79,3.95,-1.5374216333476586e-06,3.0000009046439726,-4.389891044860592,1.778726570747234e-05,-1.0466317350319903e-05,-1.0211685640350883,0.0004657060904518133,-0.0002740290618471971,0.6722360804366603,0,70,255.0,255.0,255.0
80,4.0,0.0,3.0,-4.4401,4.502811432461989e-05,-2.64952771245766e-05,-0.9870060823052931,0.000623927854234093,-0.0003671293291230728,0.6942631887551478,0,70,255.0,255.0,255.0
81,4.05,2.785277341815837e-06,2.9999983610973686,-4.488567628761898,6.146221550385874e-05,-3.616537038893495e-05,-0.9514021408222276,3.343619293546391e-05,-1.967440145126271e-05,0.7298944705674772,0,70,255.0,255.0,255.0
82,4.1000000000000005,5.654145165970375e-06,2.999996673008734,-4.535210521347381,4.8371733618165777e-05,-2.8462717269702576e-05,-0.914016635248545,-0.0005570554683631758,0.0003277805262205536,0.7655257523798075,0,70,255.0,255.0,255.0
83,4.15,7.13037431921693e-06,2.999995804371415,-4.579939599551911,5.756668667541412e-06,-3.3873177668797174e-06,-0.8748495655842464,-0.001147547129661805,0.0006752354538923637,0.8011570341921369,0,70,255.0,255.0,255.0
84,4.2,5.737735648308992e-06,2.9999966238227307,-4.622665785170961,-6.638297934801431e-05,3.906082811953358e-05,-0.8339009318293314,-0.0017380387909604342,0.0010226903815641738,0.8367883160044665,0,70,255.0,255.0,255.0
85,4.25,0.0,3.0,-4.6633,-0.0001680472104285014,9.88817203895373e-05,-0.7911707339838001,-0.002328530452259063,0.0013701453092359846,0.8724195978167977,0,70,255.0,255.0,255.0
86,4.3,-1.039479655282709e-05,3.000005316467888,-4.701769375633405,-0.0002293801110061484,8.697099976595132e-05,-0.7476315599821565,-0.0001247855708468265,-0.0018465741341794255,0.8691473622489582,0,70,255.0,255.0,255.0
87,4.3500000000000005,-2.11015570327714e-05,3.00000601650044,-4.738065882861189,-0.00018052576751318214,-8.577569302840906e-05,-0.7042559977589038,0.0020789593105654492,-0.005063293577594893,0.8658751266811187,0,70,255.0,255.0,255.0
88,4.4,-2.661091923630193e-05,2.999994058299049,-4.772197702272269,-2.148417994960437e-05,-0.00041935835799353786,-0.6610440473140441,0.0042827041919776855,-0.008280013021010304,0.8626028911132791,0,70,255.0,255.0,255.0
89,4.45,-2.1413520959888313e-05,2.999961400065105,-4.804173014455566,0.0002477446516845848,-0.0009137769951294365,-0.6179957086475762,0.006486449073389922,-0.011496732464425712,0.8593306555454397,0,70,255.0,255.0,255.0
90,4.5,0.0,2.9999,-4.834,0.0006271607273893857,-0.001569031604436105,-0.5751109817595003,0.008690193954802156,-0.014713451907841124,0.8560584199776011,0,70,255.0,255.0,255.0
91,4.55,4.199390886949248e-05,2.999802773031079,-4.861703668704477,0.0010480582285207335,-0.002327718628678055,-0.5333996192491443,0.008145706090451814,-0.015634029061836977,0.8123960804366426,0,70,255.0,255.0,255.0
92,4.6000000000000005,0.00010435208296511563,2.9996664609895034,-4.887376347207865,0.0014417313364345709,-0.003132434510619812,-0.4938713737158356,0.00760121822610146,-0.016554606215832848,0.7687337408956832,0,70,255.0,255.0,255.0
93,4.65,0.00018571330262599138,2.999488762432389,-4.911127191359013,0.001808180051130884,-0.003983179250261347,-0.4565262451595755,0.007056730361751117,-0.0174751833698287,0.7250714013547248,0,70,255.0,255.0,255.0
94,4.7,0.0002847163481912448,2.9992673759168493,-4.933065357006773,0.00214740437260968,-0.004879952847602676,-0.42136423358036346,0.006512242497400773,-0.018395760523824554,0.6814090618137663,0,70,255.0,255.0,255.0
95,4.75,0.0004,2.999,-4.9533,0.0024594043008709593,-0.005822755302643796,-0.3883853389781992,0.005967754633050437,-0.019316337677820386,0.6377467222728082,0,70,255.0,255.0,255.0
96,4.800000000000001,0.0005312191610748586,2.9986835914077954,-4.97193674954868,0.002805147196923215,-0.006856096485050366,-0.3573779630212669,0.007861961209039597,-0.022017309618441845,0.602548316004467,0,70,255.0,255.0,255.0
97,4.8500000000000005,0.0006820932251723137,2.9983121395415444,-4.98906712830735,0.003245600421774922,-0.00802448626448799,-0.3281305073777521,0.009756167785028722,-0.02471828155906326,0.5673499097361264,0,70,255.0,255.0,255.0
98,4.9,0.0008573577087323404,2.9978788919713963,-5.004779132291679,0.0037807639754260836,-0.009327924640956683,-0.30064297204765444,0.011650374361017849,-0.02741925349968467,0.5321515034677858,0,70,255.0,255.0,255.0
99,4.95,0.0010617481281949117,2.997377096267498,-5.019160757517339,0.004410637857876702,-0.010766411614456448,-0.2749153570309738,0.013544580937006973,-0.030120225440306084,0.49695309719944536,0,70,255.0,255.0,255.0
100,5.0,0.0013,2.9968,-5.0323,0.005135222069126776,-0.012339947184987283,-0.25094766232771004,0.015438787512996079,-0.032821197380927564,0.4617546909311061,0,70,255.0,255.0,255.0
101,5.050000000000001,0.0015763294468310856,2.9961412613377396,-5.0442853331008,0.0059233529837864375,-0.01402389543112129,-0.2287685286657955,0.01608644907338991,-0.03453673246443174,0.4254106555454625,0,70,255.0,255.0,255.0
102,5.1000000000000005,0.001892875016345641,2.995396180844318,-5.055207139562735,0.006743866976465776,-0.015793620431430472,-0.20840659677316353,0.016734110633783737,-0.03625226754793588,0.3890666201598195,0,70,255.0,255.0,255.0
103,5.15,0.002251255862444656,2.994560469682027,-5.065156279474271,0.007596764047164806,-0.017649122185914867,-0.1898618666498137,0.01738177219417756,-0.03796780263144002,0.3527225847741765,0,70,255.0,255.0,255.0
104,5.2,0.002653091139029114,2.993629839013157,-5.074223612923871,0.008482044195883526,-0.01959040069457446,-0.173134338295746,0.018029433754571382,-0.039683337714944165,0.3163785493885336,0,70,255.0,255.0,255.0
105,5.25,0.0031,2.9926,-5.0825,0.009399707422621936,-0.021617455957409267,-0.15822401171096045,0.018677095314965142,-0.041398872798448255,0.2800345140028906,0,70,255.0,255.0,255.0
106,5.300000000000001,0.003593863051600825,2.991466563241246,-5.090076318048123,0.010365440867931097,-0.02373632179046594,-0.14513192231554392,0.019952242497400793,-0.043355760523817524,0.24364906181376256,0,70,255.0,255.0,255.0
107,5.3500000000000005,0.004137606709445144,2.9902247370811823,-5.097043513441712,0.011394931672362024,-0.02595303200979104,-0.13385910552958405,0.02122738967983642,-0.04531264824918675,0.2072636096246352,0,70,255.0,255.0,255.0
108,5.4,0.004734418841489054,2.9888696293004955,-5.103492549811239,0.012488179835914734,-0.028267586615384598,-0.12440556135308048,0.022502536862272045,-0.047269535974555986,0.17087815743550783,0,70,255.0,255.0,255.0
109,5.45,0.0053874873156886435,2.9873963476798724,-5.109514390787178,0.013645185358589221,-0.03067998560724662,-0.11677128978603331,0.023777684044707675,-0.04922642369992522,0.13449270524638046,0,70,255.0,255.0,255.0
110,5.5,0.0061,2.9858,-5.1152,0.014865948240385491,-0.0331902289853771,-0.11095629082844252,0.025052831227143288,-0.05118331142529431,0.09810725305725243,0,70,255.0,255.0,255.0
111,5.550000000000001,0.006874618346765659,2.9840756856972765,-5.120640594706708,0.016118883544489267,-0.03579881740701708,-0.10697578207202563,0.02506458093700695,-0.05316022544030357,0.06111309719942112,0,70,255.0,255.0,255.0
112,5.6000000000000005,0.007711898145873821,2.9822184708309525,-5.125928406670417,0.0173724063340862,-0.03850625152940748,-0.10484498110850034,0.025076330646870613,-0.055137139455312796,0.024118941341590455,0,70,255.0,255.0,255.0
113,5.65,0.00861186877159916,2.98022341311599,-5.131155921280772,0.018626516609176316,-0.041312531352548344,-0.1045638879378666,0.025088080356734273,-0.05711405347032203,-0.0128752145162402,0,70,255.0,255.0,255.0
114,5.7,0.009574559598216332,2.9780855702673517,-5.136415623927419,0.01988121436975962,-0.04421765687643967,-0.10613250256012437,0.025099830066597936,-0.059090967485331256,-0.049869370374070854,0,70,255.0,255.0,255.0
115,5.75,0.0106,2.9758,-5.1418,0.0211364996158361,-0.04722162810108145,-0.10955082497527366,0.025111579776461834,-0.06106788150034037,-0.08686352623190152,0,70,255.0,255.0,255.0
116,5.800000000000001,0.011689263561336611,2.9733618939696473,-5.147400503125046,0.022455024954111953,-0.050316408581463544,-0.11475694939635758,0.027629433754571466,-0.06272333771494161,-0.12138145061145256,0,70,255.0,255.0,255.0
117,5.8500000000000005,0.012847600707059632,2.970766979595008,-5.153304459876619,0.02389944299129326,-0.05349396187257564,-0.12168897003641896,0.030147287732681053,-0.06437879392954282,-0.15589937499100298,0,70,255.0,255.0,255.0
118,5.9,0.014081306072114351,2.9680111182355446,-5.15959816506567,0.025469753727380046,-0.056754287974417804,-0.13034688689545784,0.03266514171079064,-0.06603425014414402,-0.1904172993705534,0,70,255.0,255.0,255.0
119,5.95,0.01539667429144605,2.965090171250721,-5.166367913503147,0.027165957162372315,-0.060097386886990026,-0.14073069997347423,0.03518299568890023,-0.06768970635874523,-0.22493522375010383,0,70,255.0,255.0,255.0
120,6.0,0.0168,2.962,-5.1737,0.02898805329627006,-0.0635232586102923,-0.15284040927046813,0.037700849667009956,-0.06934516257334622,-0.25945314812965425,0,70,255.0,255.0,255.0
121,6.050000000000001,0.018296327407887992,2.958735938424133,-5.181683792793113,0.03086101663906303,-0.06706354826712449,-0.16686042034254997,0.03721768404470771,-0.07226642369993963,-0.3013472947536108,0,70,255.0,255.0,255.0
122,6.1000000000000005,0.019885699025887733,2.9552912107890155,-5.190420953823109,0.03270982170074085,-0.0707499009802863,-0.18297513874582932,0.03673451842240547,-0.07518768482653299,-0.3432414413775665,0,70,255.0,255.0,255.0
123,6.15,0.021566906939943484,2.951658513941832,-5.200016218456549,0.034534468481303565,-0.07458231674977776,-0.2011845644803065,0.036251352800103234,-0.07810894595312634,-0.3851355880015223,0,70,255.0,255.0,255.0
124,6.2,0.023338743235999493,2.9478305447297655,-5.210574322059992,0.03633495698075116,-0.0785607955755989,-0.22148869754598144,0.035768187177800996,-0.0810302070797197,-0.4270297346254781,0,70,255.0,255.0,255.0
125,6.25,0.0252,2.9438,-5.2222,0.038111287199083646,-0.08268533745774971,-0.24388753794285414,0.03528502155549862,-0.08395146820631283,-0.46892388124943163,0,70,255.0,255.0,255.0
126,6.300000000000001,0.027150226807111544,2.9395607523338216,-5.234986725702507,0.03990890848963609,-0.0868853983500407,-0.26770536923344235,0.03661983006659799,-0.08405096748532415,-0.48378937037408193,0,70,255.0,255.0,255.0
127,6.3500000000000005,0.029192003189389547,2.9351113772489303,-5.2489829248309485,0.041773270205743465,-0.09109043420628217,-0.2922664749802626,0.03795463857769733,-0.08415046676433546,-0.498654859498732,0,70,255.0,255.0,255.0
128,6.4,0.031328666168111786,2.9304516259971276,-5.264225761108137,0.04370437234740581,-0.09530044502647421,-0.31757085518331535,0.039289447088796677,-0.08424996604334678,-0.513520348623382,0,70,255.0,255.0,255.0
129,6.45,0.033563552764556026,2.9255812498302163,-5.280752398256883,0.04570221491462312,-0.09951543081061683,-0.3436185098426006,0.04062425559989603,-0.0843494653223581,-0.5283858377480322,0,70,255.0,255.0,255.0
130,6.5,0.0359,2.9205,-5.2986,0.04776679790739539,-0.10373539155870999,-0.37040943895811834,0.04195906411099509,-0.08444896460136941,-0.5432513268726811,0,70,255.0,255.0,255.0
131,6.550000000000001,0.03833956536366601,2.9152098522405803,-5.317767704396863,0.0497913494023928,-0.10782685833271287,-0.3956621027236883,0.03902299568890014,-0.07920970635874384,-0.4668552237501017,0,70,255.0,255.0,255.0
132,6.6000000000000005,0.04087668821655423,2.9097216802152643,-5.338102546853101,0.051669097476285425,-0.11165636219458443,-0.41709496133312884,0.03608692726680525,-0.07397044811611836,-0.39045912062752364,0,70,255.0,255.0,255.0
133,6.65,0.04350402838760946,2.9040485820696578,-5.359413537110906,0.05340004212907331,-0.1152239031443247,-0.4347080147864405,0.03315085884471035,-0.06873118987349287,-0.31406301750494564,0,70,255.0,255.0,255.0
134,6.7,0.04621424570577646,2.898203655949367,-5.381509684912476,0.054984183360756445,-0.11852948118193368,-0.44850126308362326,0.030214790422615455,-0.0634919316308674,-0.23766691438236764,0,70,255.0,255.0,255.0
135,6.75,0.049,2.8922,-5.4042,0.056421521171334844,-0.12157309630741142,-0.4584747062246771,0.02727872200052034,-0.05825267338824247,-0.16127081125978915,0,70,255.0,255.0,255.0
136,6.800000000000001,0.05185471173822464,2.8860486387038558,-5.427332056710045,0.0577576939007929,-0.12447916831911057,-0.46694221987180856,0.0261681871778008,-0.057990207079722286,-0.17742973462546244,0,70,255.0,255.0,255.0
137,6.8500000000000005,0.05477484394439372,2.8797523018900124,-5.450907687756653,0.059038339889114944,-0.12737211701538367,-0.47621767968722345,0.025057652355081284,-0.0577277407712021,-0.19358865799113545,0,70,255.0,255.0,255.0
138,6.9,0.05775762028145051,2.8733116457242414,-5.474967290448239,0.06026345913630101,-0.13025194239623078,-0.486301085670922,0.023947117532361763,-0.057465274462681924,-0.20974758135680843,0,70,255.0,255.0,255.0
139,6.95,0.0608002644123382,2.866727326372313,-5.499551262093217,0.061433051642351105,-0.13311864446165186,-0.49719243782290423,0.022836582709642245,-0.05720280815416174,-0.22590650472248147,0,70,255.0,255.0,255.0
140,7.0,0.0639,2.86,-5.5247,0.06254711740726523,-0.13597222321164695,-0.5088917361431701,0.021726047886922784,-0.056940341845640896,-0.24206542808815446,0,70,255.0,255.0,255.0
141,7.050000000000001,0.0670551876834357,2.853129992943995,-5.55044406876296,0.06367387499443572,-0.1388324683908468,-0.520809017789075,0.02334425559989597,-0.057469465322352024,-0.234625837748034,0,70,255.0,255.0,255.0
142,7.1000000000000005,0.07026873600587108,2.846116312224684,-5.576774702120291,0.06488154296725485,-0.14171916974388218,-0.5323543199179737,0.024962463312869127,-0.05799858879906315,-0.22718624740791366,0,70,255.0,255.0,255.0
143,7.15,0.07354469048658864,2.8389576350333763,-5.603673301096142,0.06617012132572263,-0.14463232727075312,-0.5435276425298662,0.026580671025842283,-0.058527712275774274,-0.2197466570677933,0,70,255.0,255.0,255.0
144,7.2,0.0768870966448708,2.8316526385613785,-5.63112126671466,0.06753961006983907,-0.1475719409714596,-0.5543289856247529,0.028198878738815443,-0.059056835752485395,-0.212307066727673,0,70,255.0,255.0,255.0
145,7.25,0.0803,2.8242,-5.6591,0.06899000919960416,-0.15053801084600163,-0.5647583492026336,0.029817086451788155,-0.05958595922919652,-0.20486747638754998,0,70,255.0,255.0,255.0
146,7.300000000000001,0.08378613752803284,2.8165993895201624,-5.687594068238114,0.07044280612146427,-0.1534709581175032,-0.5750057089718823,0.02829479042261538,-0.05773193163086418,-0.20502691438239076,0,70,255.0,255.0,255.0
147,7.3500000000000005,0.08734301203212215,2.808854449211248,-5.716600703762183,0.07181948824186571,-0.1563112040090881,-0.5852610406408728,0.02677249439344263,-0.05587790403253188,-0.20518635237723154,0,70,255.0,255.0,255.0
148,7.4,0.09096681777219508,2.8009698141422525,-5.746120305167197,0.07312005556080853,-0.15905874852075635,-0.5955243442096053,0.025250198364269883,-0.05402387643419958,-0.2053457903720723,0,70,255.0,255.0,255.0
149,7.45,0.09465374900817866,2.792950119382171,-5.77615327104814,0.0743445080782927,-0.161713591652508,-0.6057956196780799,0.023727902335097133,-0.052169848835867276,-0.20550522836691307,0,70,255.0,255.0,255.0
150,7.5,0.0984,2.7848,-5.8067,0.07549284579431821,-0.1642757334043431,-0.6160748670462964,0.022205606305924497,-0.0503158212375352,-0.20566466636175118,0,70,255.0,255.0,255.0
151,7.550000000000001,0.10220266220443326,2.776522848975354,-5.837759658284585,0.07661890051970739,-0.16681969913913566,-0.626288146323402,0.02283658270964225,-0.05144280815416648,-0.20286650472246684,0,70,255.0,255.0,255.0
152,7.6000000000000005,0.10606241586564055,2.7681170909303225,-5.869326482830975,0.07777650406528246,-0.16942001421975977,-0.6363615175185432,0.023467559113359987,-0.052569795070797745,-0.20006834308318255,0,70,255.0,255.0,255.0
153,7.65,0.10998083842463123,2.7595799083976145,-5.9013934782350725,0.07896565643104339,-0.17207667864621543,-0.6462949806317203,0.02409853551707773,-0.053696781987429006,-0.19727018144389824,0,70,255.0,255.0,255.0
154,7.7,0.11395950732241461,2.750908483909937,-5.93395364909278,0.08018635761699021,-0.17478969241850265,-0.6560885356629329,0.02472951192079547,-0.05482376890406027,-0.19447201980461395,0,70,255.0,255.0,255.0
155,7.75,0.118,2.7421,-5.967,0.08143860762312292,-0.17755905553662144,-0.6657421826121815,0.025360488324512986,-0.05595075582069109,-0.1916738581653279,0,70,255.0,255.0,255.0
156,7.800000000000001,0.12210321365423446,2.7331532145784214,-6.000525698623551,0.08268159179970615,-0.1802902453259512,-0.6752657057345067,0.02435887873881529,-0.05329683575249856,-0.1892670667276748,0,70,255.0,255.0,255.0
157,7.8500000000000005,0.1262673245053159,2.724073187067462,-6.034524564913919,0.08387449549700447,-0.18288873911187134,-0.6846688892849491,0.02335726915311761,-0.050642915684306074,-0.18686027529002175,0,70,255.0,255.0,255.0
158,7.9,0.13048982852928012,2.7148665522672912,-6.068990581892513,0.0850173187150179,-0.1853545368943818,-0.6939517332635088,0.02235565956741993,-0.04798899561611358,-0.1844534838523687,0,70,255.0,255.0,255.0
159,7.95,0.13476822170216293,2.70553994497808,-6.103917732580738,0.08611006145374646,-0.18768763867348268,-0.703114237670186,0.021354049981722252,-0.0453350755479211,-0.18204669241471566,0,70,255.0,255.0,255.0
160,8.0,0.1391,2.6961,-6.1393,0.08715272371319012,-0.1898880444491739,-0.7121564025049802,0.02035244039602435,-0.042681155479727284,-0.17963990097705818,0,70,255.0,255.0,255.0
161,8.05,0.1434828831786292,2.6865514927109597,-6.1751319472212165,0.08815873228146817,-0.19206731955706338,-0.7211130307385795,0.019887902335097223,-0.04448984883585088,-0.178625228366905,0,70,255.0,255.0,255.0
162,8.1,0.14791548611309602,2.67689176079983,-6.211410457513349,0.08914151394669984,-0.19433702933275895,-0.7300189253416707,0.019423364274170112,-0.046298542191974414,-0.17761055575675186,0,70,255.0,255.0,255.0
163,8.15,0.15239664745824838,2.6671162825332204,-6.248132994194876,0.09010106870888518,-0.1966971737762608,-0.7388740863142546,0.01895882621324298,-0.04810723554809801,-0.17659588314659871,0,70,255.0,255.0,255.0
164,8.200000000000001,0.15692520586893388,2.6572205361777406,-6.2852970205842675,0.09103739656802416,-0.19914775288756884,-0.7476785136563308,0.018494288152315852,-0.0499159289042216,-0.17558121053644554,0,70,255.0,255.0,255.0
165,8.25,0.1615,2.6472,-6.3229,0.09195049752411674,-0.20168876666668292,-0.7564322073678991,0.018029750091388408,-0.051724622260344466,-0.1745665379262924,0,70,255.0,255.0,255.0
166,8.3,0.16612045363124908,2.6370520145777387,-6.360938512491586,0.09287547907442133,-0.20420847644579318,-0.7650821713111715,0.01896951192079467,-0.04906376890406508,-0.1714320198045996,0,70,255.0,255.0,255.0
167,8.35,0.17078833104229993,2.626781369733218,-6.3994056050326815,0.09384744871619621,-0.2065951435570894,-0.773575409348359,0.0199092737502009,-0.04640291554778579,-0.16829750168290689,0,70,255.0,255.0,255.0
168,8.4,0.1755059816377265,2.616394717599827,-6.438293441327986,0.09486640644944141,-0.20884876800057176,-0.7819119214794621,0.020849035579607163,-0.043742062191506406,-0.1651629835612141,0,70,255.0,255.0,255.0
169,8.450000000000001,0.18027575482210206,2.6058987103109574,-6.477594185082195,0.09593235227415695,-0.21096934977624013,-0.7900917077044807,0.021788797409013426,-0.04108120883522702,-0.16202846543952126,0,70,255.0,255.0,255.0
170,8.5,0.1851,2.5953,-6.5173,0.09704528619034275,-0.21295688888409448,-0.7981147680234143,0.022728559238419876,-0.038420355478947954,-0.15889394731783124,0,70,255.0,255.0,255.0
171,8.55,0.18998010229637494,2.584603648978084,-6.5574036028124425,0.09814735142084634,-0.21490677465976635,-0.806014284016729,0.021354049981722835,-0.03957507554792558,-0.15708669241475498,0,70,255.0,255.0,255.0
172,8.6,0.194913589717704,2.573808360267299,-6.59789992235592,0.09918069118851502,-0.21691439643888702,-0.8138234372648897,0.019979540725025845,-0.04072979561690317,-0.1552794375116788,0,70,255.0,255.0,255.0
173,8.65,0.1998970259908458,2.5629112470674715,-6.638784440493178,0.10014530549334891,-0.21897975422145666,-0.8215422277678969,0.018605031468328804,-0.041884515685880794,-0.15347218260860254,0,70,255.0,255.0,255.0
174,8.700000000000001,0.20492697484265845,2.5519094225784293,-6.680052639086958,0.10104119433534793,-0.22110284800747518,-0.8291706555257502,0.017230522211631766,-0.04303923575485842,-0.15166492770552628,0,70,255.0,255.0,255.0
175,8.75,0.21,2.5408,-6.7217,0.10186835771451208,-0.22328367779694247,-0.8367087205384495,0.01585601295493455,-0.044193955823836895,-0.14985767280244833,0,70,255.0,255.0,255.0
176,8.8,0.21511353718325157,2.5295813895099224,-6.763722276258648,0.10267911524219335,-0.22544442491514377,-0.8441726926219214,0.016574288152315753,-0.042235928904213765,-0.14870121053642169,0,70,255.0,255.0,255.0
177,8.85,0.22026851008688375,2.5182571891975853,-6.806116305543638,0.10352578652974366,-0.22750727068736382,-0.8515788415920916,0.017292563349696928,-0.040277901984590705,-0.14754474827039507,0,70,255.0,255.0,255.0
178,8.9,0.2254667143988904,2.506832294130286,-6.848879196699302,0.10440837157716303,-0.22947221511360283,-0.8589271674489607,0.018010838547078127,-0.038319875064967576,-0.1463882860043684,0,70,255.0,255.0,255.0
179,8.950000000000001,0.2307099458072647,2.495311599375324,-6.89200805856998,0.10532687038445149,-0.23133925819386064,-0.8662176701925286,0.01872911374445933,-0.03636184814534445,-0.14523182373834176,0,70,255.0,255.0,255.0
180,9.0,0.236,2.4837,-6.9355,0.10628128295160896,-0.23310839992813726,-0.8734503498227949,0.019447388941840282,-0.03440382122572139,-0.14407536147231337,0,70,255.0,255.0,255.0
181,9.05,0.24133774897061913,2.472001192982223,-6.979351292152968,0.10721618761038032,-0.23485152567966092,-0.8805749454955905,0.01794879740901332,-0.03532120883522351,-0.14090846543950356,0,70,255.0,255.0,255.0
182,9.1,0.24672036993476062,2.4602140829423593,-7.0235548554695315,0.10807616269251029,-0.2366405208116596,-0.8875411963667452,0.016450205876186407,-0.036238596444725595,-0.13774156940669385,0,70,255.0,255.0,255.0
183,9.15,0.25214411641359274,2.448336376411383,-7.068102772709614,0.10886120819799895,-0.23847538532413343,-0.8943491024362598,0.014951614343359444,-0.037155984054227716,-0.134574673373884,0,70,255.0,255.0,255.0
184,9.200000000000001,0.2576052419282833,2.436365779920271,-7.112987126633131,0.10957132412684627,-0.24035611921708241,-0.9009986637041337,0.01345302281053248,-0.03807337166372984,-0.1314077773410742,0,70,255.0,255.0,255.0
185,9.25,0.2631,2.4243,-7.1582,0.11020651047905218,-0.24228272249050645,-0.907489880170367,0.011954431277705235,-0.03899075927323259,-0.1282408813082636,0,70,255.0,255.0,255.0
186,9.3,0.2686258669342723,2.4121378385611822,-7.203734155129487,0.11084013431628562,-0.2441894723662089,-0.9138635253957125,0.013390522211632125,-0.037279235754863756,-0.1267049277055502,0,70,255.0,255.0,255.0
187,9.35,0.27418521017407343,2.3998824790329776,-7.249585072578236,0.11154556270021539,-0.24601064606599282,-0.920160372940922,0.014826613145558965,-0.035567712236494985,-0.12516897410283684,0,70,255.0,255.0,255.0
188,9.4,0.2797816199467387,2.387538200224182,-7.295748912462242,0.11232279563084152,-0.24774624358985836,-0.9263804228059961,0.016262704079485855,-0.03385618871812616,-0.12363302050012343,0,70,255.0,255.0,255.0
189,9.450000000000001,0.2854186864796027,2.3751092809435903,-7.342221834897501,0.11317183310816399,-0.2493962649378055,-0.9325236749909345,0.017698795013412746,-0.032144665199757325,-0.12209706689741001,0,70,255.0,255.0,255.0
190,9.5,0.2911,2.3626,-7.389,0.11409267513218277,-0.2509607101098341,-0.9385901294957372,0.019134885947339475,-0.030433141681388776,-0.12056111329469577,0,70,255.0,255.0,255.0
191,9.55,0.29682758329229225,2.350013852773046,-7.4360792873290915,0.11499127512447771,-0.2524865848555026,-0.944562952921563,0.01680911374445789,-0.03060184814534921,-0.11835182373833476,0,70,255.0,255.0,255.0
192,9.600000000000001,0.30259718936894553,2.3373512009257293,-7.483454454217528,0.11577358650662858,-0.2540208949243691,-0.9504253118695708,0.014483341541576312,-0.030770554609309646,-0.11614253418197376,0,70,255.0,255.0,255.0
193,9.65,0.3084030037994527,2.3246116226918896,-7.531119977441418,0.11643960927863534,-0.2555636403164335,-0.9561772063397604,0.012157569338694812,-0.030939261073270077,-0.11393324462561283,0,70,255.0,255.0,255.0
194,9.700000000000001,0.31423921215330664,2.311794696305366,-7.5790703337768734,0.11698934344049805,-0.2571148210316961,-0.961818636332132,0.00983179713581323,-0.03110796753723051,-0.11172395506925183,0,70,255.0,255.0,255.0
195,9.75,0.3201,2.2989,-7.6273,0.11742278899221668,-0.2586744370701565,-0.9673496018466854,0.007506024932931621,-0.03127667400118961,-0.10951466551288647,0,70,255.0,255.0,255.0
196,9.8,0.32598139989655944,2.2859275503466314,-7.6758038955541545,0.1178507651858033,-0.26021618821177955,-0.9727966629180341,0.009613022810532675,-0.03039337166373074,-0.10836777734105779,0,70,255.0,255.0,255.0
197,9.850000000000001,0.3318868323501452,2.272879117264103,-7.724578710551661,0.11838409127326996,-0.26171377423652964,-0.9781863795807912,0.01172002068813373,-0.029510069326271867,-0.1072208891692291,0,70,255.0,255.0,255.0
198,9.9,0.33782156485545106,2.25975690900826,-7.77362157777209,0.11902276725461666,-0.26316719514440673,-0.983518751834957,0.013827018565734709,-0.02862676698881303,-0.10607400099740047,0,70,255.0,255.0,255.0
199,9.950000000000001,0.3437908649071714,2.2465631338349437,-7.822929629995014,0.11976679312984344,-0.26457645093541093,-0.9887937796805313,0.015934016443335766,-0.027743464651354157,-0.10492711282557178,0,70,255.0,255.0,255.0
200,10.0,0.3498,2.2333,-7.8725,0.12061616889895022,-0.2659415416095421,-0.9940114631175142,0.01804101432093619,-0.026860162313894875,-0.1037802246537387,0,70,255.0,255.0,255.0
201,10.05,0.35585241712147064,2.219969545840428,-7.922329130454294,0.12146166413230898,-0.26727266229738333,-0.9991303954062938,0.015778795013413716,-0.0263846651997543,-0.10097706689744093,0,70,255.0,255.0,255.0
202,10.100000000000001,0.3619442812304748,2.206573130017856,-7.972410703575834,0.1221940484002916,-0.26858000812951754,-1.0041091698072586,0.013516575705891244,-0.025909168085613728,-0.09817390914114316,0,70,255.0,255.0,255.0
203,10.15,0.3680699367787435,2.1931119412750717,-8.022737711470223,0.1228133217028981,-0.2698635791059447,-1.008947786320408,0.011254356398368854,-0.025433670971473175,-0.09537075138484548,0,70,255.0,255.0,255.0
204,10.200000000000001,0.3742237282180083,2.1795871683548564,-8.073303146243077,0.12331948404012849,-0.27112337522666485,-1.013646244945743,0.008992137090846382,-0.0249581738573326,-0.0925675936285477,0,70,255.0,255.0,255.0
205,10.25,0.3804,2.166,-8.1241,0.12371253541198272,-0.272359396491678,-1.0182045456832627,0.006729917783323214,-0.0244826767431916,-0.08976443587224558,0,70,255.0,255.0,255.0
206,10.3,0.38659453161755863,2.152351866291656,-8.175121982628669,0.12407857828496112,-0.27355716259868834,-1.0226657554567995,0.007911797135812332,-0.023427967537221657,-0.08868395506921763,0,70,255.0,255.0,255.0
207,10.350000000000001,0.3928088427279567,2.138645162664469,-8.226365675145013,0.12450371512556396,-0.27470219324540024,-1.0270729411901844,0.00909367648830145,-0.022373258331251714,-0.08760347426618968,0,70,255.0,255.0,255.0
208,10.4,0.39904588802957536,2.1248825258914548,-8.277828376347017,0.12498794593379127,-0.27579448843181353,-1.0314261028834182,0.010275555840790526,-0.02131854912528181,-0.08652299346316177,0,70,255.0,255.0,255.0
209,10.450000000000001,0.4053086222207962,2.111066592745626,-8.329507385032684,0.125531270709643,-0.27683404815792834,-1.0357252405365007,0.011457435193279644,-0.020263839919311865,-0.08544251266013381,0,70,255.0,255.0,255.0
210,10.5,0.4116,2.0972,-8.3814,0.12613368945311923,-0.2778208724237447,-1.0399703541494316,0.012639314545768832,-0.01920913071334107,-0.08436203185709878,0,70,255.0,255.0,255.0
211,10.55,0.4179222564082956,2.0832845889929463,-8.433502939031031,0.12675202272784686,-0.2788026873078623,-1.044126582766499,0.012094016443334913,-0.020063464651362852,-0.08188711282558817,0,70,255.0,255.0,255.0
212,10.600000000000001,0.42427474785769953,2.069319019324265,-8.485810595844125,0.12734309109745273,-0.279827218888881,-1.0481590654319906,0.011548718340900994,-0.02091779858938463,-0.07941219379407756,0,70,255.0,255.0,255.0
213,10.65,0.43065611110295543,2.0553011551591105,-8.5383167831417,0.12790689456193693,-0.2808944671668008,-1.0520678021459064,0.011003420238467095,-0.02177213252740638,-0.07693727476256702,0,70,255.0,255.0,255.0
214,10.700000000000001,0.43706498289880774,2.0412288606626365,-8.591015313626189,0.12844343312129944,-0.2820044321416217,-1.0558527929082473,0.010458122136033176,-0.02262646646542816,-0.0744623557310564,0,70,255.0,255.0,255.0
215,10.75,0.4435,2.0271,-8.6439,0.12895270677554024,-0.28315711381334363,-1.0595140377190122,0.009912824033598833,-0.023480800403450353,-0.07198743669954233,0,70,255.0,255.0,255.0
216,10.8,0.44995964274925965,2.0129137777365558,-8.696964661247213,0.12942533080365137,-0.2842720881698631,-1.0630519134772145,0.00899213709084584,-0.021118173857328913,-0.06952759362854795,0,70,255.0,255.0,255.0
217,10.850000000000001,0.45644176584124635,1.9986747600384682,-8.750203141478497,0.12985192048462485,-0.2852689311990766,-1.066466797081867,0.008071450148092848,-0.018755547311207477,-0.06706775055755358,0,70,255.0,255.0,255.0
218,10.9,0.4629440675586031,1.9843888534721033,-8.803609291086174,0.13023247581846065,-0.2861476429009839,-1.06975868853297,0.0071507632053398875,-0.01639292076508612,-0.0646079074865593,0,70,255.0,255.0,255.0
219,10.950000000000001,0.46946424618397337,1.970061964603825,-8.857176960462569,0.13056699680515882,-0.28690822327558513,-1.072927587830523,0.006230076262586894,-0.014030294218964684,-0.06214806441556492,0,70,255.0,255.0,255.0
220,11.0,0.476,1.9557,-8.9109,0.13085548344471934,-0.28755067232288034,-1.0759734949745265,0.005309389319834379,-0.011667667672842441,-0.05968822134456886,0,70,255.0,255.0,255.0
221,11.05,0.4825495725946664,1.9413075000608286,-8.964772815980123,0.13113065405754726,-0.2881569600126842,-1.078929763324643,0.005697435193281702,-0.012583839919311947,-0.05856251266009023,0,70,255.0,255.0,255.0
222,11.100000000000001,0.4891133887773161,1.9268835405218592,-9.018792038241894,0.13142522696404751,-0.2888090563148116,-1.0818297462405355,0.006085481066729026,-0.013500012165781453,-0.05743680397561161,0,70,255.0,255.0,255.0
223,11.15,0.49569241866263236,1.9124258309524755,-9.072954852513606,0.13173920216422014,-0.28950696122926234,-1.084673443722204,0.0064735269401763355,-0.014416184412250926,-0.05631109529113302,0,70,255.0,255.0,255.0
224,11.200000000000001,0.5022876323652993,1.897932080922061,-9.127258444523546,0.13207257965806515,-0.29025067475603666,-1.087460855769649,0.00686157281362366,-0.015332356658720434,-0.055185386606654396,0,70,255.0,255.0,255.0
225,11.25,0.5089,1.8834,-9.1817,0.1324253594455825,-0.2910401968951344,-1.0901919823828696,0.007249618687071413,-0.01624852890518902,-0.05405967792216515,0,70,255.0,255.0,255.0
226,11.3,0.5155300668720751,1.8688282220201282,-9.2362760748323,0.1327720529661601,-0.29182007177939984,-1.0928290332242014,0.006618122136032447,-0.014946466465429235,-0.05142235573110479,0,70,255.0,255.0,255.0
227,11.350000000000001,0.5221766790494904,1.8542190778740926,-9.290980705553928,0.13308717165918577,-0.29253484354167736,-1.0953342179559802,0.005986625584993481,-0.013644404025669452,-0.04878503354004443,0,70,255.0,255.0,255.0
228,11.4,0.5288382577908678,1.8395758227179935,-9.345807298859405,0.13337071552465946,-0.2931845121819668,-1.0977075365782059,0.005355129033954537,-0.012342341585909713,-0.04614771134898417,0,70,255.0,255.0,255.0
229,11.450000000000001,0.5355132243548304,1.8249017117079291,-9.400749261443258,0.13362268456258122,-0.29376907770026833,-1.0999489890908787,0.004723632482915572,-0.011040279146149929,-0.04351038915792381,0,70,255.0,255.0,255.0
230,11.5,0.5422,1.8102,-9.4558,0.13384307877295104,-0.29428854009658184,-1.102058575493998,0.004092135931875962,-0.009738216706391523,-0.04087306696685822,0,70,255.0,255.0,255.0
231,11.55,0.5488973599170336,1.7954732118586574,-9.510953284690679,0.13405313407781258,-0.2947867528697158,-1.1040581037785584,0.004310076262584686,-0.010190294218965251,-0.039108064415551855,0,70,255.0,255.0,255.0
232,11.600000000000001,0.5556054950247237,1.7807209479817676,-9.566204339542399,0.1342740863992095,-0.29530756951847836,-1.1059693819355532,0.004528016593293411,-0.010642371731538982,-0.03734306186424549,0,70,255.0,255.0,255.0
233,11.65,0.5623249501738968,1.7659420781755495,-9.621548752048774,0.1345059357371419,-0.2958509900428697,-1.1077924099649827,0.004745956924002127,-0.011094449244112695,-0.03557805931293919,0,70,255.0,255.0,255.0
234,11.700000000000001,0.5690562702153801,1.7511354722462202,-9.676982109703436,0.13474868209160973,-0.29641701444288965,-1.1095271878668471,0.0049638972547108515,-0.011546526756686425,-0.03381305676163283,0,70,255.0,255.0,255.0
235,11.75,0.5758,1.7363,-9.7325,0.13500232546261295,-0.2970056427185383,-1.1111737156411459,0.0051818375854189025,-0.011998604269260138,-0.032048054210317645,0,70,255.0,255.0,255.0
236,11.8,0.5825564934597909,1.7214357305452406,-9.788097986404987,0.1352554107225891,-0.2975449167417378,-1.1127305516615698,0.004941572813626168,-0.009572356658720391,-0.030225386606638666,0,70,255.0,255.0,255.0
237,11.850000000000001,0.589325340851616,1.7065475301988347,-9.84377153627649,0.13549648274397558,-0.2979628783844104,-1.1141962543018098,0.004701308041833434,-0.007146109048180646,-0.02840271900295969,0,70,255.0,255.0,255.0
238,11.9,0.5961059415135453,1.6916414645798086,-9.899516092945499,0.1357255415267724,-0.2982595276465559,-1.1155708235618658,0.004461043270040708,-0.004719861437640987,-0.02658005139928078,0,70,255.0,255.0,255.0
239,11.950000000000001,0.6028976947836499,1.6767235993071878,-9.955327099743007,0.13594258707097964,-0.2984348645281744,-1.1168542594417377,0.004220778498247974,-0.0022936138271012416,-0.0247573837956018,0,70,255.0,255.0,255.0
240,12.0,0.6097,1.6618,-10.0112,0.13614761937659722,-0.298488889029266,-1.1180465619414257,0.00398051372645658,0.00013263378344019472,-0.02293471619191756,0,70,255.0,255.0,255.0
241,12.05,0.6165118662438032,1.6468750659603784,-10.067129969689383,0.13631722303183155,-0.29852158016333363,-1.1191316895751713,0.0028036324829163128,-0.0014402791461468614,-0.020470389157906832,0,70,255.0,255.0,255.0
242,12.100000000000001,0.6233307415688137,1.6319465312228916,-10.123111115351657,0.13642798262488887,-0.2986329169438807,-1.1200936008572164,0.001626751239376045,-0.0030131920757339174,-0.0180060621238961,0,70,255.0,255.0,255.0
243,12.15,0.6301536837719224,1.6170104635052158,-10.179137276169243,0.13647989815576916,-0.29882289937090706,-1.120932295787561,0.0004498699958358195,-0.004586105005320917,-0.015541735089885461,0,70,255.0,255.0,255.0
244,12.200000000000001,0.636977750650021,1.6020629305250262,-10.23520229132455,0.13647296962447245,-0.2990915274444128,-1.121647774366205,-0.0007270112477044486,-0.006159017934907973,-0.013077408055874732,0,70,255.0,255.0,255.0
245,12.25,0.6438,1.5871,-10.2913,0.13640719703099874,-0.29943880116439786,-1.1222400365931484,-0.0019038924912444521,-0.007731930864493197,-0.010613081021860538,0,70,255.0,255.0,255.0
246,12.3,0.6506184415649969,1.5721192056132443,-10.347424534837495,0.1363396971500853,-0.29977676260492736,-1.1227266900377362,-0.0007961027452934764,-0.005786526756686667,-0.00885305676165193,0,70,255.0,255.0,255.0
247,12.350000000000001,0.6574348928731304,1.5571239449095966,-10.403571202316892,0.1363275867564694,-0.30001745384006656,-1.1231253422693135,0.0003116870006574994,-0.0038411226488801356,-0.007093032501443325,0,70,255.0,255.0,255.0
248,12.4,0.6642521233987653,1.5421190813993275,-10.459735602377542,0.13637086585015104,-0.3001608748698154,-1.1234359932878806,0.001419476746608436,-0.001895718541073674,-0.005333008241234781,0,70,255.0,255.0,255.0
249,12.450000000000001,0.6710729026162671,1.5271094785927048,-10.515913334958796,0.13646953443113025,-0.3002070256941739,-1.1236586430934372,0.002527266492559412,4.968556673285666e-05,-0.0035729839810261744,0,70,255.0,255.0,255.0
250,12.5,0.6779,1.5121,-10.5721,0.13662359249940695,-0.3001559063131421,-1.1237932916859834,0.00363505623851057,0.0019950896745393187,-0.0018129597208265125,0,70,255.0,255.0,255.0
251,12.55,0.6847351674962101,1.4970945115866436,-10.62829109096065,0.136771988367826,-0.30006736941695616,-1.1238335502738939,0.0023007784982510136,0.0015463861728986332,0.00020261620440823,0,70,255.0,255.0,255.0
252,12.600000000000001,0.6915760869386658,1.4820928891387193,-10.684481675380788,0.13685367034923207,-0.3000012676958523,-1.1237730300655426,0.0009665007579914573,0.0010976826712579474,0.0022181921296429725,0,70,255.0,255.0,255.0
253,12.65,0.6984194226330165,1.4670940108974737,-10.740666714320598,0.13686863844362512,-0.29995760114983033,-1.1236117310609297,-0.00036777698226805183,0.0006489791696172777,0.004233768054877644,0,70,255.0,255.0,255.0
254,12.700000000000001,0.7052618388849113,1.452096755104152,-10.796841168840276,0.13681689265100525,-0.2999363697788905,-1.1233496532600546,-0.0017020547225276078,0.00020027566797659198,0.006249343980112386,0,70,255.0,255.0,255.0
255,12.75,0.7121,1.4371,-10.853,0.13669843297137235,-0.29993757358303264,-1.1229867966629186,-0.003036332462788227,-0.0002484278336618573,0.00826491990534528,0,70,255.0,255.0,255.0
256,12.8,0.7189312884501631,1.4221035480401805,-10.909138301319913,0.1365563493786101,-0.29990575972724687,-1.1225311088666814,-0.002647011247702208,0.0015209820650925717,0.009962591944143308,0,70,255.0,255.0,255.0
257,12.850000000000001,0.725755959372207,1.4071108985355236,-10.96525169615997,0.13643373184660212,-0.2997854753765234,-1.1219905374685042,-0.0022576900326161885,0.0032903919638470006,0.011660263982941337,0,70,255.0,255.0,255.0
258,12.9,0.7325749860691692,1.3921264750107774,-11.021335940340066,0.13633058037534848,-0.2995767205308622,-1.1213650824683872,-0.0018683688175301833,0.005059801862601366,0.013357936021739304,0,70,255.0,255.0,255.0
259,12.950000000000001,0.7393893418440879,1.3771547009906868,-11.077386789680109,0.1362468949648491,-0.2992794951902632,-1.1206547438663303,-0.001479047602444164,0.006829211761355795,0.015055608060537332,0,70,255.0,255.0,255.0
260,13.0,0.7462,1.3622,-11.1334,0.13618267561510403,-0.29889379935472654,-1.1198595216623335,-0.0010897263873588248,0.008598621660112382,0.016753280099331747,0,70,255.0,255.0,255.0
261,13.05,0.7530076787031378,1.347265696252633,-11.189370903759695,0.136122614117734,-0.2984855916740554,-1.1189540142593766,-0.0013127335074422796,0.007729685566732135,0.01946701601894855,0,70,255.0,255.0,255.0
262,13.100000000000001,0.759812075572507,1.3323507167191828,-11.245293139979339,0.1360514022643598,-0.2981208307980533,-1.1179128200604385,-0.0015357406275257343,0.006860749473351888,0.022180751938565356,0,70,255.0,255.0,255.0
263,13.15,0.7666126330903069,1.3174528890594166,-11.301159924319139,0.13596904005498142,-0.2977995167267202,-1.1167359390655198,-0.0017587477476091811,0.005991813379971672,0.024894487858182067,0,70,255.0,255.0,255.0
264,13.200000000000001,0.7734087937387382,1.3025700409331,-11.35696447243929,0.13587552748959889,-0.29752164946005616,-1.1154233712746204,-0.0019817548676926357,0.005122877286591424,0.027608223777798868,0,70,255.0,255.0,255.0
265,13.25,0.7802,1.2877,-11.4127,0.1357708645682122,-0.2972872289980611,-1.11397511668774,-0.0022047619877758606,0.004253941193211208,0.030321959697419132,0,70,255.0,255.0,255.0
266,13.3,0.7869851967372866,1.2728416669492861,-11.468360483641314,0.13562519415045454,-0.29703187357653144,-1.1124368340958024,-0.0036220547225300085,0.005960275667976702,0.031209343980088646,0,70,255.0,255.0,255.0
267,13.350000000000001,0.7937613383377667,1.2579982345877423,-11.523942943922677,0.13540865909595917,-0.29669120143126343,-1.1108541822897313,-0.005039347457284156,0.007666610142742196,0.03209672826275816,0,70,255.0,255.0,255.0
268,13.4,0.8005248815696034,1.2431739687515555,-11.579445162383385,0.1351212594047261,-0.2962652125622572,-1.1092271612695266,-0.006456640192038253,0.00937294461750763,0.032984112545427643,0,70,255.0,255.0,255.0
269,13.450000000000001,0.8072722832009603,1.2283731352769123,-11.634864920562729,0.13476299507675535,-0.29575390696951265,-1.1075557710351884,-0.0078739329267924,0.011079279092273124,0.033871496828097154,0,70,255.0,255.0,255.0
270,13.5,0.814,1.2136,-11.6902,0.1343338661120469,-0.2951572846530299,-1.1058400115867169,-0.009291225661546498,0.012785613567037224,0.03475888111077019,0,70,255.0,255.0,255.0
271,13.55,0.8207059343477168,1.1988580359502212,-11.745447161675054,0.13392060928044716,-0.29452291401981995,-1.1040186493574338,-0.0072390476024418214,0.012589211761360273,0.03809560806055115,0,70,255.0,255.0,255.0
272,13.600000000000001,0.8273937710764274,1.1841475449298462,-11.800599084329955,0.1336099613518027,-0.2938983634768939,-1.1020304507806618,-0.005186869543337145,0.01239280995568332,0.041432335010332104,0,70,255.0,255.0,255.0
273,13.65,0.8340686406312795,1.1694680359343608,-11.855647426147327,0.13340192232611348,-0.29328363302425164,-1.0998754158564006,-0.0031346914842325397,0.012196408150006376,0.044769061960112946,0,70,255.0,255.0,255.0
274,13.700000000000001,0.8407356734574213,1.1548190179592497,-11.910583845309802,0.13329649220337944,-0.29267872266189326,-1.0975535445846505,-0.0010825134251278637,0.012000006344329423,0.04810578890989391,0,70,255.0,255.0,255.0
275,13.75,0.8474,1.1402,-11.9654,0.13329367098360065,-0.2920836323898187,-1.0950648369654112,0.000969664633976075,0.011803604538655144,0.05144251585967119,0,70,255.0,255.0,255.0
276,13.8,0.854064665871847,1.1256109892498272,-12.02008846965848,0.13326836872775774,-0.29146847034418755,-1.0924645684744734,-0.001981754867692584,0.012802877286591944,0.05256822377784227,0,70,255.0,255.0,255.0
277,13.850000000000001,0.8607243773565246,1.111053985692871,-12.074645518757517,0.1330954954968314,-0.2908033446611595,-1.089808014587627,-0.004933174369361243,0.013802150034528744,0.05369393169601334,0,70,255.0,255.0,255.0
278,13.9,0.8673717559052787,1.0965314875110015,-12.12906833302731,0.13277505129082162,-0.2900882553407346,-1.087095175304872,-0.007884593871029797,0.014801422782465507,0.05481963961418437,0,70,255.0,255.0,255.0
279,13.950000000000001,0.8739994229693553,1.0820459928860875,-12.183354098198073,0.13230703610972838,-0.289323202382913,-1.0843260506262087,-0.010836013372698457,0.01580069553040231,0.05594534753235545,0,70,255.0,255.0,255.0
280,14.0,0.8806,1.0676,-12.2375,0.1316914499535518,-0.28850818578769444,-1.0815006405516365,-0.01378743287436679,0.016799968278339072,0.05707105545052649,0,70,255.0,255.0,255.0
281,14.05,0.8871682021648962,1.0531956070504689,-12.291502959691032,0.13105391580852271,-0.28766720460342926,-1.0786030767446715,-0.011713932926796093,0.016839279092266856,0.05883149682807523,0,70,255.0,255.0,255.0
282,14.100000000000001,0.8937071194974755,1.0388333122986684,-12.345358840639987,0.13052005666087219,-0.2868242578784677,-1.0756174908688287,-0.009640432979225396,0.016878589906194643,0.06059193820562397,0,70,255.0,255.0,255.0
283,14.15,0.9002219357476064,1.0245132140216338,-12.399063241743432,0.1300898725106002,-0.2859793456128098,-1.072543882924109,-0.007566933031654773,0.016917900720122427,0.06235237958317265,0,70,255.0,255.0,255.0
284,14.200000000000001,0.9067178346651584,1.010235410496399,-12.452611761897916,0.12976336335770672,-0.28513246780645546,-1.0693822529105117,-0.005493433084084077,0.01695721153405021,0.06411282096072139,0,70,255.0,255.0,255.0
285,14.25,0.9132,0.996,-12.506,0.1295405292021918,-0.28428362445940486,-1.0661326008280367,-0.003419933136512787,0.016996522347978438,0.06587326233827895,0,70,255.0,255.0,255.0
286,14.3,0.9196721254685688,0.9818073825482962,-12.55922289157741,0.12933196803815086,-0.28341471124209705,-1.0627551245468327,-0.0049225134251256845,0.017760006344334577,0.06922578890987983,0,70,255.0,255.0,255.0
287,14.350000000000001,0.9261319446535747,0.9676591651124535,-12.612272718682542,0.12904827785967923,-0.2825076238249714,-1.0592100219370486,-0.006425093713738582,0.01852349034069072,0.0725783154814807,0,70,255.0,255.0,255.0
288,14.4,0.9325757011042961,0.9535572564024629,-12.66514109999897,0.128689458666777,-0.28156236220802794,-1.0554972929986846,-0.007927674002351425,0.01928697433704683,0.07593084205308147,0,70,255.0,255.0,255.0
289,14.450000000000001,0.9389996383700119,0.9395035651283145,-12.717819654210267,0.12825551045944408,-0.2805789263912667,-1.0516169377317404,-0.009430254290964323,0.020050458333402972,0.07928336862468235,0,70,255.0,255.0,255.0
290,14.5,0.9454,0.9255,-12.7703,0.12774643323768053,-0.2795573163746876,-1.0475689561362165,-0.010932834579578277,0.020813942329761304,0.08263589519628667,0,70,255.0,255.0,255.0
291,14.55,0.9517736959608292,0.9115484627563445,-12.822575073999342,0.1272022120388736,-0.2784979504281835,-1.0434324250680003,-0.010836013372698615,0.021560695530404326,0.08282534753236064,0,70,255.0,255.0,255.0
292,14.600000000000001,0.9581203018882266,0.8976508272515151,-12.874643084629856,0.12666283190041067,-0.2774012468216472,-1.0392864213829802,-0.010739192165818954,0.02230744873104735,0.08301479986843462,0,70,255.0,255.0,255.0
293,14.65,0.9644400598352093,0.8838089603685138,-12.926503558260697,0.1261282928222917,-0.2762672055550787,-1.0351309450811568,-0.010642370958939294,0.02305420193169035,0.08320425220450858,0,70,255.0,255.0,255.0
294,14.700000000000001,0.9707332118547948,0.8700247289903412,-12.978156021261023,0.1255985948045167,-0.2750958266284781,-1.0309659961625295,-0.010545549752059633,0.023800955132333372,0.08339370454058255,0,70,255.0,255.0,255.0
295,14.75,0.977,0.8563,-13.0296,0.12507373784708573,-0.2738871100418454,-1.0267915746270986,-0.010448728545180197,0.024547708332978146,0.08358315687665296,0,70,255.0,255.0,255.0
296,14.8,0.983240290688115,0.8426363664263242,-13.080833612425225,0.12453118380635414,-0.27265748704516973,-1.0225231751811639,-0.011253433084082831,0.024637211534049543,0.0871528209607384,0,70,255.0,255.0,255.0
297,14.850000000000001,0.9894524477935198,0.8290343258814835,-13.131849342798047,0.12394839453867744,-0.2714233888884404,-1.0180762925310245,-0.012058137622985465,0.02472671473512094,0.09072248504482384,0,70,255.0,255.0,255.0
298,14.9,0.9956344595548668,0.8154941021234811,-13.182638266958257,0.1233253700440556,-0.27018481557165763,-1.0134509266766814,-0.012862842161888072,0.02481621793619233,0.09429214912890915,0,70,255.0,255.0,255.0
299,14.950000000000001,1.0017843142108096,0.8020159189103188,-13.233191460745648,0.12266211032248861,-0.2689417670948212,-1.0086470776181338,-0.013667546700790706,0.024905721137263727,0.0978618132129946,0,70,255.0,255.0,255.0
300,15.0,1.0079,0.7886,-13.2835,0.12195861537397655,-0.2676942434579312,-1.0036647453553822,-0.014472251239693645,0.024995224338336453,0.10143147729707458,0,70,255.0,255.0,255.0
301,15.05,1.0139803412867114,0.7752468715383574,-13.333556076299763,0.12126505273571009,-0.26642410139113765,-0.9985708742073387,-0.013270254290964583,0.02581045833340553,0.10232336862466378,0,70,255.0,255.0,255.0
302,15.100000000000001,1.0200275069376952,0.7619582692225484,-13.383356344177962,0.12063158994488007,-0.2651131976245906,-0.9934324084929157,-0.012068257342235522,0.026625692328474605,0.10321525995225296,0,70,255.0,255.0,255.0
303,15.15,1.0260445019453233,0.7487362311375609,-13.43289857390628,0.12005822700148654,-0.2637615321582901,-0.9882493482121133,-0.010866260393506503,0.02744092632354365,0.10410715127984212,0,70,255.0,255.0,255.0
304,15.200000000000001,1.0320343313019678,0.735582795368382,-13.4821805357564,0.11954496390552943,-0.2623691049922362,-0.9830216933649314,-0.00966426344477744,0.02825616031861273,0.10499904260743131,0,70,255.0,255.0,255.0
305,15.25,1.038,0.7225,-13.5312,0.11909180065700879,-0.26093591612642897,-0.9777494439513704,-0.008462266496048865,0.02907139431368133,0.1058909339350178,0,70,255.0,255.0,255.0
306,15.3,1.0439431441650406,0.709489747420245,-13.579954082375732,0.11861660525080596,-0.2594701073902786,-0.9723933279894801,-0.010545549752064261,0.029560955132331132,0.10835370454059173,0,70,255.0,255.0,255.0
307,15.350000000000001,1.0498599244557005,0.6965533972283207,-13.628437280490113,0.11803724568180235,-0.2579798206131958,-0.9669140734973112,-0.012628833008079658,0.03005051595098093,0.11081647514616566,0,70,255.0,255.0,255.0
308,15.4,1.0557451326638407,0.6836921733262743,-13.676643437416624,0.117353721949998,-0.25646505579518053,-0.9613116804748636,-0.01471211626409498,0.030540076769630713,0.1132792457517395,0,70,255.0,255.0,255.0
309,15.450000000000001,1.0615935605813207,0.6709072996161516,-13.72456639622876,0.11656603405539286,-0.2549258129362328,-0.9555861489221372,-0.016795399520110377,0.03102963758828051,0.11574201635731343,0,70,255.0,255.0,255.0
310,15.5,1.0674,0.6582,-13.7722,0.11567418199798699,-0.25336209203635257,-0.9497374788391323,-0.018878682776125588,0.03151919840692896,0.11820478696289083,0,70,255.0,255.0,255.0
311,15.55,1.073160682053127,0.6455717387806619,-13.819537994197317,0.11476452626106423,-0.2517594690477477,-0.9437598138347356,-0.017507546700783853,0.03258572113726352,0.12090181321297372,0,70,255.0,255.0,255.0
312,15.600000000000001,1.0788775952395027,0.6330249418641668,-13.866573733861598,0.11392342732790857,-0.25010351992262614,-0.9376472975178348,-0.016136410625442115,0.033652243867598075,0.12359883946305662,0,70,255.0,255.0,255.0
313,15.65,1.084554167399314,0.6205622755573412,-13.913300476427224,0.11315088519852004,-0.24839424466098795,-0.9313999298884299,-0.014765274550100429,0.03471876659793259,0.12629586571313942,0,70,255.0,255.0,255.0
314,15.700000000000001,1.0901938263727509,0.6081864061670101,-13.959711479328567,0.11244689987289855,-0.24663164326283293,-0.9250177109465209,-0.013394138474758692,0.03578528932826715,0.1289928919632223,0,70,255.0,255.0,255.0
315,15.75,1.0958,0.5959,-14.0058,0.11181147135104416,-0.24481571572816127,-0.9185006406921078,-0.012023002399417448,0.036851812058601885,0.13168991821330867,0,70,255.0,255.0,255.0
316,15.8,1.101374927622451,0.5837048974571067,-14.05156034083501,0.11117328970493918,-0.24299601641873078,-0.9119114166715881,-0.013504263444781704,0.03593616031861616,0.13187904260747008,0,70,255.0,255.0,255.0
317,15.850000000000001,1.10691609458629,0.5715996353150099,-14.096990984063499,0.11046104500656596,-0.24122209969629962,-0.9053127364313607,-0.01498552449014596,0.035020508578630434,0.1320681670016315,0,70,255.0,255.0,255.0
318,15.9,1.1124197977389032,0.5595819244443602,-14.142091456874482,0.10967473725592458,-0.23949396556086774,-0.8987045999714252,-0.016466785535510165,0.03410485683864474,0.1322572913957929,0,70,255.0,255.0,255.0
319,15.950000000000001,1.1178823339276776,0.5476494757158066,-14.18686128645698,0.10881436645301495,-0.23781161401243514,-0.8920870072917814,-0.01794804658087442,0.03318920509865902,0.1324464157899543,0,70,255.0,255.0,255.0
320,16.0,1.1233,0.5358,-14.2313,0.10787993259783714,-0.2361750450510019,-0.8854599583924297,-0.019429307626238956,0.03227355335867266,0.13263554018412105,0,70,255.0,255.0,255.0
321,16.05,1.12867000745707,0.5240326713909105,-14.275405442462652,0.1069263149191783,-0.23449646527732812,-0.8787225194788941,-0.01871539952011424,0.034869637588277005,0.13686201635730116,0,70,255.0,255.0,255.0
322,16.1,1.1339932264153396,0.5123525168757915,-14.319168729884412,0.10600839264582569,-0.23268808129217414,-0.8717737567566994,-0.018001491413989525,0.03746572181788135,0.14108849253048128,0,70,255.0,255.0,255.0
323,16.150000000000002,1.1392714416450744,0.5007660266652174,-14.362579296074847,0.1051261657777793,-0.23074989309553995,-0.8646136702258458,-0.01728758330786481,0.0400618060474857,0.1453149687036614,0,70,255.0,255.0,255.0
324,16.2,1.144506437916539,0.4892796909697627,-14.405626574843518,0.10427963431503924,-0.22868190068742567,-0.8572422598863336,-0.016573675201740145,0.04265789027708987,0.14954144487684123,0,70,255.0,255.0,255.0
325,16.25,1.1497,0.4779,-14.4483,0.10346879825760533,-0.22648410406783104,-0.849659525738162,-0.015859767095615984,0.04525397450669555,0.15376792105002313,0,70,255.0,255.0,255.0
326,16.3,1.1548530425492693,0.46663161697925065,-14.490590689314383,0.10264145061834616,-0.22426612247195696,-0.8419665054128321,-0.017234138474750058,0.043465289328266876,0.15395289196316514,0,70,255.0,255.0,255.0
327,16.35,1.1599629997523522,0.45547189718182196,-14.532496496398856,0.1017453844101303,-0.2221375751350043,-0.8342642365418452,-0.018608509853884132,0.041676604149838196,0.15413786287630718,0,70,255.0,255.0,255.0
328,16.400000000000002,1.1650264356808,0.44441636889476793,-14.57401695882614,0.10078059963295773,-0.22009846205697306,-0.8265527191252012,-0.019982881233018203,0.039887918971409524,0.1543228337894492,0,70,255.0,255.0,255.0
329,16.45,1.170039914406165,0.4334605604051431,-14.615151614168948,0.09974709628682853,-0.2181487832378634,-0.8188319531629006,-0.02135725261215218,0.03809923379298097,0.15450780470259123,0,70,255.0,255.0,255.0
330,16.5,1.175,0.4226,-14.6559,0.09864487437174253,-0.21628853867767503,-0.8111019386549423,-0.022731623991286587,0.03631054861455474,0.1546927756157377,0,70,255.0,255.0,255.0
331,16.55,1.1799042223458525,0.411832060692086,-14.696260600279823,0.09753188260743839,-0.21440704483484455,-0.8032994588697979,-0.02178804658087837,0.03894920509866288,0.15740641579003561,0,70,255.0,255.0,255.0
332,16.6,1.1847539745752529,0.40116149439691867,-14.73622768452017,0.09646606971365466,-0.2123936181678087,-0.7953612970759385,-0.020844469170470156,0.04158786158277102,0.16012005596433354,0,70,255.0,255.0,255.0
333,16.650000000000002,1.1895516156317265,0.3905948977557082,-14.775794468620607,0.09544743569039135,-0.2102482586765674,-0.7872874532733642,-0.019900891760061937,0.04422651806687916,0.1628336961386315,0,70,255.0,255.0,255.0
334,16.7,1.1942995044588,0.3801388674096658,-14.814954168480693,0.09447598053764851,-0.2079709663611209,-0.7790779274620757,-0.018957314349653788,0.04686517455098711,0.16554733631292923,0,70,255.0,255.0,255.0
335,16.75,1.199,0.3698,-14.8537,0.09355170425542603,-0.20556174122146875,-0.7707327196420716,-0.018013736939245018,0.04950383103509681,0.1682609764872316,0,70,255.0,255.0,255.0
336,16.8,1.2036548680673214,0.35958334025240446,-14.892025309566334,0.09263901895190128,-0.20311369818866407,-0.76225965910797,-0.01849367520174426,0.048417890277088725,0.17066144487682727,0,70,255.0,255.0,255.0
337,16.85,1.2082635019466381,0.3494877252305017,-14.929923965520473,0.09170233673525158,-0.2007199521937598,-0.7536665751543885,-0.0189736134642435,0.04733194951908063,0.17306191326642295,0,70,255.0,255.0,255.0
338,16.900000000000002,1.2128247017922946,0.33951044008239656,-14.96738996669145,0.09074165760547691,-0.19838050323675593,-0.7449534677813274,-0.019453551726742745,0.04624600876107254,0.17546238165601863,0,70,255.0,255.0,255.0
339,16.95,1.2173372677586336,0.3296487699561948,-15.00441731190828,0.08975698156257735,-0.19609535131765266,-0.7361203369887871,-0.01993348998924195,0.045160068003064525,0.17786285004561414,0,70,255.0,255.0,255.0
340,17.0,1.2218,0.3199,-15.041,0.08874830860655276,-0.1938644964364496,-0.7271671827767664,-0.02041342825174086,0.04407412724505688,0.1802633184352116,0,70,255.0,255.0,255.0
341,17.05,1.2262115053848628,0.3102625782982954,-15.077132561454851,0.08770404158495552,-0.19161816241049864,-0.7181259046983218,-0.021357252612148193,0.04577923379298004,0.18138780470256483,0,70,255.0,255.0,255.0
342,17.1,1.2305696176381955,0.30073960468107314,-15.112811653397944,0.08661258334533792,-0.18928657305715152,-0.7090284023065097,-0.02230107697255553,0.04748434034090319,0.18251229096991806,0,70,255.0,255.0,255.0
343,17.150000000000002,1.2348719771990964,0.2913353419147032,-15.148034464613612,0.08547393388769994,-0.18686972837640825,-0.6998746756013298,-0.02324490133296286,0.049189446888826344,0.18363677723727131,0,70,255.0,255.0,255.0
344,17.2,1.2391162245066647,0.28205405276555595,-15.182798183886186,0.08428809321204168,-0.184367628368269,-0.6906647245827829,-0.024188725693370126,0.050894553436749375,0.18476126350462446,0,70,255.0,255.0,255.0
345,17.25,1.2433,0.2729,-15.2171,0.08305506131836297,-0.18178027303273342,-0.6813985492508677,-0.025132550053777458,0.05259965998467431,0.18588574977198125,0,70,255.0,255.0,255.0
346,17.3,1.2474215103932278,0.26387674655441334,-15.25093644461427,0.08180881470827721,-0.17914965216934176,-0.6720367220987444,-0.024717314349652915,0.05262517455099056,0.1885873363129472,0,70,255.0,255.0,255.0
347,17.35,1.2514812275005816,0.2549850560452041,-15.284301420887758,0.08058332988339764,-0.17651775557763427,-0.6625398156195728,-0.024302078645528368,0.05265068911730682,0.19128892285391313,0,70,255.0,255.0,255.0
348,17.400000000000002,1.2554801894113212,0.24622499225878824,-15.317188174854111,0.07937860684372433,-0.173884583257611,-0.6529078298133527,-0.02388684294140382,0.05267620368362307,0.19399050939487908,0,70,255.0,255.0,255.0
349,17.45,1.259419434214707,0.237596618981582,-15.349589952546976,0.07819464558925732,-0.1712501352092721,-0.6431407646800853,-0.023471607237279306,0.05270171824993932,0.19669209593584483,0,70,255.0,255.0,255.0
350,17.5,1.2633,0.2291,-15.3815,0.07703144611999645,-0.16861441143261716,-0.6332386202197686,-0.023056371533155207,0.052727232816256686,0.19939368247681166,0,70,255.0,255.0,255.0
351,17.55,1.2671224530422267,0.22073523548405052,-15.412912060088072,0.0758606995819364,-0.16597522891213407,-0.6232312069067075,-0.023773489989245788,0.052840068003064865,0.20090285004562852,0,70,255.0,255.0,255.0
352,17.6,1.2708854723594805,0.2125025711381087,-15.443821863051031,0.07465409712107184,-0.1633304046323106,-0.6131483352152054,-0.02449060844533637,0.05295290318987305,0.2024120176144454,0,70,255.0,255.0,255.0
353,17.650000000000002,1.2745872651556207,0.20440228905014157,-15.474225635969955,0.07341163873740274,-0.1606799385931467,-0.6029900051452626,-0.02520772690142695,0.05306573837668123,0.20392118518326227,0,70,255.0,255.0,255.0
354,17.7,1.278226038634507,0.1964346713081167,-15.504119605925917,0.0721333244309292,-0.15802383079464258,-0.5927562166968796,-0.02592484535751748,0.05317857356348941,0.20543035275207905,0,70,255.0,255.0,255.0
355,17.75,1.2818,0.1886,-15.5335,0.07081915420165102,-0.15536208123679787,-0.5824469698700553,-0.02664196381360817,0.053291408750298475,0.20693952032089324,0,70,255.0,255.0,255.0
356,17.8,1.285307877437866,0.18089911150938387,-15.562362515033442,0.06950038696397655,-0.15266143218212164,-0.5720304502744169,-0.02610872569336981,0.05473455343674931,0.20972126350463527,0,70,255.0,255.0,255.0
357,17.85,1.288750483061498,0.17333505940235966,-15.590700726908125,0.068208281632314,-0.14988862589312288,-0.5614748435195915,-0.025575487573131446,0.05617769812320014,0.2125030066883773,0,70,255.0,255.0,255.0
358,17.900000000000002,1.2921291499661975,0.16591145154064343,-15.618507681266081,0.06694283820666337,-0.14704366236980154,-0.5507801496055789,-0.025042249452893083,0.05762084280965098,0.21528474987211932,0,70,255.0,255.0,255.0
359,17.95,1.2954452112472643,0.15863189578595185,-15.64577642374936,0.06570405668702475,-0.1441265416121579,-0.53994636853238,-0.02450901133265476,0.059063987496101714,0.21806649305586112,0,70,255.0,255.0,255.0
360,18.0,1.2987,0.1515,-15.6725,0.06449193707339794,-0.14113726362019147,-0.5289735002999931,-0.023975773212416618,0.060507132182552326,0.22084823623960403,0,70,255.0,255.0,255.0
361,18.05,1.3018940372063106,0.14451871847841324,-15.698672279778162,0.06325775256215564,-0.1381150423593791,-0.5179109919956081,-0.025391607237275026,0.060381718249939986,0.22165209593578794,0,70,255.0,255.0,255.0
362,18.1,1.305024595394528,0.13768839125245136,-15.724290429316481,0.0619527763496704,-0.13509909179519738,-0.5068082907064141,-0.02680744126213343,0.06025630431732764,0.22245595563197187,0,70,255.0,255.0,255.0
363,18.150000000000002,1.3080881349795905,0.13100870478728283,-15.749352438965722,0.06057700843594225,-0.13208941192764626,-0.49566539643241064,-0.02822327528699184,0.0601308903847153,0.22325981532815578,0,70,255.0,255.0,255.0
364,18.2,1.3110811163764349,0.1244793455480765,-15.773856299076641,0.059130448820971286,-0.129086002756726,-0.4844823091735989,-0.029639109311850147,0.06000547645210297,0.22406367502433966,0,70,255.0,255.0,255.0
365,18.25,1.314,0.1181,-15.7978,0.057613097504757294,-0.12608886428243612,-0.47325902892997707,-0.031054943336708996,0.05988006251948996,0.22486753472052623,0,70,255.0,255.0,255.0
366,18.3,1.3168423737368917,0.11187081457696246,-15.821180365853918,0.05609260278740151,-0.1230703983803616,-0.46192558174316056,-0.029764845357521556,0.06085857356348937,0.2284703527521265,0,70,255.0,255.0,255.0
367,18.35,1.3196103353603896,0.10579377558783366,-15.843989555825958,0.05463661296900509,-0.1200030069260871,-0.4504119936547641,-0.028474747378334116,0.06183708460748878,0.23207317078372675,0,70,255.0,255.0,255.0
368,18.400000000000002,1.3223071101154416,0.09987132931022359,-15.866218562871035,0.053245128049568054,-0.11688668991961264,-0.4387182646647876,-0.027184649399146676,0.0628155956514882,0.235675988815327,0,70,255.0,255.0,255.0
369,18.45,1.3249359232469957,0.09410592202174263,-15.887858379944076,0.05191814802909048,-0.11372144736093842,-0.42684439477323194,-0.02589455141995933,0.06379410669548753,0.239278806846927,0,70,255.0,255.0,255.0
370,18.5,1.3275,0.0885,-15.9089,0.05065567290757218,-0.11050727925006402,-0.4147903839800954,-0.024604453440772,0.06477261773948706,0.24288162487852905,0,70,255.0,255.0,255.0
371,18.55,1.3300012678461226,0.08305562321373633,-15.929335856806166,0.0493798362882365,-0.10726736411917424,-0.4026426810317352,-0.026429011332654677,0.06482398749610219,0.24302649305587226,0,70,255.0,255.0,255.0
372,18.6,1.3324364631639136,0.07777330639621294,-15.949164147379694,0.04801277177430668,-0.10402488050045372,-0.3904877346745078,-0.028253569224537353,0.06487535725271731,0.2431713612332155,0,70,255.0,255.0,255.0
373,18.650000000000002,1.3348010245586435,0.07265317797182133,-15.968384509550136,0.04655447936578272,-0.10077982839390243,-0.37832554490841325,-0.03007812711642003,0.06492672700933244,0.24331622941055872,0,70,255.0,255.0,255.0
374,18.7,1.3370903906355822,0.06769536636495341,-15.986996581147052,0.045004959062664746,-0.09753220779952061,-0.36615611173345247,-0.031902685008302574,0.06497809676594757,0.24346109758790196,0,70,255.0,255.0,255.0
375,18.75,1.3393,0.0629,-16.005,0.04336421086495252,-0.0942820187173078,-0.35397943514962366,-0.03372724290018542,0.0650294665225627,0.24360596576524385,0,70,255.0,255.0,255.0
376,18.8,1.3414261548786175,0.058267492568091724,-16.02239300692142,0.04168405205965172,-0.09101214514294112,-0.34171169412988517,-0.03347910931184566,0.0657654764521026,0.24710367502428698,0,70,255.0,255.0,255.0
377,18.85,1.3434686119839554,0.05379939882731371,-16.03916825465527,0.0400162999337679,-0.08770547107209746,-0.3292690676471946,-0.03323097572350591,0.06650148638164248,0.2506013842833301,0,70,255.0,255.0,255.0
378,18.900000000000002,1.3454279916499847,0.0494975588024898,-16.05531699892842,0.03836095448730108,-0.08436199650477678,-0.3166515557015518,-0.032982842135166154,0.06723749631118238,0.25409909354237326,0,70,255.0,255.0,255.0
379,18.95,1.3473049142106759,0.045363812518444145,-16.07083049546771,0.03671801572025136,-0.08098172144097937,-0.3038591582929578,-0.03273470854682642,0.06797350624072221,0.25759680280141617,0,70,255.0,255.0,255.0
380,19.0,1.3491,0.0414,-16.0857,0.035087483632618516,-0.07756464588070472,-0.29089187542141076,-0.032486574958486614,0.068709516170262,0.2610945120604611,0,70,255.0,255.0,255.0
381,19.05,1.3508141126394073,0.037608006513896376,-16.099917715508166,0.03348395547315725,-0.07410805530906094,-0.2778065424487263,-0.03165455141996295,0.06955410669548746,0.26231880684690917,0,70,255.0,255.0,255.0
382,19.1,1.3524490889002645,0.03398989829453149,-16.113479633999216,0.03192202849062218,-0.07060923521115588,-0.2646599947367195,-0.030822527881439285,0.07039869722071293,0.26354310163335726,0,70,255.0,255.0,255.0
383,19.150000000000002,1.3540070088414182,0.030547786818218382,-16.126382694736183,0.03040170268501328,-0.06706818558698954,-0.25145223228539026,-0.029990504342915624,0.0712432877459384,0.26476739641980535,0,70,255.0,255.0,255.0
384,19.200000000000003,1.3554899525217146,0.027283783561270127,-16.1386238369821,0.02892297805633057,-0.06348490643656193,-0.23818325509473856,-0.02915848080439196,0.07208787827116385,0.26599169120625343,0,70,255.0,255.0,255.0
385,19.25,1.3569,0.0242,-16.1502,0.027485854604574148,-0.0598593977598733,-0.22485306316476544,-0.028326457265868327,0.0729324687963897,0.2672159859927028,0,70,255.0,255.0,255.0
386,19.3,1.3582381945637536,0.021298081376322428,-16.161108131045914,0.026028126047719844,-0.056219633620814814,-0.2114621360752482,-0.02998268500830295,0.07265809676594771,0.2684210975879796,0,70,255.0,255.0,255.0
387,19.35,1.3595014324149868,0.018577807994559735,-16.171345209347862,0.02448758610374381,-0.05259358808327842,-0.1980109534059671,-0.031638912750737574,0.07238372473550574,0.2696262091832564,0,70,255.0,255.0,255.0
388,19.400000000000002,1.3606855729843428,0.016038493924635813,-16.18090822212685,0.02286423477264604,-0.04898126114726414,-0.18449951515692217,-0.033295140493172205,0.07210935270506375,0.2708313207785332,0,70,255.0,255.0,255.0
389,19.450000000000003,1.3617864757024658,0.013679453236474551,-16.189794156603895,0.02115807205442654,-0.04538265281277195,-0.1709278213281134,-0.03495136823560683,0.07183498067462175,0.27203643237381003,0,70,255.0,255.0,255.0
390,19.5,1.3628,0.0115,-16.198,0.01936909794908544,-0.04179776307980212,-0.15729587191954175,-0.03660759597804125,0.07156060864417951,0.2732415439690876,0,70,255.0,255.0,255.0
391,19.55,1.3637227091055781,0.009500467980813653,-16.205520160308172,0.01753954033596374,-0.03816541020767952,-0.14344891325027856,-0.036574708546825915,0.07373350624072202,0.28063680280143166,0,70,255.0,255.0,255.0
392,19.6,1.3645539814397893,0.007685269727229112,-16.21233872860934,0.015711627094402797,-0.034424412455729816,-0.12923219163939817,-0.03654182111561057,0.0759064038372645,0.28803206163377565,0,70,255.0,255.0,255.0
393,19.650000000000002,1.3652938992212111,0.00605983748323774,-16.218437216756413,0.013885358224402625,-0.03057476982395297,-0.1146457070869006,-0.036508933684395235,0.07807930143380701,0.29542732046611964,0,70,255.0,255.0,255.0
394,19.700000000000003,1.365942544668422,0.00462960349283089,-16.22379713660233,0.012060733725963222,-0.026616482312349,-0.09968945959278581,-0.03647604625317989,0.0802521990303495,0.3028225792984637,0,70,255.0,255.0,255.0
395,19.75,1.3665,0.0034,-16.2284,0.010237753599084715,-0.022549549920918198,-0.0843634491570549,-0.036443158821964555,0.08242509662689196,0.3102178381308076,0,70,255.0,255.0,255.0
396,19.8,1.3669669690139339,0.002373646700422805,-16.23223762772141,0.008453712608425793,-0.01854272554846674,-0.06928621092362972,-0.03491848080439134,0.07784787827116407,0.29287169120619105,0,70,255.0,255.0,255.0
397,19.85,1.3673466418258573,0.001541913096523526,-16.235343076214797,0.006745905518645531,-0.01476476209380168,-0.05507628003643539,-0.033393802786818125,0.07327065991543617,0.27552554428157444,0,70,255.0,255.0,255.0
398,19.900000000000002,1.3676428301308132,0.0008933561424128427,-16.237759710847488,0.005114332329743932,-0.01121565955692302,-0.04173365649547189,-0.03186912476924491,0.06869344155970829,0.2581793973569579,0,70,255.0,255.0,255.0
399,19.950000000000003,1.3678593456238464,0.00041653279220143504,-16.239530896986786,0.0035589930417209955,-0.007895417937830752,-0.029258340300739233,-0.03034444675167169,0.0641162232039804,0.24083325043234127,0,70,255.0,255.0,255.0
400,20.0,1.368,0.0001,-16.2407,0.0020798876545768223,-0.0048040372365251,-0.017650331452238217,-0.028819768734098587,0.05953900484825283,0.22348710350772594,0,70,255.0,255.0,255.0
401,20.05,1.3680710148386857,-7.185478250495349e-05,-16.2413261288062,0.0008216092303341379,-0.002191687598453207,-0.007854243055198768,-0.021511368235608078,0.0449549806746214,0.16835643237384645,0,70,255.0,255.0,255.0
402,20.1,1.3680882512567822,-0.0001313221133233503,-16.241531366531465,-7.124916898401592e-05,-0.0003085391690628961,-0.0008146882148533331,-0.014202967737117567,0.030370956500989973,0.11322576123996696,0,70,255.0,255.0,255.0
403,20.150000000000002,1.368069980255536,-0.00011486205288926995,-16.24145353985363,-0.000598687543377639,0.0008454080516458336,0.003468333068798084,-0.00689456723862706,0.01578693232735854,0.05809509010608746,0,70,255.0,255.0,255.0
404,20.200000000000003,1.3680344728361933,-5.893466163679219e-05,-16.241230475450532,-0.0007607058928467314,0.00127015406367298,0.004994820795755497,0.00041383325986345254,0.001202908153727117,0.0029644189722079772,0,70,255.0,255.0,255.0
405,20.25,1.368,0.0,-16.241,-0.0005573042173913214,0.0009656988670185953,0.003764774966019081,0.007722233758353434,-0.013381116019903262,-0.05216625216166754,0,70,255.0,255.0,255.0
406,20.3,1.3679809716313236,3.297242959698959e-05,-16.240871457053792,-0.00022014952976198853,0.0003814759422797427,0.0014871831444384,0.005763953746819688,-0.009987800969650514,-0.038937420701558416,0,70,255.0,255.0,255.0
407,20.35,1.3679763531470142,4.097535676985218e-05,-16.24084025765934,1.9091157290655676e-05,-3.308122994647003e-05,-0.00012896710413681572,0.003805673735285943,-0.006594485919397765,-0.0257085892414493,0,70,255.0,255.0,255.0
408,20.400000000000002,1.3679812488470433,3.249206914421989e-05,-16.24087332973799,0.00016041784376661126,-0.0002779726496600428,-0.0010836757797065663,0.001847393723752198,-0.003201170869145016,-0.012479757781340181,0,70,255.0,255.0,255.0
409,20.450000000000003,1.3679907630313815,1.600585434572483e-05,-16.240937601211094,0.00020383052966587822,-0.0003531983168609759,-0.001376942882270851,-0.00011088628778154787,0.00019214418110773124,0.0007490736787689398,0,70,255.0,255.0,255.0
410,20.5,1.368,0.0,-16.241,0.0001493292149884636,-0.00025875823154928283,-0.0010087684118297202,-0.0020691662993151537,0.0035854592313602387,0.013977905138877124,0,70,255.0,255.0,255.0
411,20.55,1.3680050986360204,-8.83493588300541e-06,-16.241034442978627,5.898888871381649e-05,-0.00010221617066575862,-0.0003984895225494471,-0.0015444467516706794,0.0026762232039806402,0.010433250432333455,0,70,255.0,255.0,255.0
412,20.6,1.368006336155161,-1.0979313756059028e-05,-16.241042802831178,-5.115460178606525e-06,8.864088848784993e-06,3.4556631403640024e-05,-0.0010197272040262048,0.0017669871766010415,0.006888595725789788,0,70,255.0,255.0,255.0
413,20.650000000000002,1.3680050243562922,-8.706223687609914e-06,-16.24103394119441,-4.298383168880545e-05,7.448254699434802e-05,0.00029037005002954125,-0.0004950076563817304,0.0008577511492214428,0.003343941019246118,0,70,255.0,255.0,255.0
414,20.700000000000003,1.3680024750382822,-4.2887557461071375e-06,-16.241016719705094,-5.4616225816780294e-05,9.463920377093051e-05,0.00036895073332825646,2.9711891262744136e-05,-5.1484878158155646e-05,-0.00020071368729754867,0,70,255.0,255.0,255.0
415,20.75,1.368,0.0,-16.241,-4.0012642562532976e-05,6.933405917853583e-05,0.00027029868129979987,0.0005544314389071812,-0.000960720905537689,-0.003745368393840963,0,70,255.0,255.0,255.0
416,20.8,1.367998633824596,2.3673139350320505e-06,-16.240990771031694,-1.5806025093277385e-05,2.738874038329191e-05,0.0001067749457593882,0.0004138332598630287,-0.0007170918462720442,-0.002795581027775411,0,70,255.0,255.0,255.0
417,20.85,1.3679983022323416,2.9418982543839392e-06,-16.240988531015955,1.3706834237704823e-06,-2.375125448669597e-06,-9.259421477745189e-06,0.0002732350808188763,-0.0004734627870063993,-0.0018457936617098589,0,70,255.0,255.0,255.0
418,20.900000000000002,1.3679986537277893,2.3328256062197977e-06,-16.240990905484367,1.1517482988610639e-05,-1.995753831734869e-05,-7.780442041160026e-05,0.00013263690177472385,-0.0002298337277407544,-0.0008960062956443068,0,70,255.0,255.0,255.0
419,20.950000000000003,1.3679993368154912,1.1491686387037504e-06,-16.24099551996852,1.463437360124305e-05,-2.5358498222745378e-05,-9.886005104217709e-05,-7.961277269428568e-06,1.379533152489037e-05,5.3781070421245365e-05,0,70,255.0,255.0,255.0
420,21.0,1.368,0.0,-16.241,1.0721355261668295e-05,-1.8578005164860544e-05,-7.242631336947932e-05,-0.00014855945631357112,0.000257424390790518,0.0010035684364867298,0,70,255.0,255.0,255.0
421,21.05,1.3680003660655964,-6.343198571227932e-07,-16.241002472894603,4.235211659293032e-06,-7.338790867409012e-06,-2.861026048810572e-05,-0.00011088628778143573,0.0001921441811075369,0.0007490736787681891,0,70,255.0,255.0,255.0
422,21.1,1.3680004549154732,-7.882792614767308e-07,-16.241003073105016,-3.6727351647543486e-07,6.364129458934192e-07,2.4810545073406564e-06,-7.321311924930034e-05,0.0001268639714245558,0.0004945789210496483,0,70,255.0,255.0,255.0
423,21.150000000000002,1.3680003607325517,-6.250787372692695e-07,-16.24100243686812,-3.0861002656371056e-06,5.347606275046747e-06,2.0847631616859806e-05,-3.5539950717164946e-05,6.15837617415747e-05,0.00024008416333110765,0,70,255.0,255.0,255.0
424,21.200000000000003,1.3680001776997537,-3.0791880870786764e-07,-16.241001200420815,-3.9212685881919775e-06,6.79478912005097e-06,2.648947084045176e-05,2.1332178149704344e-06,-3.6964479414064336e-06,-1.4410594387433227e-05,0,70,255.0,255.0,255.0
425,21.25,1.368,0.0,-16.241,-2.872778484140201e-06,4.97796148090634e-06,1.940657217811742e-05,3.980638634710311e-05,-6.89766576243829e-05,-0.0002689053521059558,0,70,255.0,255.0,255.0
426,21.3,1.3679999019130191,1.6996549345912284e-07,-16.240999337389887,-1.1348215438947472e-06,1.966423086344141e-06,7.666096193034735e-06,2.9711891262714066e-05,-5.148487815810335e-05,-0.00020071368729734495,0,70,255.0,255.0,255.0
427,21.35,1.3679998781057665,2.1121879152298365e-07,-16.240999176563996,9.841064213124738e-08,-1.7052633490406783e-07,-6.647965516173607e-07,1.961739617832502e-05,-3.3993098691823795e-05,-0.00013252202248873412,0,70,255.0,255.0,255.0
428,21.400000000000002,1.3679999033420043,1.674893428572824e-07,-16.240999347043154,8.269180739377831e-07,-1.4328867828382865e-06,-5.586106055838869e-06,9.522901093935977e-06,-1.6501319225544243e-05,-6.433035768012331e-05,0,70,255.0,255.0,255.0
429,21.450000000000003,1.3679999523854947,8.250659612771965e-08,-16.24099967834821,1.0507007515248579e-06,-1.820658257458515e-06,-7.097832319629786e-06,-5.715939904530679e-07,9.904602407353092e-07,3.861307128487541e-06,0,70,255.0,255.0,255.0
430,21.5,1.368,0.0,-16.241,7.69758674892513e-07,-1.3338407587648187e-06,-5.199975342990369e-06,-1.0666089074841405e-05,1.848223970701362e-05,7.205297193709349e-05,0,70,255.0,255.0,255.0
431,21.55,1.3680000262823275,-4.5542116713698046e-08,-16.241000177545843,3.040745162859566e-07,-5.269014779675539e-07,-2.054124284033214e-06,-7.961277269420586e-06,1.3795331524876513e-05,5.378107042119091e-05,0,70,255.0,255.0,255.0
432,21.6,1.3680000326614614,-5.659590461520383e-08,-16.241000220639012,-2.636905204955698e-08,4.569239372285223e-08,1.781316991287985e-07,-5.256465463999768e-06,9.108423342739406e-06,3.5509168905288324e-05,0,70,255.0,255.0,255.0
433,21.650000000000002,1.368000025899432,-4.487863415986048e-08,-16.241000174959257,-2.2157203011402757e-07,3.8394085630639936e-07,1.4967926064956687e-06,-2.551653658578951e-06,4.421515160602298e-06,1.7237267389385737e-05,0,70,255.0,255.0,255.0
434,21.700000000000003,1.3680000127582683,-2.2107575803011026e-08,-16.241000086186336,-2.815344179074556e-07,4.878439097830883e-07,1.9018584380673965e-06,1.5315814684186782e-07,-2.6539302153480985e-07,-1.034634126516844e-06,0,70,255.0,255.0,255.0
435,21.75,1.368,0.0,-16.241,-2.0625621542985064e-07,3.574015541529351e-07,1.3933291938440507e-06,2.8579699522624932e-06,-4.952301203671587e-06,-1.9306535642418127e-05,0,70,255.0,255.0,255.0
436,21.8,1.3679999929576718,1.22029733956694e-08,-16.240999952426733,-8.147652124907978e-08,1.4118282552607475e-07,5.504009430981199e-07,2.1332178149682703e-06,-3.6964479414027053e-06,-1.4410594387418624e-05,0,70,255.0,255.0,255.0
437,21.85,1.367999991248388,1.5164826937831774e-08,-16.240999940879952,7.0655660669793876e-09,-1.2243239987340626e-08,-4.7730244897832375e-08,1.4084656776740468e-06,-2.4405946791338234e-06,-9.514653132419122e-06,0,70,255.0,255.0,255.0
438,21.900000000000002,1.3679999930602684,1.2025193782159409e-08,-16.240999953119807,5.93700465183269e-08,-1.0287664238731108e-07,-4.0106437014380564e-07,6.837135403798234e-07,-1.1847414168649415e-06,-4.618711877419621e-06,0,70,255.0,255.0,255.0
439,21.950000000000003,1.3679999965814325,5.923707084324621e-09,-16.24099997690644,7.543692010496272e-08,-1.3071738167383644e-07,-5.096014326398011e-07,-4.1038596914399534e-08,7.11118454039404e-08,2.7722937757988195e-07,0,70,255.0,255.0,255.0
440,22.0,1.368,0.0,-16.241,5.5266186826889623e-08,-9.576545784692178e-08,-3.7334143238583556e-07,-7.657907342085711e-07,1.3269651076727325e-06,5.173170632579039e-06,0,70,255.0,255.0,255.0
441,22.05,1.3680000018869862,-3.2697768689795397e-09,-16.241000012747218,2.1831568710362475e-08,-3.782982413674482e-08,-1.4747948835926616e-07,-5.715939904524959e-07,9.904602407343126e-07,3.861307128483608e-06,0,70,255.0,255.0,255.0
442,22.1,1.3680000023449876,-4.063403136123227e-09,-16.24100001584117,-1.8932122183607765e-09,3.280566226510899e-09,1.2789280462530764e-08,-3.7739724669642074e-07,6.539553737958928e-07,2.549443624388177e-06,0,70,255.0,255.0,255.0
443,22.150000000000002,1.3680000018594958,-3.2221409687771365e-09,-16.24100001256151,-1.5908155959280138e-08,2.756571324284538e-08,1.0746487407955512e-07,-1.832005029403455e-07,3.17450506857473e-07,1.2375801202927453e-06,0,70,255.0,255.0,255.0
444,22.200000000000003,1.3680000009160027,-1.5872525342873385e-09,-16.2410000061879,-2.0213262512395582e-08,3.5025616912258635e-08,1.3654729249180703e-07,1.0996240815729573e-08,-1.9054360080946904e-08,-7.428338380268552e-08,0,70,255.0,255.0,255.0
445,22.25,1.368,0.0,-16.241,-1.4808531877707868e-08,2.5660277234751967e-08,1.0003653569929123e-07,2.0519298457179107e-07,-3.555592270193427e-07,-1.3861468878980246e-06,0,70,255.0,255.0,255.0
446,22.3,1.3679999994943837,8.76134080248759e-10,-16.240999996584392,-5.849753592370128e-09,1.0136471020904548e-08,3.951701033894468e-08,1.5315814684171345e-07,-2.6539302153454526e-07,-1.0346341265158028e-06,0,70,255.0,255.0,255.0
447,22.35,1.3679999993716623,1.088785606661136e-09,-16.24099999575537,5.072828064636944e-10,-8.79024918702933e-10,-3.426876952290524e-09,1.0112330911163584e-07,-1.7522681604974779e-07,-6.831213651335809e-07,0,70,255.0,255.0,255.0
448,22.400000000000002,1.3679999995017493,8.633700929491308e-10,-16.240999996634155,4.262577318793599e-09,-7.386210584070475e-09,-2.8795126174414362e-08,4.908847138155823e-08,-8.506061056495031e-08,-3.31608603751359e-07,0,70,255.0,255.0,255.0
449,22.450000000000003,1.3679999997545578,4.2530305282474436e-10,-16.240999998341955,5.416129944619585e-09,-9.385085975198083e-09,-3.6587737327426894e-08,-2.946366348519392e-09,5.105594919847105e-09,1.990415763086289e-08,0,70,255.0,255.0,255.0
450,22.5,1.368,0.0,-16.241,3.967940683941852e-09,-6.8756510920861e-09,-2.6804710411329384e-08,-5.4981204078593295e-08,9.527180040463813e-08,3.714169190130596e-07,0,70,255.0,255.0,255.0
451,22.55,1.36800000013548,-2.347594520154966e-10,-16.241000000915207,1.5674456591180353e-09,-2.7160599468733836e-09,-1.0588552996512576e-08,-4.1038596914358016e-08,7.11118454038682e-08,2.7722937757960354e-07,0,70,255.0,255.0,255.0
452,22.6,1.3680000001683634,-2.9173929052131767e-10,-16.241000001137344,-1.3591900749400755e-10,2.35533448300819e-10,9.182273466313624e-10,-2.7095989750122733e-08,4.695189040309825e-08,1.830418361461475e-07,0,70,255.0,255.0,255.0
453,22.650000000000002,1.3680000001335069,-2.3133940301938963e-10,-16.241000000901877,-1.1421533158942755e-09,1.9791290934365076e-09,7.715630618102433e-09,-1.315338258588745e-08,2.27919354023283e-08,8.885429471269147e-08,0,70,255.0,255.0,255.0
454,22.700000000000003,1.3680000000657668,-1.1395967701163944e-10,-16.241000000444274,-1.451257266082771e-09,2.5147269885336823e-09,9.803656817900635e-09,7.892245783478296e-10,-1.3680195984416338e-09,-5.333246720764559e-09,0,70,255.0,255.0,255.0
455,22.75,1.368,0.0,-16.241,-1.063230858059543e-09,1.842327133592434e-09,7.182305946026325e-09,1.4731831742582133e-08,-2.552797459920985e-08,-9.952078815421387e-08,0,70,255.0,255.0,255.0
456,22.8,1.367999999963697,6.29037278132275e-11,-16.24099999975477,-4.2002904410201534e-10,7.277687665889835e-10,2.8372016471056286e-09,1.0996240815718607e-08,-1.905436008092753e-08,-7.428338380261155e-08,0,70,255.0,255.0,255.0
457,22.85,1.367999999954884,7.817155542413482e-11,-16.240999999695248,3.639322351233341e-11,-6.310887450034647e-11,-2.4603243423493447e-10,7.260649888855082e-09,-1.2580745562645214e-08,-4.9045979451009235e-08,0,70,255.0,255.0,255.0
458,22.900000000000002,1.3679999999642232,6.198751912842818e-11,-16.24099999975834,3.060359447835032e-10,-5.30305789675555e-10,-2.0673962979953644e-09,3.525058961991556e-09,-6.107131044362896e-09,-2.3808575099406918e-08,0,70,255.0,255.0,255.0
459,22.950000000000003,1.3679999999823749,3.0535655221813946e-11,-16.240999999880955,3.8889911971149406e-10,-6.738219789366446e-10,-2.626889944175659e-09,-2.1053196487196946e-10,3.664834739194238e-10,1.4288292521953986e-09,0,70,255.0,255.0,255.0
460,23.0,1.368,0.0,-16.241,2.849827482963195e-10,-4.936574422836367e-10,-1.9245133727759176e-09,-3.946122891735232e-09,6.840097992201285e-09,2.666623360379592e-08,0,70,255.0,255.0,255.0
461,23.05,1.368000000009733,-1.6855459237413414e-11,-16.24100000006571,1.1267051729002595e-10,-1.9501511948255173e-10,-7.602535919099363e-10,-2.9463663485164124e-09,5.1055949198419456e-09,1.9904157630842675e-08,0,70,255.0,255.0,255.0
462,23.1,1.3680000000121002,-2.0946931175221603e-11,-16.241000000081662,-9.653886555325915e-12,1.690204970056506e-11,6.590239030837815e-11,-1.9466098052975927e-09,3.371091847482606e-09,1.3142081657889432e-08,0,70,255.0,255.0,255.0
463,23.150000000000002,1.3680000000096009,-1.6610673494323033e-11,-16.241000000064755,-8.199046323973613e-11,1.420940652657136e-10,5.539545738790257e-10,-9.46853262078773e-10,1.6365887751232665e-09,6.380005684936189e-09,0,70,255.0,255.0,255.0
464,23.200000000000003,1.3680000000047345,-8.18294387561619e-12,-16.241000000031896,-1.0433921276320456e-10,1.8056092721289398e-10,7.039029588020059e-10,5.290328114004661e-11,-9.791429723607302e-11,-3.820702880170553e-10,0,70,255.0,255.0,255.0
465,23.25,1.368,0.0,-16.241,-7.670013512573507e-11,1.3230263554211277e-10,5.157475450773451e-10,1.0526598243587945e-09,-1.8324173695952893e-09,-7.144146260969818e-09,0,70,255.0,255.0,255.0
466,23.3,1.3679999999973713,4.518109136426161e-12,-16.24099999998239,-3.0653025058088494e-11,5.229171134122315e-11,2.038127205341163e-10,7.892245783470423e-10,-1.3680195984402503e-09,-5.3332467207591585e-09,0,70,255.0,255.0,255.0
467,23.35,1.3679999999967152,5.616169276751597e-12,-16.240999999978108,2.2223227089702855e-12,-4.499324301914198e-12,-1.7577126998578265e-11,5.257893323352902e-10,-9.036218272852113e-10,-3.5223471805484987e-09,0,70,255.0,255.0,255.0
468,23.400000000000002,1.367999999997374,4.455174848863939e-12,-16.240999999982638,2.1925908175441284e-11,-3.8070471387299286e-11,-1.484219975207385e-10,2.623540863235381e-10,-4.3922405613017235e-10,-1.711447640337839e-09,0,70,255.0,255.0,255.0
469,23.450000000000003,1.3679999999986883,2.196120280650823e-12,-16.24099999999144,2.8457731341324473e-11,-4.842172991493205e-11,-1.887218910323645e-10,-1.081159688214077e-12,2.5173715024866634e-11,9.945189987282087e-11,0,70,255.0,255.0,255.0
470,23.5,1.368,0.0,-16.241,2.1817792206620825e-11,-3.5553099884814365e-11,-1.3847680753346296e-10,-2.645164056999474e-10,4.895714861798722e-10,1.9103514400833537e-09,0,70,255.0,255.0,255.0
471,23.55,1.3680000000007828,-1.2169773082912273e-12,-16.241000000004735,9.941582942328017e-12,-1.4151725882340854e-11,-5.499729022652901e-11,-2.1053196487175817e-10,3.664834739190561e-10,1.4288292521939569e-09,0,70,255.0,255.0,255.0
472,23.6,1.3680000000010393,-1.5177459317847884e-12,-16.2410000000059,7.645957194447109e-13,1.095247507091763e-12,4.406117685934762e-12,-1.5654752404356893e-10,2.4339546165824003e-10,9.4730706430456e-10,0,70,255.0,255.0,255.0
473,23.650000000000002,1.3680000000009043,-1.2100259011327313e-12,-16.2410000000047,-5.713169462029096e-12,1.0187820283483489e-11,3.9733416203928335e-11,-1.0256308321537969e-10,1.2030744939742388e-10,4.657848764151633e-10,0,70,255.0,255.0,255.0
474,23.700000000000003,1.3680000000005128,-6.015372469871072e-13,-16.24100000000233,-9.491712602093401e-12,1.3125992446834318e-11,5.098460532745178e-11,-4.8578642387190456e-11,-2.7805628633921664e-12,-1.5737311474233548e-11,0,70,255.0,255.0,255.0
475,23.75,1.368,0.0,-16.241,-1.0571033700748226e-11,9.909763997144706e-12,3.815968505650672e-11,5.405798440995008e-12,-1.2586857512419958e-10,-4.972594993635959e-10,0,70,255.0,255.0,255.0
476,23.8,1.367999999999498,3.498000967387493e-13,-16.240999999998664,-9.113306711223575e-12,4.315192188140286e-12,1.6176440371999784e-11,5.2903281139990166e-11,-9.791429723597402e-11,-3.8207028801666895e-10,0,70,255.0,255.0,255.0
477,23.85,1.3679999999991284,4.548144503875566e-13,-16.240999999998287,-5.280705586749135e-12,1.183342735471643e-13,-4.7343745160719395e-14,1.0040076383898532e-10,-6.996001934774846e-11,-2.6688107666974197e-10,0,70,255.0,255.0,255.0
478,23.900000000000002,1.3679999999990096,3.8492875566698776e-13,-16.240999999998575,9.267696726750997e-13,-2.680809746634658e-12,-1.0511667294974798e-11,1.478982465379805e-10,-4.2005741459522905e-11,-1.51691865322815e-10,0,70,255.0,255.0,255.0
479,23.950000000000003,1.3679999999992605,2.1002870729760872e-13,-16.24099999999924,9.509119067049123e-12,-4.082239872405186e-12,-1.5216530277442433e-11,1.9539572923697564e-10,-1.4051463571297347e-11,-3.650265397588807e-11,0,70,255.0,255.0,255.0
480,24.0,1.368,0.0,-16.241,2.0466342596372076e-11,-4.085956103764464e-12,-1.416193269256394e-11,2.4289321193596753e-10,1.3902814316926207e-11,7.868655737103069e-11,0,70,255.0,255.0,255.0
481,24.05,1.3680000000012253,-1.8222307866377028e-13,-16.2410000000006,2.651164390256629e-11,-3.1090428702202934e-12,-9.708471261470123e-12,-1.0811596882024448e-12,2.517371502484007e-11,9.945189987271948e-11,0,70,255.0,255.0,255.0
482,24.1,1.3680000000024477,-3.015118697654386e-13,-16.241000000000955,2.035822662755183e-11,-1.5685846012804213e-12,-4.2167427052918504e-12,-2.450555313123724e-10,3.644461573275393e-11,1.2021724237440828e-10,0,70,255.0,255.0,255.0
483,24.150000000000002,1.3680000000030579,-3.2968912153521944e-13,-16.241000000001005,2.0060907713286986e-12,5.354187030551522e-13,2.3132529759708768e-12,-4.890299029365423e-10,4.77155164406678e-11,1.4098258487609708e-10,0,70,255.0,255.0,255.0
484,24.200000000000003,1.3680000000024453,-2.3857758220332737e-13,-16.241000000000703,-2.85447636661031e-11,3.2029670427864264e-12,9.881515782318058e-12,-7.330042745607124e-10,5.898641714858166e-11,1.6174792737778588e-10,0,70,255.0,255.0,255.0
485,24.25,1.368,0.0,-16.241,-7.129433668474009e-11,6.434060417913152e-12,1.8488045713749046e-11,-9.769786461848644e-10,7.025731785649471e-11,1.8251326987947318e-10,0,70,255.0,255.0,255.0
486,24.3,1.367999999995601,3.790922179163318e-13,-16.24099999999893,-9.693326889904156e-11,8.120979292740888e-12,2.265744467388071e-11,-4.8578642387180064e-11,-2.7805628633862857e-12,-1.5737311474208965e-11,0,70,255.0,255.0,255.0
487,24.35,1.3679999999910804,7.512330286741977e-13,-16.2409999999979,-7.615220092345816e-11,6.1560041315745195e-12,1.6914314566328126e-11,8.798213614105043e-10,-7.581844358326728e-11,-2.139878928278911e-10,0,70,255.0,255.0,255.0
488,24.400000000000002,1.3679999999887595,9.3382773047389e-13,-16.240999999997403,-8.951132757989862e-12,5.391349344140484e-13,1.2586553910912939e-12,1.8082213652081885e-09,-1.4885632430314827e-10,-4.122384741815733e-10,0,70,255.0,255.0,255.0
489,24.450000000000003,1.3679999999909591,7.442816215157011e-13,-16.24099999999794,1.046699355973633e-10,-8.729628298740518e-12,-2.4309532851829786e-11,2.736621369005873e-09,-2.218942050230293e-10,-6.104890555352554e-10,0,70,255.0,255.0,255.0
490,24.5,1.368,0.0,-16.241,2.6471100414258825e-10,-2.1650285567888145e-11,-5.979025016243224e-11,3.6650213728034912e-09,-2.949320857429051e-10,-8.087396368889232e-10,0,70,255.0,255.0,255.0
491,24.55,1.3680000000163712,-1.334145793001557e-12,-16.241000000003677,3.612214316936e-10,-2.937487430074326e-11,-8.09213074340527e-11,1.9539572923692317e-10,-1.405146357129497e-11,-3.650265397588357e-11,0,70,255.0,255.0,255.0
492,24.6,1.3680000000332309,-2.7034202449313526e-12,-16.241000000007446,2.842505770662809e-10,-2.3055431925017656e-11,-6.344051556002065e-11,-3.274229914329645e-09,2.6682915860031515e-10,7.357343289371561e-10,0,70,255.0,255.0,255.0
493,24.650000000000002,1.368000000041905,-3.405621800360341e-12,-16.24100000000938,3.379844026063076e-11,-2.691958440711347e-12,-7.347874540336044e-12,-6.743855557896213e-09,5.477097807719254e-10,1.5079713118501958e-09,0,70,255.0,255.0,255.0
494,24.700000000000003,1.3680000000337194,-2.738548903859477e-12,-16.241000000007542,-3.9013497872334995e-10,3.1715546152175663e-11,8.735661562500109e-11,-1.0213481201462781e-08,8.285904029435354e-10,2.2802082947632356e-09,0,70,255.0,255.0,255.0
495,24.75,1.368,0.0,-16.241,-9.87549679885613e-10,8.016708185363943e-11,2.206729549359799e-10,-1.3683106845029102e-08,1.1094710251151256e-09,3.0524452776762203e-09,0,70,255.0,255.0,255.0
496,24.8,1.3679999999389147,4.957490954089896e-12,-16.240999999986354,-1.3479524578753584e-09,1.0937851791023214e-10,3.0102778506233013e-10,-7.330042745605156e-10,5.898641714856594e-11,1.6174792737774344e-10,0,70,255.0,255.0,255.0
497,24.85,1.3679999998759966,1.006244795105121e-11,-16.240999999972306,-1.0608501073416657e-09,8.606572356849611e-11,2.3684774767375447e-10,1.2217098295908071e-08,-9.914981908179937e-10,-2.7289494229207335e-09,0,70,255.0,255.0,255.0
498,24.900000000000002,1.3679999998436214,1.268865947096747e-11,-16.24099999996508,-1.262426282845338e-10,1.0228698828431346e-11,2.813284277025281e-11,2.516720086637666e-08,-2.0419827987845533e-09,-5.6196467732192095e-09,0,70,255.0,255.0,255.0
499,24.950000000000003,1.3679999998741639,1.0209913993922198e-11,-16.2409999999719,1.4558699792960364e-09,-1.1813255630996214e-10,-3.2511692964817453e-10,3.811730343684524e-08,-3.092467406751113e-09,-8.510344123517688e-09,0,70,255.0,255.0,255.0
500,25.0,1.368,0.0,-16.241,3.6854877153998638e-09,-2.990180418466696e-10,-8.229015695814873e-10,5.1067406007312906e-08,-4.142952014717597e-09,-1.1401041473815954e-08,0,70,255.0,255.0,255.0
501,25.05,1.3680000002279709,-1.8495818023358027e-11,-16.241000000050896,5.0305883998078335e-09,-4.081391973401852e-10,-1.1231898328152676e-09,2.7366213690051272e-09,-2.218942050229687e-10,-6.104890555350887e-10,0,70,255.0,255.0,255.0
502,25.1,1.3680000004627832,-3.754637155927349e-11,-16.24100000010333,3.959149852300379e-09,-3.2120746234896673e-10,-8.839504751349969e-10,-4.559416326930265e-08,3.6991636046716594e-09,1.0180063362745777e-08,0,70,255.0,255.0,255.0
503,25.150000000000002,1.3680000005836102,-4.734901608350954e-11,-16.241000000130303,4.711720728775021e-10,-3.822283687301392e-11,-1.0518349654067538e-10,-9.392494790761044e-08,7.620221414366287e-09,2.097061578102664e-08,0,70,255.0,255.0,255.0
504,25.200000000000003,1.3680000004696249,-3.810110707182934e-11,-16.24100000010485,-5.433344938460799e-09,4.4081467908767294e-10,1.213111102967697e-09,-1.4225573254591822e-07,1.1541279224060916e-08,3.1761168199307504e-08,0,70,255.0,255.0,255.0
505,25.25,1.368,0.0,-16.241,-1.3754401181713842e-08,1.1159050855330388e-09,3.070933323389969e-09,-1.905865171842225e-07,1.5462337033755263e-08,4.255172061758759e-08,0,70,255.0,255.0,255.0
506,25.3,1.3679999991492022,6.902578113934221e-11,-16.24099999981004,-1.8774401141355974e-08,1.523178271450509e-09,4.19173154619874e-09,-1.0213481201459995e-08,8.285904029433109e-10,2.280208294762613e-09,0,70,255.0,255.0,255.0
507,25.35,1.3679999982728708,1.401230382860427e-10,-16.240999999614388,-1.4775749301859853e-08,1.198764125827371e-09,3.2989541528662335e-09,1.701595547813025e-07,-1.3805156227868642e-08,-3.7991304028062364e-08,0,70,255.0,255.0,255.0
508,25.400000000000002,1.3679999978219384,1.7670740486307066e-10,-16.240999999513708,-1.758445663225482e-09,1.4266264866362522e-10,3.926011433924482e-10,3.5053259076406504e-07,-2.8438902858680593e-08,-7.826281635088735e-08,0,70,255.0,255.0,255.0
509,25.450000000000003,1.3679999982473372,1.4219451429339508e-10,-16.240999999608686,2.0277509774547147e-08,-1.645126160040729e-09,-4.527327482222613e-09,5.309056267468275e-07,-4.307264948949255e-08,-1.1853432867371232e-07,0,70,255.0,255.0,255.0
510,25.5,1.368,0.0,-16.241,5.13321170114555e-08,-4.164602300285486e-09,-1.1460831723978388e-08,7.112786627295773e-07,-5.770639612030348e-08,-1.5880584099653448e-07,0,70,255.0,255.0,255.0
511,25.55,1.3680000031752204,-2.5760730653401083e-10,-16.241000000708926,7.006701616561607e-08,-5.684573888461852e-09,-1.5643736351979694e-08,3.811730343683499e-08,-3.0924674067502824e-09,-8.510344123515395e-09,0,70,255.0,255.0,255.0
512,25.6,1.368000006445734,-5.229457815848976e-10,-16.241000001439126,5.514384735513903e-08,-4.473849040960519e-09,-1.2311866136329938e-08,-6.350440558559073e-07,5.152146130680292e-08,1.4178515274950369e-07,0,70,255.0,255.0,255.0
513,25.650000000000002,1.3680000081286372,-6.594806033687733e-10,-16.241000001814868,6.562610580024411e-09,-5.324277577814842e-10,-1.4652210770291245e-09,-1.30820541514865e-06,1.0613539002035611e-07,2.9208064962252277e-07,0,70,255.0,255.0,255.0
514,25.700000000000003,1.3680000065410272,-5.306769501017512e-10,-16.2410000014604,-7.567669415972778e-08,6.139689961075247e-09,1.6896198825922754e-08,-1.981366774441392e-06,1.607493187339093e-07,4.4237614649554187e-07,0,70,255.0,255.0,255.0
515,25.75,1.368,0.0,-16.241,-1.9157406686410815e-07,1.5542504115608906e-08,4.277239357252358e-08,-2.6545281337340862e-06,2.1536324744745854e-07,5.926716433685504e-07,0,70,255.0,255.0,255.0
516,25.8,1.3679999881499167,9.614034449967012e-10,-16.24099999735425,-2.6149366352110827e-07,2.1215117282396896e-08,5.838321386172004e-08,-1.4225573254587995e-07,1.154127922405778e-08,3.1761168199299034e-08,0,70,255.0,255.0,255.0
517,25.85,1.3679999759441939,1.9516600880535473e-09,-16.240999994629103,-2.0579964011869634e-07,1.6696632038014695e-08,4.594851039245352e-08,2.3700166686423263e-06,-1.9228068899934298e-07,-5.291493069699523e-07,0,70,255.0,255.0,255.0
518,25.900000000000002,1.3679999696635132,2.461215008612023e-09,-16.240999993226826,-2.4491996656872268e-08,1.9870483824623205e-09,5.468283164724033e-09,4.882289069830533e-06,-3.9610265722274373e-07,-1.090059782139204e-06,0,70,255.0,255.0,255.0
519,25.950000000000003,1.3679999755885548,1.9805132861136096e-09,-16.2409999945497,2.82429266864364e-07,-2.291363368426025e-08,-6.305746782146841e-08,7.394561471018739e-06,-5.999246254461445e-07,-1.650970257308455e-06,0,70,255.0,255.0,255.0
520,26.0,1.368,0.0,-16.241,7.14964150444977e-07,-5.800541416215013e-08,-1.5962874256611595e-07,9.906833872206765e-06,-8.03746593669531e-07,-2.2118807324776664e-06,0,70,255.0,255.0,255.0
521,26.05,1.3680000442251132,-3.588006473452794e-09,-16.24100000987406,9.75907637918817e-07,-7.917589524112573e-08,-2.1788911909490044e-07,5.309056267466834e-07,-4.307264948948091e-08,-1.1853432867368026e-07,0,70,255.0,255.0,255.0
522,26.1,1.3680000897774904,-7.283694570629293e-09,-16.241000020044456,7.68054713119646e-07,-6.231267911109828e-08,-1.7148217543348412e-07,-8.845022618713398e-06,7.176012946905692e-07,1.974812075130306e-06,0,70,255.0,255.0,255.0
523,26.150000000000002,1.368000113217311,-9.185379431079319e-09,-16.24100002527782,9.140537604746402e-08,-7.415765772067791e-09,-2.0407911581866955e-08,-1.822095086417348e-05,1.4782752388706193e-06,4.068158478934292e-06,0,70,255.0,255.0,255.0
524,26.200000000000003,1.3680000911047545,-7.39137619435269e-09,-16.241000020340792,-1.054040373297728e-06,8.551484477596574e-08,2.3533367245995092e-07,-2.759687910963356e-05,2.2389491830506696e-06,6.161504882738278e-06,0,70,255.0,255.0,255.0
525,26.25,1.368,0.0,-16.241,-2.6682825349157996e-06,2.1647915253299163e-07,5.957425766919402e-07,-3.697280735509299e-05,2.9996231272306646e-06,8.254851286542112e-06,0,70,255.0,255.0,255.0
526,26.3,1.3679998349496312,1.3390622448814473e-08,-16.240999963149505,-3.6421368881541594e-06,2.9548846368210604e-07,8.131732625178816e-07,-1.9813667744408563e-06,1.6074931873386593e-07,4.4237614649542096e-07,0,70,255.0,255.0,255.0
527,26.35,1.3679996649458452,2.7183118194463618e-08,-16.24099992519307,-2.8664192123598882e-06,2.325540844063785e-07,6.399801913414829e-07,3.3010073806211276e-05,-2.6781244897629328e-06,-7.37009899355127e-06,0,70,255.0,255.0,255.0
528,26.400000000000002,1.3679995774672438,3.4280302715705244e-08,-16.240999905661884,-3.4112950753298574e-07,2.767601470580893e-08,7.616336316274381e-08,6.80015143868634e-05,-5.516998298259731e-06,-1.5182574133597961e-05,0,70,255.0,255.0,255.0
529,26.450000000000003,1.367999659992428,2.7584991491297148e-08,-16.24099992408713,3.933732226326548e-06,-3.191457454196025e-07,-8.782772220183352e-07,0.00010299295496751554,-8.35587210675653e-06,-2.2995049273644653e-05,0,70,255.0,255.0,255.0
530,26.5,1.368,0.0,-16.241,9.958165989218222e-06,-8.079111959698163e-07,-2.2233415642016446e-06,0.00013798439554816514,-1.1194745915253126e-05,-3.0807524413690795e-05,0,70,255.0,255.0,255.0
531,26.55,1.3680006159763631,-4.997448332180509e-08,-16.24100013752792,1.3592639914697821e-05,-1.102777959487298e-06,-3.0348039309766262e-06,7.394561471016738e-06,-5.999246254459822e-07,-1.650970257308009e-06,0,70,255.0,255.0,255.0
532,26.6,1.36800125043913,-1.0144877820722518e-07,-16.241000279183265,1.0697622136319906e-05,-8.679036585144151e-07,-2.3884385899324477e-06,-0.00012319527260613167,9.994896664361162e-06,2.7505583899074777e-05,0,70,255.0,255.0,255.0
533,26.650000000000002,1.368001576913715,-1.2793583143174168e-07,-16.241000352074646,1.273112654084479e-06,-1.032882930511677e-07,-2.842455410691091e-07,-0.00025378510668328007,2.0589717954168304e-05,5.666213805545756e-05,0,70,255.0,255.0,255.0
534,26.700000000000003,1.3680012689255334,-1.0294858977083584e-07,-16.24100028331069,-1.4680888532008463e-05,1.1910681369024454e-06,3.2777752156133897e-06,-0.0003843749407604285,3.1184539243975446e-05,8.581869221184035e-05,0,70,255.0,255.0,255.0
535,26.75,1.368,0.0,-16.241,-3.716438142195709e-05,3.0151656313462733e-06,8.297623680114639e-06,-0.0005149647748375675,4.177936053378183e-05,0.00011497524636822109,0,70,255.0,255.0,255.0
536,26.8,1.3679977011449171,1.865073108384059e-07,-16.24099948673882,-5.072842277063711e-05,4.115623374267086e-06,1.1326042461388624e-05,-2.7596879109626036e-05,2.238949183050058e-06,6.161504882736622e-06,0,70,255.0,255.0,255.0
537,26.85,1.3679953332976362,3.7861199463443716e-07,-16.240998958073874,-3.992406933291973e-05,3.239060549651282e-06,8.913774168388308e-06,0.00045977101661831543,-3.7301462167681717e-05,-0.00010265223660274784,0,70,255.0,255.0,255.0
538,26.900000000000002,1.3679941148778967,4.774630230112613e-07,-16.240998686039518,-4.751321108804906e-06,3.8547715749886005e-07,1.060818801113693e-06,0.0009471389123462568,-7.684187351841349e-05,-0.0002114659780882323,0,70,255.0,255.0,255.0
539,26.950000000000003,1.3679952643054383,3.8420936759204644e-07,-16.24099894267011,5.4789821901707304e-05,-4.445126802190178e-06,-1.2232823640435227e-05,0.0014345068080741984,-0.00011638228486914527,-0.0003202797195737168,0,70,255.0,255.0,255.0
540,27.0,1.368,0.0,-16.241,0.0001386993596986101,-1.1252751329415277e-05,-3.096715315625691e-05,0.001921874703802105,-0.00015592269621987425,-0.0004290934610591935,0,70,255.0,255.0,255.0
541,27.05,1.3680085794439696,-6.960547600318185e-07,-16.241001915516815,0.00018932105116785066,-1.5359715537581046e-05,-4.226936591457787e-05,0.00010299295496748757,-8.355872106754282e-06,-2.299504927363844e-05,0,70,255.0,255.0,255.0
542,27.1,1.3680174163703263,-1.4129992003305232e-06,-16.24100388852125,0.00014899865519535903,-1.2088338540090716e-05,-3.326665808362078e-05,-0.0017158887938671299,0.00013921095200636568,0.0003831033625119166,0,70,255.0,255.0,255.0
543,27.150000000000002,1.3680219635746982,-1.781916260613304e-06,-16.24100490376728,1.7732171781135173e-05,-1.4386203369442767e-06,-3.95902966338566e-06,-0.0035347705427017477,0.0002867777761194856,0.0007892017742974717,0,70,255.0,255.0,255.0
544,27.200000000000003,1.3680176738527137,-1.43388888059735e-06,-16.24100394600887,-0.00020447839907482073,1.6589439071858264e-05,4.565351934612752e-05,-0.005353652291536365,0.0004343446002326056,0.0011953001860830269,0,70,255.0,255.0,255.0
545,27.25,1.368,0.0,-16.241,-0.0005176330573724834,4.199583968631483e-05,0.00011557098894491301,-0.007172534040370854,0.0005819114243457151,0.0016013985978685528,0,70,255.0,255.0,255.0
546,27.3,1.3679615810792058,2.5977117292888673e-06,-16.240992051193935,-0.0010905557819008407,5.732323877605709e-05,0.00020575142119681238,-0.01574437494076311,3.1184539243967043e-05,0.00200581869220737,0,70,255.0,255.0,255.0
547,27.35,1.3678838012210595,5.273384806687655e-06,-16.240979087841136,-0.0020920705514488173,4.5114293610711565e-05,0.0003161528581656528,-0.024316215841155373,-0.000519542345857781,0.0024102387865461866,0,70,255.0,255.0,255.0
548,27.400000000000002,1.3677452308233105,6.650202019441953e-06,-16.24096009889137,-0.003522177366016413,5.369004190278247e-06,0.00044677529985143443,-0.032888056741547635,-0.001070269230959529,0.0028146588808850037,0,70,255.0,255.0,255.0
549,27.450000000000003,1.367524440283708,5.35134615479735e-06,-16.240934073294405,-0.0053808762256036275,-6.191262948524286e-05,0.0005976187462541572,-0.04145989764193989,-0.001620996116061277,0.0032190789752238203,0,70,255.0,255.0,255.0
550,27.5,1.3672,0.0,-16.2409,-0.007668167130210284,-0.00015673060741584405,0.0007686831973738082,-0.05003173854233156,-0.002171723001162986,0.003623499069562609,0,70,255.0,255.0,255.0
551,27.55,1.3667554962392074,-1.0494792157123686e-05,-16.240857079707457,-0.010083097923566726,-0.00026193323956664875,0.0009472636811233094,-0.04656549319192476,-0.002036382284869141,0.0035197202804173387,0,70,255.0,255.0,255.0
552,27.6,1.3661945787454353,-2.6080540026420372e-05,-16.240805360114212,-0.012324716449402825,-0.0003603688359027611,0.001120655225415547,-0.04309924784151797,-0.0019010415685752967,0.003415941491272068,0,70,255.0,255.0,255.0
553,27.650000000000002,1.3655259131320592,-4.641889181715543e-05,-16.24074510066724,-0.014393022707718585,-0.0004520373964241811,0.0012888578302505211,-0.039633002491111166,-0.0017657008522814518,0.003312162702126798,0,70,255.0,255.0,255.0
