idx,t,px,py,pz,vx,vy,vz,ax,ay,az,yaw,mode,ledr,ledg,ledb
0,0.0,1.5,0.0,0.0,-5.597418574213262e-19,-6.910071769078773e-92,0.019030436778708193,6.716902289055914e-18,8.292086122894528e-91,-0.5155652413444983,0,70,255.0,255.0,255.0
1,0.05,1.5,-2.487625836868358e-93,0.00030909572403349495,-2.5748125441381e-19,-3.178633013776236e-92,-0.006625999081794231,5.373521831244731e-18,6.633668898315622e-91,-0.5106921930755987,0,70,255.0,255.0,255.0
2,0.1,1.5,-3.3168344491578106e-93,-0.000658539034622007,-2.2389674296853037e-20,-2.7640287076315105e-93,-0.03203878252885167,4.030141373433548e-18,4.975251673736716e-91,-0.505819144806699,0,70,255.0,255.0,255.0
3,0.15000000000000002,1.5,-2.9022301430130846e-93,-0.002890721655294257,1.455328829295448e-19,1.796618659960481e-92,-0.05720791356246414,2.6867609156223652e-18,3.3168344491578107e-91,-0.5009460965377992,0,70,255.0,255.0,255.0
4,0.2,1.5,-1.6584172245789034e-93,-0.006375269517311004,2.462864172653835e-19,3.040431578394659e-92,-0.08213339218263159,1.3433804578111822e-18,1.6584172245789053e-91,-0.49607304826889953,0,70,255.0,255.0,255.0
5,0.25,1.5,0.0,-0.0111,2.798709287106631e-19,3.4550358845393866e-92,-0.1068152183893541,0.0,0.0,-0.4912000000000001,0,70,255.0,255.0,255.0
6,0.30000000000000004,1.5,1.658417224578907e-93,-0.017052730482689002,2.462864172653835e-19,3.0404315783946595e-92,-0.13125339218263163,-1.343380457811184e-18,-1.658417224578907e-91,-0.48632695173110047,0,70,255.0,255.0,255.0
7,0.35000000000000003,1.5,2.902230143013085e-93,-0.02422127834470575,1.4553288292954472e-19,1.79661865996048e-92,-0.15544791356246415,-2.6867609156223668e-18,-3.3168344491578123e-91,-0.48145390346220085,0,70,255.0,255.0,255.0
8,0.4,1.5,3.3168344491578115e-93,-0.032593460965378,-2.2389674296853133e-20,-2.7640287076315207e-93,-0.1793987825288517,-4.030141373433549e-18,-4.975251673736717e-91,-0.4765808551933012,0,70,255.0,255.0,255.0
9,0.45,1.5,2.487625836868358e-93,-0.042157095724033505,-2.5748125441381017e-19,-3.178633013776237e-92,-0.20310599908179428,-5.373521831244732e-18,-6.633668898315622e-91,-0.47170780692440156,0,70,255.0,255.0,255.0
10,0.5,1.5,0.0,-0.0529,-5.597418574213262e-19,-6.910071769078773e-92,-0.22656956322129185,-6.716902289055915e-18,-8.292086122894527e-91,-0.4668347586555024,0,70,255.0,255.0,255.0
11,0.55,1.5,-4.146043061447268e-93,-0.06480937379327753,-7.276644146477241e-19,-8.983093299802403e-92,-0.24975243218767942,6.162975822039155e-33,7.630264033294606e-106,-0.4604799999999999,0,70,255.0,255.0,255.0
12,0.6000000000000001,1.5,-8.292086122894535e-93,-0.07786994758655505,-5.597418574213255e-19,-6.910071769078766e-92,-0.2726175632212919,6.716902289055927e-18,8.292086122894542e-91,-0.45412524134449744,0,70,255.0,255.0,255.0
13,0.65,1.5,-1.0365107653618158e-92,-0.09206583448319379,-5.597418574213259e-20,-6.910071769078754e-93,-0.2951649563221292,1.3433804578111835e-17,1.658417224578906e-90,-0.44777048268899494,0,70,255.0,255.0,255.0
14,0.7000000000000001,1.5,-8.292086122894521e-93,-0.10738114758655504,7.836386003898582e-19,9.674100476710302e-92,-0.3173946114901913,2.0150706867167755e-17,2.4876258368683595e-90,-0.44141572403349244,0,70,255.0,255.0,255.0
15,0.75,1.5,0.0,-0.1238,1.959096500974642e-18,2.4185251191775705e-91,-0.3393065287254784,2.686760915622366e-17,3.3168344491578115e-90,-0.43506096537799177,0,70,255.0,255.0,255.0
16,0.8,1.5,1.4925755021210164e-92,-0.14130657434420096,2.664371241325513e-18,3.2891941620814964e-91,-0.36090487906665075,1.3433804578111607e-18,1.6584172245788814e-91,-0.42887304826890027,0,70,255.0,255.0,255.0
17,0.8500000000000001,1.5,3.0266114348565057e-92,-0.1598853313090742,2.093434546755758e-18,2.584366841635459e-91,-0.38219383355236847,-2.418084824060134e-17,-2.9851510042420353e-90,-0.42268513115980877,0,70,255.0,255.0,255.0
18,0.9,1.5,3.814359616531484e-92,-0.1795208011018469,2.462864172653834e-19,3.040431578394655e-92,-0.40317339218263154,-4.970507693901379e-17,-6.136143730941952e-90,-0.41649721405071727,0,70,255.0,255.0,255.0
19,0.9500000000000001,1.5,3.068071865470973e-92,-0.20019751392974644,-2.877073147145623e-18,-3.551776889306496e-91,-0.4238435549574402,-7.522930563742629e-17,-9.287136457641875e-90,-0.41030929694162577,0,70,255.0,255.0,255.0
20,1.0,1.5,0.0,-0.2219,-7.276644146477242e-18,-8.983093299802405e-91,-0.4442043218767942,-1.0075353433583875e-16,-1.2438129184341792e-89,-0.4041213798325365,0,70,255.0,255.0,255.0
21,1.05,1.5,-5.5556977023393395e-92,-0.24461232882991865,-9.929820550654328e-18,-1.2258467318345743e-90,-0.4642280515457177,-5.373521831244655e-18,-6.633668898315525e-91,-0.3968278069244028,0,70,255.0,255.0,255.0
22,1.1,1.5,-1.1277237127136565e-91,-0.26831672717714833,-7.813996329601707e-18,-9.646460189633958e-91,-0.4838871025692345,9.000649067334944e-17,1.1111395404678686e-89,-0.38953423401626913,0,70,255.0,255.0,255.0
23,1.1500000000000001,1.5,-1.4220927700764116e-91,-0.29299496110941875,-9.291714833193764e-19,-1.1470719136670448e-91,-0.5031814749473447,1.8538650317794354e-16,2.2886157699188925e-89,-0.3822406611081354,0,70,255.0,255.0,255.0
24,1.2000000000000002,1.5,-1.1443078849594426e-91,-0.3186287966944594,1.0724653988192666e-17,1.3239697509554987e-90,-0.5221111686800481,2.8076651568253765e-16,3.4660919993699165e-89,-0.3749470882000017,0,70,255.0,255.0,255.0
25,1.25,1.5,0.0,-0.3452,2.7147480084934326e-17,3.351384808003205e-90,-0.5406761837673448,3.761465281871312e-16,4.6435682288209355e-89,-0.3676535152918703,0,70,255.0,255.0,255.0
26,1.3,1.5,2.073021530723634e-91,-0.3726913103361245,3.70549109612918e-17,4.574467511130147e-90,-0.5589349147504789,2.0150706867167413e-17,2.487625836868322e-90,-0.36269572403349243,0,70,255.0,255.0,255.0
27,1.35,1.5,4.2082337073689764e-91,-0.4010893599823326,2.916255077165107e-17,3.6001473916900362e-90,-0.5769457561706941,-3.358451144527964e-16,-4.146043061447271e-89,-0.35773793277511456,0,70,255.0,255.0,255.0
28,1.4000000000000001,1.5,5.306935118652497e-91,-0.4303817544604786,3.470399516012128e-18,4.2842444968287245e-91,-0.5947087080279904,-6.918409357727601e-16,-8.540848706581376e-89,-0.3527801415167367,0,70,255.0,255.0,255.0
29,1.4500000000000002,1.5,4.270424353290673e-91,-0.4605560992924164,-4.002154280562499e-17,-4.940701314891344e-90,-0.6122237703223679,-1.047836757092724e-15,-1.2935654351715478e-88,-0.34782235025835884,0,70,255.0,255.0,255.0
30,1.5,1.5,0.0,-0.4916,-1.0131327619326006e-16,-1.250722990203258e-89,-0.6294909430538264,-1.4038325784126865e-15,-1.7330459996849563e-88,-0.34286455899998547,0,70,255.0,255.0,255.0
31,1.55,1.5,-7.736516352660602e-91,-0.5235000298255836,-1.3828982329451288e-16,-1.7072023312686017e-89,-0.6464482894523668,-7.522930563742522e-17,-9.287136457641708e-90,-0.335429296941628,0,70,255.0,255.0,255.0
32,1.6,1.5,-1.570521111676225e-90,-0.5562386328935215,-1.0883620675700256e-16,-1.3435943547796753e-89,-0.6630338727479892,1.253373967137836e-15,1.5473032705321222e-88,-0.32799403488327045,0,70,255.0,255.0,255.0
33,1.6500000000000001,1.5,-1.9805647704533588e-90,-0.5897972210486674,-1.2952426580729146e-17,-1.598990607364784e-90,-0.6792476929406939,2.5819772399130974e-15,3.187477905640661e-88,-0.32055877282491296,0,70,255.0,255.0,255.0
34,1.7000000000000002,1.5,-1.5937389528203253e-90,-0.6241572061358754,1.493615172343074e-16,1.8438835508609886e-89,-0.6950897500304805,3.910580512688359e-15,4.8276525407492007e-88,-0.3131235107665555,0,70,255.0,255.0,255.0
35,1.75,1.5,0.0,-0.6593,3.7810562468810594e-16,4.6677534800127114e-89,-0.7105600440173493,5.239183785463615e-15,6.467827175857731e-88,-0.3056882487081998,0,70,255.0,255.0,255.0
36,1.8,1.5,2.8873043879918777e-90,-0.6952077703615409,5.161043822167597e-16,6.371362573961393e-89,-0.7257039274400544,2.8076651568253336e-16,3.46609199936985e-89,-0.30006708820000244,0,70,255.0,255.0,255.0
37,1.85,1.5,5.861261075968001e-90,-0.731865708443582,4.061822762563592e-16,5.014362679949698e-89,-0.7405667528373496,-4.6776507540985486e-15,-5.774608775983761e-88,-0.2944459276918051,0,70,255.0,255.0,255.0
38,1.9000000000000001,1.5,7.391565569948181e-90,-0.7692597613448525,4.833930680690448e-17,5.967537979776267e-90,-0.755148520209235,-9.636068023879629e-15,-1.1895826751904506e-87,-0.2888247671836078,0,70,255.0,255.0,255.0
39,1.9500000000000002,1.4999999999999998,5.947913375952236e-90,-0.8073758761640821,-5.574245261316047e-16,-6.881464071954819e-89,-0.7694492295557104,-1.4594485293660712e-14,-1.8017044727825254e-87,-0.28320360667541045,0,70,255.0,255.0,255.0
40,2.0,1.5,0.0,-0.8462,-1.4111092225591637e-15,-1.7420290929847587e-88,-0.7834688808767759,-1.9552902563441772e-14,-2.4138262703745977e-87,-0.27758244616721317,0,70,255.0,255.0,255.0
41,2.0500000000000003,1.5,-1.0775565916701503e-89,-0.8857176887282526,-1.9261277055725265e-15,-2.3778247964576973e-88,-0.7971840007874154,-1.0478367570926254e-15,-1.2935654351714284e-88,-0.2710223502583618,0,70,255.0,255.0,255.0
42,2.1,1.4999999999999998,-2.187452319219578e-89,-0.9259129333321509,-1.5158928982684347e-15,-1.871385636501912e-88,-0.8105711159026121,1.7457229049256357e-14,2.1551131833402915e-87,-0.2644622543495105,0,70,255.0,255.0,255.0
43,2.15,1.4999999999999998,-2.7585697509339367e-89,-0.9667693335719229,-1.8040480064689696e-16,-2.2271161311741387e-89,-0.8236302262223663,3.596229485560534e-14,4.439582910197726e-87,-0.25790215844065917,0,70,255.0,255.0,255.0
44,2.2,1.4999999999999998,-2.2197914550988607e-89,-1.008270489207797,2.0803365872921103e-15,2.568197273695828e-88,-0.836361331746678,5.446736066195449e-14,6.724052637055181e-87,-0.2513420625318078,0,70,255.0,255.0,255.0
45,2.25,1.5,0.0,-1.0504,5.266331265548549e-15,6.501341023937765e-88,-0.8487644324755472,7.297242646830347e-14,9.008522363912617e-87,-0.24478196662296092,0,70,255.0,255.0,255.0
46,2.3000000000000003,1.5000000000000002,4.0214959278814125e-89,-1.0931414747254495,7.188406440073347e-15,8.874162928434651e-88,-0.8608400694102852,3.910580512688e-15,4.8276525407487453e-88,-0.2382435107665582,0,70,255.0,255.0,255.0
47,2.35,1.5000000000000007,8.163683169281514e-89,-1.136478558227815,5.65738931681738e-15,6.984106278012677e-88,-0.872588783552203,-6.515126544292687e-14,-8.0429918557627895e-87,-0.23170505491015553,0,70,255.0,255.0,255.0
48,2.4000000000000004,1.500000000000001,1.0295122446740935e-88,-1.1803949043674562,6.732798957806242e-16,8.311710726718135e-89,-0.8840105749013009,-1.3421311139854234e-13,-1.6568748965600534e-86,-0.2251665990537528,0,70,255.0,255.0,255.0
49,2.45,1.5000000000000009,8.284374482800222e-89,-1.2248741670047316,-7.763921823036834e-15,-9.584642687587834e-88,-0.8951054434575784,-2.032749573541572e-13,-2.5094506075438196e-86,-0.21862814319735013,0,70,255.0,255.0,255.0
50,2.5,1.5,0.0,-1.2699,-1.965421583963503e-14,-2.42633350027663e-87,-0.9058733892210357,-2.723368033097721e-13,-3.3620263185275866e-86,-0.21208968734095013,0,70,255.0,255.0,255.0
51,2.5500000000000003,1.4999999999999987,-1.50084271198555e-88,-1.3154564123699508,-2.6827498054720855e-14,-3.311882691728091e-87,-0.9163357215714446,-1.45944852936593e-14,-1.8017044727823513e-87,-0.20640360667540683,0,70,255.0,255.0,255.0
52,2.6,1.4999999999999976,-3.046728035790648e-88,-1.36152883375659,-2.111366436900108e-14,-2.6065039475548793e-87,-0.9265137498885764,2.4314783272245115e-13,3.0016854239710884e-86,-0.2007175260098636,0,70,255.0,255.0,255.0
53,2.6500000000000004,1.499999999999997,-3.8421920036029795e-88,-1.408103048958254,-2.51271478247561e-15,-3.1019726775698604e-88,-0.936407474172431,5.008901507385639e-13,6.1835412952204395e-86,-0.19503144534432032,0,70,255.0,255.0,255.0
54,2.7,1.4999999999999973,-3.091770647610202e-88,-1.4551648427732786,2.8975350704855244e-14,3.5770373476655527e-87,-0.9460168944230085,7.586324687546744e-13,9.365397166469763e-86,-0.18934536467877708,0,70,255.0,255.0,255.0
55,2.75,1.5,0.0,-1.5027,7.335053209299157e-14,9.055199898712743e-87,-0.9553420106403087,1.016374786770785e-12,1.2547253037719087e-85,-0.1836592840132356,0,70,255.0,255.0,255.0
56,2.8000000000000003,1.5000000000000047,5.601221255154058e-88,-1.5506936757947483,1.0012158577881005e-13,1.2360114474068897e-86,-0.9643450443039349,5.4467360661949306e-14,6.72405263705455e-87,-0.17646206253181212,0,70,255.0,255.0,255.0
57,2.85,1.5000000000000093,1.137054382623444e-87,-1.5991285067458259,7.879726815918693e-14,9.727605162418253e-87,-0.9729882168934899,-9.074400654468778e-13,-1.1202442510308072e-85,-0.1692648410503887,0,70,255.0,255.0,255.0
58,2.9000000000000004,1.5000000000000115,1.433925576973783e-87,-1.6479864997995295,9.377579234121794e-15,1.1576719637607601e-87,-0.9812715284089738,-1.8693474915557135e-12,-2.30772902843217e-85,-0.1620676195689652,0,70,255.0,255.0,255.0
59,2.95,1.5000000000000093,1.153864514216078e-87,-1.6972496619021553,-1.0813748099638411e-13,-1.3349685121903422e-86,-0.9891949788503864,-2.8312549176645406e-12,-3.495213805833523e-85,-0.15487039808754177,0,70,255.0,255.0,255.0
60,3.0,1.5,0.0,-1.7469,-2.7374791253233126e-13,-3.3794466094574344e-86,-0.9967585682177279,-3.793162343773368e-12,-4.682698583234876e-85,-0.1476731766061148,0,70,255.0,255.0,255.0
61,3.0500000000000003,1.4999999999999831,-2.090404230863068e-87,-1.7969200844510573,-3.7365884506051943e-13,-4.61285752045475e-86,-1.0039961012128145,-2.0327495735413792e-13,-2.5094506075435846e-86,-0.14182814319735307,0,70,255.0,255.0,255.0
62,3.1,1.4999999999999658,-4.243544726914712e-87,-1.8472947392601076,-2.940754082677467e-13,-3.6303916702118114e-86,-1.0109413825374631,3.3866124290650596e-12,4.18080846172612e-85,-0.1359831097885914,0,70,255.0,255.0,255.0
63,3.1500000000000004,1.4999999999999567,-5.351483107534833e-87,-1.8980093518436296,-3.4997602154011516e-14,-4.320490587286064e-87,-1.0175944121916738,6.97649981548429e-12,8.612561984206636e-85,-0.13013807637982971,0,70,255.0,255.0,255.0
64,3.2,1.499999999999965,-4.306280992103296e-87,-1.949049309618101,4.0357457328068135e-13,4.982170313994814e-86,-1.0239551901754462,1.0566387201903487e-11,1.3044315506687116e-84,-0.12429304297106805,0,70,255.0,255.0,255.0
65,3.25,1.5,0.0,-2.0004,1.0216411180363335e-12,1.2612266447958463e-85,-1.0300237164887804,1.4156274588322686e-11,1.7476069029167595e-84,-0.1184480095623055,0,70,255.0,255.0,255.0
66,3.3000000000000003,1.5000000000000633,7.801494797936867e-87,-2.052046786401024,1.3945137944632676e-12,1.721541863441211e-85,-1.0357985508448075,7.586324687546012e-13,9.365397166468892e-86,-0.11254536467877434,0,70,255.0,255.0,255.0
67,3.35,1.5000000000001283,1.58371245250354e-86,-2.1039749362137443,1.0975043649118e-12,1.354880616460543e-85,-1.041278252956658,-1.2639009650813364e-11,-1.560298959587367e-84,-0.10664271979524322,0,70,255.0,255.0,255.0
68,3.4000000000000004,1.5000000000001616,1.997200685316555e-86,-2.1561696928259537,1.3061282938192427e-13,1.612429038538353e-86,-1.0464628228243318,-2.6036651770381448e-11,-3.214251890839438e-84,-0.10074007491171205,0,70,255.0,255.0,255.0
69,3.45,1.5000000000001301,1.6071259454197092e-86,-2.2086162996254415,-1.5061608121263411e-12,-1.8593712743788901e-85,-1.0513522604478291,-3.9434293889949413e-11,-4.868204822091493e-84,-0.09483743002818093,0,70,255.0,255.0,255.0
70,3.5,1.5,0.0,-2.2613,-3.812816559613003e-12,-4.706961918237642e-85,-1.05594656582715,-5.283193600951737e-11,-6.52215775334355e-84,-0.08893478514465158,0,70,255.0,255.0,255.0
71,3.5500000000000003,1.4999999999997642,-2.91155749608844e-86,-2.314205569944848,-5.204396332792551e-12,-6.424881701719367e-85,-1.060217695407955,-2.831254917664276e-12,-3.4952138058331926e-85,-0.08191039808753967,0,70,255.0,255.0,255.0
72,3.6,1.4999999999995213,-5.910495337322688e-86,-2.3673159158849146,-4.095942051379453e-12,-5.0564832988209887e-85,-1.064137605635904,4.716942617418838e-11,5.823114992176856e-84,-0.07488601103042782,0,70,255.0,255.0,255.0
73,3.6500000000000004,1.499999999999396,-7.453654430512735e-86,-2.4206134768525573,-4.874537153736881e-13,-6.017667095424788e-86,-1.0677062965109976,9.717010726604148e-11,1.1995751364937089e-83,-0.0678616239733159,0,70,255.0,255.0,255.0
74,3.7,1.4999999999995142,-5.9978756824685096e-86,-2.474080691880133,5.621068675224679e-12,6.93926806611608e-85,-1.0709237680332357,1.4717078835789413e-10,1.816838773769726e-83,-0.06083723691620404,0,70,255.0,255.0,255.0
75,3.75,1.5,0.0,-2.5277,1.4229625120415678e-11,1.7566621028154723e-84,-1.0737900202026183,1.9717146944974683e-10,2.434102411045744e-83,-0.05381284985909751,0,70,255.0,255.0,255.0
76,3.8000000000000003,1.5000000000008802,1.0866080504560076e-85,-2.5814541338195847,1.942307153670694e-11,2.3977984943436266e-84,-1.0763226675233726,1.0566387201902493e-11,1.3044315506685838e-84,-0.047493042971072055,0,70,255.0,255.0,255.0
77,3.85,1.5000000000017868,2.2058268896787218e-85,-2.635327000246597,1.5286263840606013e-11,1.887105257882341e-84,-1.0785393244997257,-1.7603869504594019e-10,-2.1732161009120066e-83,-0.04117323608304665,0,70,255.0,255.0,255.0
78,3.9000000000000004,1.5000000000022535,2.781741703673439e-85,-2.6893027997638175,1.8192020321128168e-12,2.2458239343160702e-85,-1.080439991131677,-3.626437772937845e-10,-4.476875356890892e-83,-0.034853429195021185,0,70,255.0,255.0,255.0
79,3.95,1.5000000000018132,2.2384376784454337e-85,-2.743365732854025,-2.0978113888772388e-11,-2.589770099008544e-84,-1.0820246674192275,-5.492488595416272e-10,-6.780534612869756e-83,-0.028533622306995788,0,70,255.0,255.0,255.0
80,4.0,1.5,0.0,-2.7975,-5.3105683922049705e-11,-6.555952219438125e-84,-1.0832933533623768,-7.358539417894699e-10,-9.084193868848623e-83,-0.02221381541896683,0,70,255.0,255.0,255.0
81,4.05,1.4999999999967153,-4.0552764522151463e-85,-2.8516898947768126,-7.248788981403519e-11,-8.948705807202568e-84,-1.0842516344985555,-3.943429388995189e-11,-4.868204822091802e-84,-0.016117430028184665,0,70,255.0,255.0,255.0
82,4.1000000000000005,1.4999999999933316,-8.232258024982651e-85,-2.905920083128697,-5.70491133110443e-11,-7.0427727016472305e-84,-1.0849050963651954,6.569853540095785e-10,8.110552904430415e-83,-0.01002104463740239,0,70,255.0,255.0,255.0
83,4.15,1.4999999999915905,-1.0381601371642485e-84,-2.960175324092174,-6.789354413077569e-12,-8.381529027721855e-85,-1.0852537389622956,1.3534050019090967e-09,1.6707926291069858e-82,-0.003924659246620221,0,70,255.0,255.0,255.0
84,4.2,1.499999999993233,-8.353963145534886e-85,-3.0144403767037673,7.829138687986489e-11,9.665153589422571e-84,-1.0852975622898573,2.0498246498086145e-09,2.53052996777093e-82,0.002171726144161945,0,70,255.0,255.0,255.0
85,4.25,1.5,0.0,-3.0687,1.9819311056778315e-10,2.4467146774937027e-83,-1.0850365663478796,2.7462442977081323e-09,3.3902673064348743e-82,0.008268111534947664,0,70,255.0,255.0,255.0
86,4.3,1.5000000000122595,1.5134497758404586e-84,-3.1229390870731635,2.705284877194338e-10,3.339702473446664e-83,-1.0844787944824108,1.47170788357903e-10,1.8168387737698358e-83,0.0140427630838065,0,70,255.0,255.0,255.0
87,4.3500000000000005,1.500000000024887,3.0723205210251865e-84,-3.177143067238618,2.1291018940357125e-10,2.6283985548706584e-83,-1.0836322900394988,-2.4519027209923726e-09,-3.0268995516809645e-82,0.01981741463266544,0,70,255.0,255.0,255.0
88,4.4,1.5000000000313847,3.8744663782896494e-84,-3.2312975038674896,2.5338215620197428e-11,3.128029217657121e-84,-1.0824970530191442,-5.050976230342602e-09,-6.235482980738855e-82,0.02559206618152427,0,70,255.0,255.0,255.0
89,4.45,1.500000000025255,3.1177414903694083e-84,-3.285387960330908,-2.9218743363068713e-10,-3.6070844258681734e-83,-1.0810730834213464,-7.65004973969283e-09,-9.444066409796745e-82,0.031366717730383104,0,70,255.0,255.0,255.0
90,4.5,1.5,0.0,-3.3394,-7.396667583490829e-10,-9.131263488030998e-83,-1.079360381246106,-1.024912324904306e-08,-1.2652649838854634e-81,0.037141369279245495,0,70,255.0,255.0,255.0
91,4.55,1.499999999954247,-5.648271458140321e-84,-3.3933185569305335,-1.0096260610636999e-09,-1.2463939313066401e-82,-1.0773211875717996,-5.492488595416586e-10,-6.780534612870175e-83,0.04442637769300679,0,70,255.0,255.0,255.0
92,4.6000000000000005,1.4999999999071207,-1.146605628160248e-83,-3.4471260479168357,-7.945916443032404e-10,-9.809316949317914e-83,-1.0749177434768051,9.150625529959914e-09,1.1296542916280814e-81,0.05171138610676821,0,70,255.0,255.0,255.0
93,4.65,1.499999999882871,-1.4459705375994348e-83,-3.50080426043787,-9.456350806771214e-11,-1.1673963967856354e-83,-1.0721500489611229,1.8850499919461312e-08,2.327113929384843e-81,0.0589963945205295,0,70,255.0,255.0,255.0
94,4.7,1.4999999999057474,-1.1635569646924148e-83,-3.5543349819726027,1.0904583476428838e-09,1.3461822344530434e-82,-1.0690181040247522,2.8550374308962716e-08,3.5245735671416047e-81,0.0662814029342908,0,70,255.0,255.0,255.0
95,4.75,1.5,0.0,-3.6077,2.7604739228285484e-09,3.407833927463029e-82,-1.065521908667694,3.82502486984641e-08,4.722033204898366e-81,0.07356641134805741,0,70,255.0,255.0,255.0
96,4.800000000000001,1.500000000170753,2.1079636056721235e-83,-3.660881885204702,3.767975756535368e-09,4.651605477881895e-82,-1.0617084552303888,2.0498246498080938e-09,2.530529967770291e-82,0.07897172614414892,0,70,255.0,255.0,255.0
97,4.8500000000000005,1.5000000003466305,4.279190460538474e-83,-3.713866341094043,2.9654563878093917e-09,3.6608869242400995e-82,-1.057624736053279,-3.4150599398847275e-08,-4.215927211344229e-81,0.08437704094024033,0,70,255.0,255.0,255.0
98,4.9,1.5000000004371317,5.396435512568774e-83,-3.7666398543810327,3.529158166506523e-10,4.356782665376815e-83,-1.0532707511363646,-7.035102344750263e-08,-8.684907419465486e-81,0.08978235573633175,0,70,255.0,255.0,255.0
99,4.95,1.500000000351755,4.342453709732717e-83,-3.819188911778682,-4.0696459569408476e-09,-5.0240204952253556e-82,-1.048646500479646,-1.0655144749615799e-07,-1.3153887627586745e-80,0.09518767053242316,0,70,255.0,255.0,255.0
100,5.0,1.5,0.0,-3.8715,-1.030222893296511e-08,-1.2718209361049016e-81,-1.0437519840831222,-1.4275187154481338e-07,-1.7622867835708e-80,0.10059298532851635,0,70,255.0,255.0,255.0
101,5.050000000000001,1.499999999362741,-7.86702727687445e-83,-3.9235587022506624,-1.406227696507777e-08,-1.736002798022094e-81,-1.0385329915066492,-7.650049739690908e-09,-9.444066409794357e-82,0.10816671773040032,0,70,255.0,255.0,255.0
102,5.1000000000000005,1.4999999987063573,-1.5970156213993644e-82,-3.9753469877069976,-1.1067233906934327e-08,-1.366261600202861e-81,-1.0329353123100822,1.2745177206542918e-07,1.5734054553748831e-80,0.11574045013228415,0,70,255.0,255.0,255.0
103,5.15,1.4999999983686028,-2.0139771512675664e-82,-4.026845922038002,-1.3170997585349048e-09,-1.625973426472167e-82,-1.0269589464934208,2.6255359387054927e-07,3.2412515748477095e-80,0.12331418253416798,0,70,255.0,255.0,255.0
104,5.2,1.4999999986872319,-1.6206257874238464e-82,-4.07803657091267,1.518812548012051e-08,1.8749899746448371e-81,-1.0206038940566655,3.976554156756693e-07,4.909097694320536e-80,0.1308879149360518,0,70,255.0,255.0,255.0
105,5.25,1.5,0.0,-4.1289,3.844844180903189e-08,4.746500351673303e-81,-1.0138701549998157,5.327572374807895e-07,6.5769438137933644e-80,0.13846164733793387,0,70,255.0,255.0,255.0
106,5.300000000000001,1.5000000023782825,2.936014550182568e-82,-4.179418505792653,5.248113210377571e-08,6.4788506443001875e-81,-1.00683157874301,2.8550374308955487e-08,3.524573567140713e-81,0.1430814029342909,0,70,255.0,255.0,255.0
107,5.3500000000000005,1.5000000048279407,5.960143439543611e-82,-4.229579308077971,4.1303479239927905e-08,5.0989577083874315e-81,-0.9995620147063865,-4.7565648886286937e-07,-5.872029100365111e-80,0.14770115853064786,0,70,255.0,255.0,255.0
108,5.4,1.500000006088458,7.516265053813386e-82,-4.279370857466962,4.915483217488937e-09,6.06821543935096e-82,-0.9920614628899452,-9.798633520346944e-07,-1.2096515557444295e-79,0.1523209141270048,0,70,255.0,255.0,255.0
109,5.45,1.500000004899317,6.048257778722114e-82,-4.328781604570635,-5.66828559635412e-08,-6.997557849056816e-81,-0.9843299232936861,-1.4840702152065193e-06,-1.8321002014523475e-79,0.15694066972336176,0,70,255.0,255.0,255.0
110,5.5,1.5,0.0,-4.3778,-1.4349153830316245e-07,-1.771418047058831e-80,-0.9763673959176091,-1.9882770783783444e-06,-2.4545488471602653e-79,0.1615604253197187,0,70,255.0,255.0,255.0
111,5.550000000000001,1.499999991124129,-1.0957355473042827e-81,-4.426412874578726,-1.9586225145002508e-07,-2.4179399779178654e-80,-0.9680766935213058,-1.0655144749613125e-07,-1.3153887627583427e-80,0.1700676705324129,0,70,255.0,255.0,255.0
112,5.6000000000000005,1.4999999819818794,-2.224355813677508e-81,-4.47460057998112,-1.5414668305277735e-07,-1.9029569233346867e-80,-0.9593606288643677,1.7751741833860484e-06,2.191471094608556e-79,0.17857491574510692,0,70,255.0,255.0,255.0
113,5.65,1.4999999772775654,-2.805108306398598e-81,-4.522341848094152,-1.8344833111420884e-08,-2.2646888330931733e-81,-0.9502192019467951,3.6568998142682283e-06,4.5144810654929454e-79,0.18708216095780095,0,70,255.0,255.0,255.0
114,5.7,1.499999981715501,-2.2572405327464595e-81,-4.569615410804789,2.115432983740442e-07,2.6115241421582424e-80,-0.9406524127685877,5.538625445150407e-06,6.837491036377335e-79,0.19558940617049497,0,70,255.0,255.0,255.0
115,5.75,1.5,0.0,-4.6164,5.35517711403618e-07,6.611022153067994e-80,-0.9306602613297457,7.420351076032588e-06,9.160501007261723e-79,0.204096651383189,0,70,255.0,255.0,255.0
116,5.800000000000001,1.5000000331252012,4.0893407341988735e-81,-4.662676395892444,7.309678736963247e-07,9.02387484724144e-80,-0.9203656471717647,3.9765541567556994e-07,4.909097694319289e-80,0.20768791493604266,0,70,255.0,255.0,255.0
117,5.8500000000000005,1.500000067244541,8.30140891075567e-81,-4.708433571997549,5.752832529711814e-07,7.101931922500002e-80,-0.9098914698361413,-6.6250402446813245e-06,-8.178681468397712e-79,0.21127917848889627,0,70,255.0,255.0,255.0
118,5.9,1.50000008480128,1.0468806720213051e-80,-4.753662550156431,6.84638492281946e-08,8.451933788437566e-81,-0.8992377293228753,-1.3647735905038218e-05,-1.684827270622735e-78,0.21487044204174988,0,70,255.0,255.0,255.0
119,5.95,1.5000000682386796,8.42413635311363e-81,-4.79835435221021,-7.894903375326353e-07,-9.746340783727285e-80,-0.8884044256319663,-2.067043156539511e-05,-2.551786394405699e-78,0.21846170559460348,0,70,255.0,255.0,255.0
120,6.0,1.5,0.0,-4.8425,-1.9985793073113094e-06,-2.4672670565213143e-79,-0.8773915587634149,-2.769312722575201e-05,-3.418745518188664e-78,0.22205296914745887,0,70,255.0,255.0,255.0
121,6.050000000000001,1.499999876375066,-1.5261627389491213e-80,-4.886087941851496,-2.728009243335274e-06,-3.3677559411047906e-79,-0.8660447177916439,-1.484070215206145e-06,-1.8321002014518894e-79,0.23182066972337564,0,70,255.0,255.0,255.0
122,6.1000000000000005,1.4999997490399566,-3.0981279829345183e-80,-4.929096332028686,-2.1469863288319476e-06,-2.6504770766665333e-79,-0.8542094917910772,2.472498679533925e-05,3.0523254778982286e-78,0.24158837029929225,0,70,255.0,255.0,255.0
123,6.15,1.499999683517314,-3.9070118574453635e-80,-4.971500751280124,-2.555105638013565e-07,-3.1543046320657276e-80,-0.8418858807617148,5.0934043805884644e-05,6.287860975941646e-78,0.2513560708752089,0,70,255.0,255.0,255.0
124,6.2,1.4999997453297809,-3.1439304879708068e-80,-5.013276780354377,2.9464180517564985e-06,3.6373838992750904e-79,-0.8290738847035564,7.714310081643005e-05,9.523396473985064e-78,0.2611237714511255,0,70,255.0,255.0,255.0
125,6.25,1.5,0.0,-5.0544,7.45879951784162e-06,9.207966010778458e-79,-0.8157735036166024,0.00010335215782697544,1.2758931972028482e-77,0.270891472027043,0,70,255.0,255.0,255.0
126,6.300000000000001,1.5000004613745346,5.6957168823765974e-80,-5.0948502367015704,1.018106909964477e-05,1.2568636279695017e-78,-0.8022394816616635,5.538625445149014e-06,6.837491036375606e-79,0.2704694061705085,0,70,255.0,255.0,255.0
127,6.3500000000000005,1.5000009365956328,1.1562371040662501e-79,-5.134624299887714,8.012662062356612e-06,9.891715114416131e-79,-0.7887265629995514,-9.227490693667568e-05,-1.1391433764753146e-77,0.2700473403139741,0,70,255.0,255.0,255.0
128,6.4,1.5000011811294638,1.458116675776014e-79,-5.173723244723072,9.535784059772337e-07,1.1772025149419145e-79,-0.775234747630266,-0.00019008843931850037,-2.3466616633143854e-77,0.2696252744574396,0,70,255.0,255.0,255.0
129,6.45,1.5000009504421967,1.1733308316571861e-79,-5.212148126372288,-1.0996181869493357e-05,-1.3574901518727637e-78,-0.7617640355538076,-0.00028790197170032504,-3.554179950153456e-77,0.2692032086009052,0,70,255.0,255.0,255.0
130,6.5,1.5,0.0,-5.2499,-2.783661876405517e-05,-3.436459698659252e-78,-0.7483144267701756,-0.00038571550408214984,-4.761698236992527e-77,0.26878114274437337,0,70,255.0,255.0,255.0
131,6.550000000000001,1.499998278126795,-2.125670479055727e-79,-5.286968711342225,-3.799626715524381e-05,-4.690678917767528e-78,-0.7342133555617012,-2.0670431565389955e-05,-2.5517863944050597e-78,0.29526170559459647,0,70,255.0,255.0,255.0
132,6.6000000000000005,1.4999965045775117,-4.31513561797155e-79,-5.323299268420462,-2.9903661920594496e-05,-3.691638338099799e-78,-0.7187882562107158,0.00034437464095136343,4.251340958111435e-77,0.32174226844481907,0,70,255.0,255.0,255.0
133,6.65,1.4999955919648302,-5.44176551735952e-79,-5.358825469827587,-3.5588030601075844e-06,-4.3933795965610696e-79,-0.7020391287172193,0.0007094197134681169,8.757860555663377e-77,0.3482228312950417,0,70,255.0,255.0,255.0
134,6.7,1.4999964529014327,-4.3789302778316643e-79,-5.393481114156476,4.103830942621693e-05,5.066222217563546e-78,-0.6839659730812118,0.0010744647859848703,1.3264380153215317e-76,0.3747033941452643,0,70,255.0,255.0,255.0
135,6.75,1.5,0.0,-5.4272,0.00010388767553837906,1.2825042193559161e-77,-0.664568789302693,0.0014395098585016234,1.7770899750767255e-76,0.4011839569954887,0,70,255.0,255.0,255.0
136,6.800000000000001,1.5000064261182844,7.933110227985247e-79,-5.459911717929534,0.00014180399952133045,1.750585204310061e-77,-0.6435950960915274,7.714310081641034e-05,9.523396473982638e-78,0.4377637714511236,0,70,255.0,255.0,255.0
137,6.8500000000000005,1.5000130450943208,1.610430536781995e-78,-5.49152902643044,0.00011160198562002138,1.377738184095758e-77,-0.6207924121575804,-0.0012852236568687784,-1.5866220455970426e-76,0.47434358590675785,0,70,255.0,255.0,255.0
138,6.9,1.5000164510112148,2.030894539366207e-78,-5.521960475966579,1.3281633834453046e-05,1.639631587130236e-78,-0.5961607375008519,-0.0026475904145539676,-3.2684780559339117e-76,0.510923400362392,0,70,255.0,255.0,255.0
139,6.95,1.500013237952073,1.6342390279669465e-78,-5.5511146170018115,-0.00015315705583537437,-1.8907398718381417e-77,-0.5697000721213414,-0.004009957172239156,-4.950334066270781e-76,0.5475032148180263,0,70,255.0,255.0,255.0
140,7.0,1.5,0.0,-5.5789,-0.0003877140833894611,-4.786370907557739e-77,-0.5414104160190493,-0.005372323929924344,-6.63219007660765e-76,0.5840830292736632,0,70,255.0,255.0,255.0
141,7.050000000000001,1.4999744174000673,-2.9606770432885263e-78,-5.605253216939642,-0.0006252197309300702,-6.53327292546349e-77,-0.5129742600721849,-0.0041279019716998835,-3.55417995015256e-77,0.5533632086008923,0,70,255.0,255.0,255.0
142,7.1000000000000005,1.4999385150452054,-6.010208585330824e-78,-5.63022302585778,-0.0008005042805594528,-5.141788902573054e-77,-0.4860740951589597,-0.002883480013475446,5.921354086577028e-76,0.5226433879281219,0,70,255.0,255.0,255.0
143,7.15,1.49989540399031,-7.579401605728876e-78,-5.653886226306097,-0.0009135677322776137,-6.119188388864839e-78,-0.46070992127937294,-0.0016390580552510074,1.219812616816931e-75,0.4919235672553515,0,70,255.0,255.0,255.0
144,7.2,1.4998481952902762,-6.099063084084619e-78,-5.676319617836277,-0.0009644100860845531,7.056337265596213e-77,-0.43688173843342476,-0.00039463609702656936,1.8474898249761593e-75,0.4612037465825811,0,70,255.0,255.0,255.0
145,7.25,1.4998,0.0,-5.6976,-0.0009530313419802705,1.786297941087504e-76,-0.414589546621115,0.0008497858611978722,2.475167033135387e-75,0.43048392590981077,0,70,255.0,255.0,255.0
146,7.300000000000001,1.499753504281446,1.104939715035558e-77,-5.717797014311904,-0.0009049250758007012,2.43825064975439e-76,-0.39340386361973734,0.0010744647859848733,1.3264380153211958e-76,0.41694339414528514,0,70,255.0,255.0,255.0
147,7.3500000000000005,1.4997096947248574,2.2430403804541302e-77,-5.736951670138445,-0.0008455848633817828,1.9189417426196457e-76,-0.37289520720658625,0.0012991437107718706,-2.2098794300711065e-75,0.40340286238075973,0,70,255.0,255.0,255.0
148,7.4,1.4996691330275453,2.828671188354929e-77,-5.755097818809033,-0.0007750107047235146,2.2837121968329157e-77,-0.3530635773816615,0.0015238226355588679,-4.552402661674332e-75,0.3898623306162343,0,70,255.0,255.0,255.0
149,7.45,1.4996323808868224,2.2762013308371533e-77,-5.772269311653082,-0.0006932025998258966,-2.633460919054671e-76,-0.33390897414496296,0.0017485015603458652,-6.8949258932775585e-75,0.3763217988517089,0,70,255.0,255.0,255.0
150,7.5,1.4996,0.0,-5.7885,-0.0006001605486889288,-6.666554673594242e-76,-0.31543139749649074,0.00197318048513286,-9.23744912488078e-75,0.3627812670871844,0,70,255.0,255.0,255.0
151,7.550000000000001,1.4995723654741482,-4.123691155813378e-77,-5.8038259258127445,-0.0005070799658666007,-9.09967530647121e-76,-0.29776228544886024,0.0017500428277602105,-4.950334066269511e-76,0.3439832148180247,0,70,255.0,255.0,255.0
152,7.6000000000000005,1.4995491060553656,-8.371140663283436e-77,-5.818291893588444,-0.0004251562659129066,-7.161588080221272e-76,-0.281033076014688,0.001526905170387565,8.247382311626723e-75,0.3251851625488653,0,70,255.0,255.0,255.0
153,7.65,1.499529663899509,-1.0556744592846826e-76,-5.831944898457771,-0.0003543894488278448,-8.522929948445151e-77,-0.26524376919397386,0.0013037675130149196,1.6989798029880398e-74,0.3063871102797059,0,70,255.0,255.0,255.0
154,7.7,1.4995134811624349,-8.494899014940148e-77,-5.844831935551399,-0.00029477951461141517,9.828209949659063e-76,-0.2503943649867176,0.001080629855642274,2.573221374813407e-74,0.2875890580105465,0,70,255.0,255.0,255.0
155,7.75,1.4995,0.0,-5.857,-0.0002463264632636177,2.487992075328946e-75,-0.23648486339291933,0.0008574921982696295,3.4474629466387743e-74,0.2687910057413865,0,70,255.0,255.0,255.0
156,7.800000000000001,1.4994890338219617,1.538982490821796e-76,-5.868495282437119,-0.00018675506073254544,3.396045057613045e-75,-0.2234669945848201,0.0015253639029732262,1.8474898249756942e-75,0.2519237465825739,0,70,255.0,255.0,255.0
157,7.8500000000000005,1.4994818810536805,3.1241522272679615e-76,-5.879360755507781,-9.379007296629484e-05,2.672741057826545e-75,-0.2112924887346618,0.0021932356076768108,-3.077964981643578e-74,0.23505648742376165,0,70,255.0,255.0,255.0
158,7.9,1.499480211374419,3.9398307183032375e-76,-5.889638587359884,3.256850003513487e-05,3.1808007596947745e-76,-0.19996134584244404,0.0028611073123803957,-6.340678945784726e-74,0.21818922826494935,0,70,255.0,255.0,255.0
159,7.95,1.4994856944634383,3.1703394728923435e-76,-5.8993709461413255,0.00019232065827174368,-3.6679378879581564e-75,-0.18947356590816694,0.0035289790170839803,-9.603392909925873e-74,0.2013219691061371,0,70,255.0,255.0,255.0
160,8.0,1.4995,0.0,-5.9086,0.00038546640174353167,-9.28531283395636e-75,-0.1798291489318304,0.004196850721787567,-1.2866106874067022e-73,0.18445470994732616,0,70,255.0,255.0,255.0
161,8.05,1.4995242992380056,-5.743560847705845e-76,-5.917368144438781,0.0005821002087968648,-1.267421269980506e-74,-0.17104173621185415,0.0036685015603456442,-6.894925893275836e-75,0.16704179885172,0,70,255.0,255.0,255.0
162,8.1,1.499557769729912,-1.1659494842743416e-75,-5.925718684380432,0.0007523165577780958,-9.974805423284158e-75,-0.16312496904665844,0.0031401523989037406,1.1487121695411425e-73,0.14962888775611444,0,70,255.0,255.0,255.0
163,8.15,1.4995990906028154,-1.4703648413928272e-75,-5.933695152102693,0.0008961154486872367,-1.1870910043934652e-75,-0.15607884743624278,0.0026118032374618182,2.366373598015086e-73,0.13221597666050827,0,70,255.0,255.0,255.0
164,8.200000000000001,1.4996469409838127,-1.183186799007525e-75,-5.941341079883301,0.001013496881524281,1.3688930556867036e-74,-0.14990337138060741,0.002083454076019896,3.5840350264890304e-73,0.11480306556490211,0,70,255.0,255.0,255.0
165,8.25,1.4997,0.0,-5.9487,0.0011044608562892266,3.4653259260496496e-74,-0.1445985408797526,0.001555104914577993,4.801696454962931e-73,0.09739015446929633,0,70,255.0,255.0,255.0
166,8.3,1.4997577692260162,2.1435260900001588e-75,-5.955815339807759,0.00121835422554473,4.7300805741607184e-74,-0.14015806056775718,0.0030006298556420844,2.5732213748127526e-74,0.08022905801051741,0,70,255.0,255.0,255.0
167,8.35,1.499823040026672,4.3513827143705723e-75,-5.962730106970491,0.0014045238418534313,3.7226480635310034e-74,-0.13657563507870085,0.004446154796706124,-4.287052180000218e-73,0.06306796155173909,0,70,255.0,255.0,255.0
168,8.4,1.4998994262143193,5.487476293740986e-75,-5.9694872042293445,0.0016629697052153436,4.430283941604356e-75,-0.13385126441258333,0.005891679737770215,-8.831426497481875e-73,0.04590686509296017,0,70,255.0,255.0,255.0
169,8.450000000000001,1.499990541601311,4.4157132487408683e-75,-5.976129534325466,0.0019936918156304613,-5.108778433950994e-74,-0.1319849485694048,0.007337204678834306,-1.337580081496353e-72,0.02874576863418124,0,70,255.0,255.0,255.0
170,8.5,1.5001,0.0,-5.9827,0.0023966901730987688,-1.2932772420802962e-73,-0.1309766875491652,0.008782729619898337,-1.7920175132445021e-72,0.011584672175402932,0,70,255.0,255.0,255.0
171,8.55,1.5002302238579286,-7.999748275230049e-75,-5.989241696330184,0.0028004828890233215,-1.765290102666237e-73,-0.13083802151712612,0.007368979017083533,-9.603392909923467e-74,-0.006038030893839679,0,70,255.0,255.0,255.0
172,8.6,1.5003788701634,-1.6239581373207947e-74,-5.995798487737605,0.003133588074807122,-1.3893111711795602e-73,-0.13158049063854912,0.005955228414268779,1.599949655045973e-72,-0.023660733963081666,0,70,255.0,255.0,255.0
173,8.65,1.5005424045399072,-2.047954033357111e-74,-6.002414430979931,0.003396005730450195,-1.653404476202395e-74,-0.1332040949134343,0.0045414778114539756,3.29593323919124e-72,-0.04128343703232428,0,70,255.0,255.0,255.0
174,8.700000000000001,1.5007172926109424,-1.6479666195955949e-74,-6.0091335828148384,0.0035877358559525258,1.906622068011726e-73,-0.1357088343417816,0.0031277272086391713,4.991916823336508e-72,-0.05890614010156689,0,70,255.0,255.0,255.0
175,8.75,1.5009,0.0,-6.016,0.003708778451314113,4.82657637571622e-73,-0.13909470892359097,0.0017139766058244035,6.687900407481714e-72,-0.0765288431708091,0,70,255.0,255.0,255.0
176,8.8,1.5010885353422687,2.9855467010920036e-74,-6.023057874871504,0.003851714218360325,6.588152353248876e-73,-0.14336985336373845,0.004003454076023988,3.5840350264881055e-73,-0.0944769344350877,0,70,255.0,255.0,255.0
177,8.85,1.501287079319728,6.060694277846121e-74,-6.030351942079094,0.004109123858916507,5.184979878365141e-73,-0.14854240236709967,0.006292931546223492,-5.971093402183868e-72,-0.11242502569936566,0,70,255.0,255.0,255.0
178,8.9,1.5015013556260524,7.643068504054345e-74,-6.037927071850934,0.004481007372982676,6.170589510649166e-74,-0.154612355933675,0.008582409016423077,-1.2300590307016774e-71,-0.13037311696364426,0,70,255.0,255.0,255.0
179,8.950000000000001,1.501737087954918,6.150295153508291e-74,-6.045828134415182,0.004967364760558826,-7.115610428651803e-73,-0.1615797140634643,0.010871886486622661,-1.8630087211849677e-71,-0.14832120822792286,0,70,255.0,255.0,255.0
180,9.0,1.502,0.0,-6.0541,0.005568196021644934,-1.8013028260784582e-72,-0.1694444767564672,0.013161363956822152,-2.495958411668235e-71,-0.16626929949220082,0,70,255.0,255.0,255.0
181,9.05,1.5022940347729958,-1.1142211976845008e-73,-6.062786804183802,0.006176660237536343,-2.4587319310329263e-72,-0.1781625650279183,0.011177204678833817,-1.3375800814960022e-72,-0.18245423136583794,0,70,255.0,255.0,255.0
182,9.1,1.5026160125576886,-2.261881897406369e-73,-6.071929743946019,0.0066859164895283155,-1.9350608342280993e-72,-0.1876898998930509,0.009193045400845552,2.228442395368951e-71,-0.1986391632394745,0,70,255.0,255.0,255.0
183,9.15,1.5029609729558837,-2.852431998286027e-73,-6.0815692816163365,0.00709596477762089,-2.3028953566394176e-73,-0.1980264813518657,0.007208886122857218,4.590642798887585e-71,-0.21482409511311162,0,70,255.0,255.0,255.0
184,9.200000000000001,1.5033239555693858,-2.2953213994437547e-73,-6.091745879524435,0.007406805101814047,2.655581964659551e-72,-0.20917230940436238,0.005224726844868882,6.9528432024062204e-71,-0.23100902698674874,0,70,255.0,255.0,255.0
185,9.25,1.5037,0.0,-6.1025,0.00761843746210778,6.722553666742211e-72,-0.2211273840505405,0.003240567566880584,9.315043605924772e-71,-0.24719395886038642,0,70,255.0,255.0,255.0
186,9.3,1.504085725565748,4.1583301206288034e-73,-6.1138637083932865,0.007825644831495665,9.17611248880682e-72,-0.23338788652458942,0.00504772720863474,4.991916823335243e-72,-0.24322614010156374,0,70,255.0,255.0,255.0
187,9.35,1.5044840704495175,8.441458161840864e-73,-6.125835482136827,0.008123210182971248,7.221745349075887e-72,-0.24544999806069678,0.0068548868503888315,-8.316660241257411e-71,-0.23925832134274122,0,70,255.0,255.0,255.0
188,9.4,1.5048995525504134,1.0645421142738674e-72,-6.138405401683724,0.00851113351653455,8.594522475492819e-73,-0.25731371865886343,0.008662046492142987,-1.713251216484866e-70,-0.23529050258391854,0,70,255.0,255.0,255.0
189,9.450000000000001,1.5053366897675393,8.566256082424194e-73,-6.151563547487081,0.00898941483218556,-9.910766815773016e-72,-0.268979048319089,0.010469206133897143,-2.594836408843991e-70,-0.23132268382509585,0,70,255.0,255.0,255.0
190,9.5,1.5058,0.0,-6.1653,0.009558054129924257,-2.5088911840890384e-71,-0.280445987041373,0.012276365775651207,-3.476421601203085e-70,-0.22735486506627378,0,70,255.0,255.0,255.0
191,9.55,1.506292662964012,-1.5519099284830715e-72,-6.179606362243053,0.01013676043648111,-3.4245718024194346e-71,-0.29180588887372777,0.010871886486622583,-1.863008721184486e-71,-0.2270412082279092,0,70,255.0,255.0,255.0
192,9.600000000000001,1.5068125056442405,-3.150395074995756e-72,-6.194480327506675,0.010645242778586531,-2.695192056207489e-71,-0.3031501078641643,0.00946740719759396,3.103819856966188e-70,-0.22672755138954467,0,70,255.0,255.0,255.0
193,9.65,1.5073560168424631,-3.9729252572668665e-72,-6.209921111648771,0.011083501156240506,-3.2075194545331587e-72,-0.31447864401268216,0.008062927908565385,6.393940586050708e-70,-0.22641389455118013,0,70,255.0,255.0,255.0
194,9.700000000000001,1.5079196853604573,-3.1969702930253017e-72,-6.225927930527244,0.011451535569443064,3.698748529843254e-71,-0.3257914973192822,0.006658448619536761,9.684061315135345e-70,-0.22610023771281557,0,70,255.0,255.0,255.0
195,9.75,1.5085,0.0,-6.2425,0.011749346018194181,9.363309369681933e-71,-0.3370886677839636,0.0052539693305081875,1.2974182044219865e-69,-0.22578658087444925,0,70,255.0,255.0,255.0
196,9.8,1.5090940225782037,5.791806701869405e-72,-6.259636442634505,0.012011313422578718,1.2780675960797059e-70,-0.34836455798049404,0.005224726844873176,6.952843202404453e-71,-0.2252490269867616,0,70,255.0,255.0,255.0
197,9.850000000000001,1.5097011069735198,1.1757434483798928e-71,-6.2773360078364755,0.012271818702681507,1.0058593689922388e-70,-0.3596135704826401,0.005195484359238164,-1.1583613403738974e-69,-0.22471147309907397,0,70,255.0,255.0,255.0
198,9.9,1.510321180079734,1.48271589147936e-71,-6.295597351721195,0.012530861858502534,1.1970625570583405e-71,-0.3708357052904014,0.005166241873603153,-2.386251112771796e-69,-0.22417391921138632,0,70,255.0,255.0,255.0
199,9.950000000000001,1.510954168790632,1.1931255563858796e-71,-6.314419130403943,0.01278844289004182,-1.3803917437795702e-70,-0.38203096240377865,0.005136999387968141,-3.614140885169738e-69,-0.22363636532369868,0,70,255.0,255.0,255.0
200,10.0,1.5116,0.0,-6.3338,0.013044561797299346,-3.4944346294638694e-70,-0.3931993418227711,0.005107756902333074,-4.842030657567637e-69,-0.22309881143600974,0,70,255.0,255.0,255.0
201,10.05,1.5122592467231728,-2.161531687899455e-71,-6.3537382672189295,0.013337985873205008,-4.76981320407688e-70,-0.40431987920429907,0.006629206133893253,-2.5948364088433244e-70,-0.2217226838251018,0,70,255.0,255.0,255.0
202,10.100000000000001,1.51293506646168,-4.387934286019995e-71,-6.374230841147423,0.013707482410688681,-3.753918270348205e-70,-0.41537161020528157,0.008150655365453431,4.323063375798972e-69,-0.22034655621419383,0,70,255.0,255.0,255.0
203,10.15,1.5136312628386013,-5.533571040190754e-71,-6.395274281466449,0.014153051409750345,-4.4674982827800414e-71,-0.4263545348257184,0.009672104597013556,8.905610392482114e-69,-0.21897042860328594,0,70,255.0,255.0,255.0
204,10.200000000000001,1.514351639477015,-4.452805196240986e-71,-6.416865147856984,0.014674692870390036,5.15169212213396e-70,-0.4372686530656101,0.011193553828573734,1.3488157409165419e-68,-0.217594300992378,0,70,255.0,255.0,255.0
205,10.25,1.5151,0.0,-6.439,0.015272406792607711,1.3041407580887284e-69,-0.4481139649249561,0.0127150030601339,1.8070704425848561e-68,-0.2162181733814692,0,70,255.0,255.0,255.0
206,10.3,1.5158785905291052,8.06694608141088e-71,-6.46167608848978,0.015852743084599583,1.7801185220227815e-69,-0.4589319252023131,0.010498448619540636,9.684061315132844e-70,-0.21650023771280305,0,70,255.0,255.0,255.0
207,10.350000000000001,1.5166834271797593,1.6375993695700088e-70,-6.484893427573841,0.01632225165456179,1.400981371240058e-69,-0.4697639886962367,0.008281894178947372,-1.6133892162821992e-68,-0.2167823020441369,0,70,255.0,255.0,255.0
208,10.4,1.517508968565861,2.0651568269283654e-70,-6.508652722413013,0.01668093250249432,1.6672930574061838e-70,-0.4806101554067267,0.006065339738354187,-3.3236190457156666e-68,-0.21706436637547072,0,70,255.0,255.0,255.0
209,10.450000000000001,1.5183496733013084,1.6618095228578072e-70,-6.532954678168124,0.016928785628397204,-1.922637674475627e-69,-0.49147042533378366,0.003848785297760924,-5.033848875149194e-68,-0.21734643070680457,0,70,255.0,255.0,255.0
210,10.5,1.5192,0.0,-6.5578,0.01706581103227042,-4.867119569408527e-69,-0.5023447984774071,0.0016322308571677102,-6.744078704582658e-68,-0.21762849503813886,0,70,255.0,255.0,255.0
211,10.55,1.5200559911604061,-3.0106252637744054e-70,-6.583188578821955,0.017187041788398822,-6.643492767683436e-69,-0.5131844199864533,0.003216999387968317,-3.6141408851687935e-69,-0.21595636532369883,0,70,255.0,255.0,255.0
212,10.600000000000001,1.5209200248192825,-6.111604049678033e-70,-6.609117048557218,0.017387510971067256,-5.22853365792541e-69,-0.5239404350097774,0.004801767918768924,6.021250527548899e-68,-0.21428423560925877,0,70,255.0,255.0,255.0
213,10.65,1.5217960628979552,-7.707270203694384e-70,-6.635581228881504,0.017667218580275708,-6.222422401346723e-70,-0.534612843547379,0.0063865364495694745,1.2403915143614451e-67,-0.2126121058948188,0,70,255.0,255.0,255.0
214,10.700000000000001,1.5226880673177523,-6.201957571807128e-70,-6.662576939470527,0.018026164616024205,7.175381485689103e-69,-0.5452016455992591,0.007971304980370082,1.878657975968023e-67,-0.21093997618037874,0,70,255.0,255.0,255.0
215,10.75,1.5236,0.0,-6.6901,0.018464349078312712,1.8164337519545377e-68,-0.5557068411654169,0.00955607351117052,2.516924437574578e-67,-0.20926784646593788,0,70,255.0,255.0,255.0
216,10.8,1.52453504482927,1.1235806446956534e-69,-6.718146396222406,0.018935089761806113,2.4793852548710965e-68,-0.5661383948518747,0.009273553828565352,1.348815740916192e-68,-0.20799430099236493,0,70,255.0,255.0,255.0
217,10.850000000000001,1.525493273543112,2.2808816829142126e-69,-6.746712778197294,0.01939170446116926,1.951315326046159e-68,-0.5765062712646536,0.008991034145960183,-2.2471612893913396e-67,-0.206720755518792,0,70,255.0,255.0,255.0
218,10.9,1.5264739798423181,2.876392398784917e-69,-6.775795962060977,0.01983419317640213,2.322239654798065e-69,-0.5868104704037538,0.008708514463355025,-4.629204152874214e-67,-0.2054472100452191,0,70,255.0,255.0,255.0
219,10.950000000000001,1.5274764574276833,2.3146020764370705e-69,-6.805392763949774,0.02026255590750476,-2.67788882682808e-68,-0.5970509922691756,0.008425994780749856,-7.011247016357173e-67,-0.20417366457164615,0,70,255.0,255.0,255.0
220,11.0,1.5285,0.0,-6.8355,0.020676792654477114,-6.7790230508772974e-68,-0.6072278368609183,0.008143475098144531,-9.393289879840045e-67,-0.20290011909807149,0,70,255.0,255.0,255.0
221,11.05,1.529543829522513,-4.1932600524051725e-69,-6.866115436288422,0.02107259916437496,-9.253191742716041e-68,-0.6173980006060408,0.007688785297769029,-5.033848875147893e-68,-0.20390643070681877,0,70,255.0,255.0,255.0
222,11.100000000000001,1.5306068810082707,-8.512366326689048e-69,-6.897240638653612,0.021445671184254028,-7.2824079383920945e-68,-0.6276184799316005,0.007234095497393526,8.386520104810467e-67,-0.20491274231556605,0,70,255.0,255.0,255.0
223,11.15,1.5316880177327714,-1.073484257477023e-68,-6.92887812287459,0.021796008714114308,-8.666716379057612e-69,-0.6378892748375973,0.006779405697018039,1.727642509713541e-66,-0.20591905392431328,0,70,255.0,255.0,255.0
224,11.200000000000001,1.5327861029715149,-8.638212548567569e-69,-6.961030404730379,0.02212361175395583,9.994017158743412e-68,-0.6482103853240317,0.006324715896642537,2.616633008946066e-66,-0.20692536553306057,0,70,255.0,255.0,255.0
225,11.25,1.5339,0.0,-6.9937,0.022428480303778562,2.529965845155465e-67,-0.6585818113909031,0.005870026096266995,3.505623508178559e-66,-0.20793167714180516,0,70,255.0,255.0,255.0
226,11.3,1.5350288370806777,1.5649459564925036e-68,-7.026887858623905,0.022726513580694496,3.453338171599306e-67,-0.6689096027239582,0.006051304980370228,1.878657975967532e-67,-0.20517997618039216,0,70,255.0,255.0,255.0
227,11.350000000000001,1.5361728024238064,3.1768583623841963e-68,-7.060588667188261,0.023033610801815593,2.7178316427522213e-67,-0.6790998090089426,0.0062325838644734614,-3.129891912985053e-66,-0.2024282752189792,0,70,255.0,255.0,255.0
228,11.4,1.5373323492265962,4.0062977900296e-68,-7.094795546440665,0.02334977196714184,3.23446258614323e-68,-0.6891524302458559,0.006413862748576689,-6.44764962356674e-66,-0.1996765742575663,0,70,255.0,255.0,255.0
229,11.450000000000001,1.5385079306862572,3.22382481178332e-68,-7.129501617128713,0.02367499707667326,-3.7298179808145536e-67,-0.6990674664346991,0.006595141632679922,-9.765407334148548e-66,-0.1969248732961533,0,70,255.0,255.0,255.0
230,11.5,1.5397,0.0,-7.1647,0.02400928613040983,-9.44196107553413e-67,-0.7088449175754713,0.006776420516783038,-1.3083165044730236e-65,-0.19417317233473863,0,70,255.0,255.0,255.0
231,11.55,1.5409088221547764,-5.8404578207294976e-68,-7.200385129215958,0.024341346512848052,-1.288803351212562e-66,-0.7185635884981307,0.006505994780745707,-7.01124701635537e-67,-0.19457366457163358,0,70,255.0,255.0,255.0
232,11.600000000000001,1.542133909296505,-1.1856196816867882e-67,-7.236556692593345,0.02465988560848441,-1.0143085777169675e-66,-0.728302284032635,0.006235569044708376,1.1680915641459162e-65,-0.1949741568085285,0,70,255.0,255.0,255.0
233,11.65,1.543374585360845,-1.4951706902641374e-67,-7.2732156913627515,0.024964903417318888,-1.2071178706667221e-67,-0.7380610041789835,0.005965143308671054,2.4062955984553425e-65,-0.19537464904542343,0,70,255.0,255.0,255.0
234,11.700000000000001,1.5446301742834567,-1.203147799227652e-67,-7.3103631267547735,0.025256399939351516,1.3919870207383885e-66,-0.7478397489371772,0.005694717572633723,3.644499632764812e-65,-0.19577514128231838,0,70,255.0,255.0,255.0
235,11.75,1.5459,0.0,-7.348,0.025534375174582256,3.523787845698105e-66,-0.7576385183072153,0.005424291836596373,4.882703667074239e-65,-0.19617563351921152,0,70,255.0,255.0,255.0
236,11.8,1.5471838743002166,2.1796885326425485e-67,-7.3861268245122655,0.025828100367913234,4.809879587690319e-66,-0.767428043283522,0.006324715896642565,2.6166330089453945e-66,-0.19540536553305132,0,70,255.0,255.0,255.0
237,11.850000000000001,1.5484835603901748,4.424792890508735e-67,-7.424742162438364,0.02616684676424652,3.785451146592648e-66,-0.7771790548605207,0.007225139956688756,-4.3593770652851604e-65,-0.19463509754689115,0,70,255.0,255.0,255.0
238,11.9,1.5498013093300247,5.580052982053591e-67,-7.4638440881083294,0.026550614363582106,4.505025224052552e-67,-0.786891553038211,0.008125564016734916,-8.980417431464694e-65,-0.19386482956073098,0,70,255.0,255.0,255.0
239,11.950000000000001,1.5511393721799165,4.4902087157322786e-67,-7.503430675852197,0.026979403165920013,-5.194966284872094e-66,-0.7965655378165938,0.009025988076781108,-1.3601457797644396e-64,-0.1930945615745708,0,70,255.0,255.0,255.0
240,12.0,1.5525,0.0,-7.5435,0.027453213171260215,-1.3150955275239009e-65,-0.8062010091956681,0.009926412136827129,-1.8222498163823925e-64,-0.19232429358840708,0,70,255.0,255.0,255.0
241,12.05,1.5538844806443575,-8.134708348497244e-67,-7.58404997273498,0.027914252015497996,-1.7950714999548705e-65,-0.8157882383677826,0.00851514163268384,-9.765407334146e-66,-0.191164873296165,0,70,255.0,255.0,255.0
242,12.100000000000001,1.5552902491427965,-1.6513551880348146e-66,-7.625077857653202,0.02830472733452861,-1.4127496008653625e-65,-0.8253174965252849,0.007103871128540549,1.6269416696994725e-64,-0.1900054530039229,0,70,255.0,255.0,255.0
243,12.15,1.5567137773190567,-2.0825041237950222e-66,-7.666580756203932,0.02862463912835205,-1.681298302554353e-66,-0.8347887836681748,0.005692600624397311,3.351537412740343e-64,-0.18884603271168085,0,70,255.0,255.0,255.0
244,12.200000000000001,1.5581515369968781,-1.6757687063701452e-66,-7.708555769836442,0.028873987396968337,1.938787811874999e-65,-0.8442020997964528,0.004281330120254021,5.0761331557812755e-64,-0.18768661241943876,0,70,255.0,255.0,255.0
245,12.25,1.5596,0.0,-7.751,0.02905277214037745,4.908003325525793e-65,-0.8535574449101185,0.002870059616110754,6.800728898822146e-64,-0.18652719212719493,0,70,255.0,255.0,255.0
246,12.3,1.5610566031223543,3.035914486134643e-66,-7.793910884547814,0.029218891570095964,6.699298041050451e-65,-0.8628750032453562,0.003774717572629695,3.6444996327638634e-65,-0.18617514128230592,0,70,255.0,255.0,255.0
247,12.350000000000001,1.5625226430386403,6.162941463088385e-66,-7.837287206948832,0.029430243897640426,5.272453288802184e-65,-0.8721749590383493,0.004679375529148636,-6.0718289722693736e-64,-0.1858230904374169,0,70,255.0,255.0,255.0
248,12.4,1.564000381393749,7.772011196974731e-66,-7.881128087075945,0.02968682912301082,6.274690687812148e-66,-0.8814573122890978,0.005584033485667545,-1.2508107907814904e-63,-0.18547103959252792,0,70,255.0,255.0,255.0
249,12.450000000000001,1.5654920798325718,6.254053953907356e-66,-7.925432644802039,0.02998864724620718,-7.235654619012787e-65,-0.8907220629976021,0.006488691442186487,-1.894438684336066e-63,-0.1851189887476389,0,70,255.0,255.0,255.0
250,12.5,1.567,0.0,-7.9702,0.030335698267229472,-1.831691777457927e-64,-0.8999692111638616,0.007393349398705368,-2.5380665778906197e-63,-0.1847669379027499,0,70,255.0,255.0,255.0
251,12.55,1.5685259068662256,-1.1330187109688849e-65,-8.01542888907377,0.030698181704116645,-2.500212066424694e-64,-0.9091757486507949,0.007105988076781235,-1.360145779764087e-64,-0.18349456157457505,0,70,255.0,255.0,255.0
252,12.600000000000001,1.5700695787026433,-2.3000410664318725e-65,-8.061116514551475,0.031046297074907605,-1.967706355434338e-64,-0.9183186673213194,0.006818626754857102,2.2660374219378023e-63,-0.18222218524640021,0,70,255.0,255.0,255.0
253,12.65,1.5716302971059484,-2.9005540664103896e-65,-8.107259695492294,0.03138004437960235,-2.341746444869424e-65,-0.9273979671754349,0.006531265432932979,4.6680894218519283e-63,-0.1809498089182254,0,70,255.0,255.0,255.0
254,12.700000000000001,1.5732073436728355,-2.3340447109259277e-65,-8.153855250955411,0.031699423618200905,2.7003830664176156e-64,-0.9364136482131419,0.006243904111008846,7.070141421766139e-63,-0.17967743259005056,0,70,255.0,255.0,255.0
255,12.75,1.5748,0.0,-8.2009,0.03200443479070323,6.835966777279128e-64,-0.9453657104344398,0.0059565427890845846,9.47219342168026e-63,-0.17840505626187397,0,70,255.0,255.0,255.0
256,12.8,1.576407769412743,4.228483395262074e-65,-8.248391159157116,0.0323083816134368,9.330918461593729e-64,-0.9542780021514725,0.006201330120258045,5.076133155779948e-64,-0.1780866124194256,0,70,255.0,255.0,255.0
257,12.850000000000001,1.5780310421507866,8.583870119418649e-65,-8.29632753484528,0.03262456780272904,7.34358009285713e-64,-0.9631743716763826,0.006446117451431506,-8.456966790524271e-63,-0.17776816857697728,0,70,255.0,255.0,255.0
258,12.9,1.5796704301824582,1.0825015145944083e-64,-8.344708330954884,0.03295299335857994,8.739516710696466e-65,-0.9720548190091701,0.0066909047826049575,-1.7421546896626217e-62,-0.17744972473452894,0,70,255.0,255.0,255.0
259,12.950000000000001,1.581326545476087,8.71077344831297e-65,-8.393532751376329,0.03329365828098954,-1.0077966803769181e-63,-0.9809193441498355,0.006935692113778418,-2.6386127002728483e-62,-0.17713128089208058,0,70,255.0,255.0,255.0
260,13.0,1.583,0.0,-8.4428,0.03364656256995779,-2.551217533165858e-63,-0.9897679470983781,0.0071804794449517595,-3.535070710883043e-62,-0.17681283704963047,0,70,255.0,255.0,255.0
261,13.05,1.584691015482803,-1.578091487007941e-64,-8.492508874297773,0.03398829184213614,-3.482346177995022e-63,-0.9985762427433101,0.006488691442182183,-1.8944386843355768e-63,-0.17551898874764385,0,70,255.0,255.0,255.0
262,13.100000000000001,1.5863982526942113,-3.2035439411242726e-64,-8.542656546067414,0.03429543171417601,-2.7406614015994195e-63,-1.0073198459731427,0.005796903439412606,3.1561829740159275e-62,-0.17422514044565723,0,70,255.0,255.0,255.0
263,13.15,1.5881199821642182,-4.039950651736594e-64,-8.593239780688169,0.0345679821860774,-3.261632039791655e-64,-1.0159987567878757,0.0051051154366430545,6.5018098164652935e-62,-0.17293129214367065,0,70,255.0,255.0,255.0
264,13.200000000000001,1.589854474422817,-3.2509049082325946e-64,-8.644255343539285,0.03480594325784032,3.7611484148659106e-63,-1.02461297518751,0.004413327433873479,9.847436658914778e-62,-0.17163744384168403,0,70,255.0,255.0,255.0
265,13.25,1.5916,0.0,-8.6957,0.03500931492946474,9.52127345493552e-63,-1.0331625011720442,0.0037215394311038708,1.3193063501364146e-61,-0.17034359553969836,0,70,255.0,255.0,255.0
266,13.3,1.5933553686560453,5.889517608505557e-64,-8.747570943651798,0.035210451018017674,1.2996292865820712e-62,-1.0416730268752885,0.004323904111013297,7.070141421764322e-63,-0.1700774325900724,0,70,255.0,255.0,255.0
267,13.350000000000001,1.5951215470723685,1.1955788752555228e-63,-8.799867080885072,0.03544170534056608,1.022828759711196e-62,-1.0501702444310517,0.004926268790922722,-1.1779035217011281e-61,-0.1698112696404465,0,70,255.0,255.0,255.0
268,13.4,1.5969000411606686,1.5077301092351974e-63,-8.852587746292444,0.03570307789710994,1.2172576488096959e-63,-1.0586541538393333,0.005528633470832127,-2.4265084576198552e-61,-0.16954510669082054,0,70,255.0,255.0,255.0
269,13.450000000000001,1.5986923568326459,1.2132542288099081e-63,-8.905732274466548,0.03599456868764929,-1.4036796979086725e-62,-1.0671247551001337,0.006130998150741553,-3.675113393538627e-61,-0.1692789437411946,0,70,255.0,255.0,255.0
270,13.5,1.6005,0.0,-8.9593,0.0363161777121841,-3.553387628657622e-62,-1.0755820482134528,0.006733362830651124,-4.9237183294573526e-61,-0.1690127807915669,0,70,255.0,255.0,255.0
271,13.55,1.6023243098930156,-2.1979978947014285e-63,-9.01328975109504,0.03665790408579474,-4.850282528528782e-62,-1.083995649755543,0.006935692113774153,-2.6386127002721583e-62,-0.16753128089203206,0,70,255.0,255.0,255.0
272,13.600000000000001,1.6041659590163155,-4.461961106909662e-63,-9.067698330392307,0.03700974692356153,-3.817248898684841e-62,-1.0923351763026563,0.007138021396897182,4.395995789402921e-61,-0.16604978099249723,0,70,255.0,255.0,255.0
273,13.65,1.6060254531931077,-5.626925371767128e-63,-9.122522034142055,0.037371706225484455,-4.542867391259605e-63,-1.1006006278547926,0.007340350680020204,9.055852848832891e-61,-0.16456828109296245,0,70,255.0,255.0,255.0
274,13.700000000000001,1.6079032982465997,-4.5279264244163755e-63,-9.177757158594535,0.037743781991563544,5.238603950148101e-62,-1.1087920044119524,0.007542679963143233,1.371570990826303e-60,-0.16308678119342762,0,70,255.0,255.0,255.0
275,13.75,1.6098,0.0,-9.2334,0.038125974221798774,1.3261423169136936e-61,-1.1169093059741355,0.0077450092462661435,1.8375566967692994e-60,-0.16160528129389817,0,70,255.0,255.0,255.0
276,13.8,1.6117153917718925,8.203039817955158e-63,-9.289447651968052,0.03847793263880226,1.8101500827533058e-61,-1.1250003741025258,0.006333327433873128,9.847436658912204e-62,-0.16203744384170876,0,70,255.0,255.0,255.0
277,13.850000000000001,1.6136466168623698,1.6652265552383125e-62,-9.34590039754571,0.03875930696518609,1.4246166835028171e-61,-1.1331130503583065,0.004921645621480113,-1.6406079635910553e-60,-0.16246960638951935,0,70,255.0,255.0,255.0
278,13.9,1.6155901460669009,2.0999971377833314e-62,-9.40275931713934,0.03897009720095027,1.6954211916228741e-62,-1.1412473347414778,0.0035099638090871476,-3.379690293771171e-60,-0.1629017689373299,0,70,255.0,255.0,255.0
279,13.950000000000001,1.6175424501809543,1.6898451468855578e-62,-9.460025491155315,0.039110303346094805,-1.955073610268372e-61,-1.1494032272520396,0.002098281996694132,-5.118772623951347e-60,-0.1633339314851405,0,70,255.0,255.0,255.0
280,14.0,1.6195,0.0,-9.5177,0.03917992540061968,-4.949230504789012e-61,-1.1575807278899917,0.0006866001843007785,-6.857854954131464e-60,-0.1637660940329404,0,70,255.0,255.0,255.0
281,14.05,1.6214605230194141,-3.06141613771192e-62,-9.575782841032753,0.03925436535899585,-6.755572078160345e-61,-1.1657148538343454,0.002290998150746249,-3.6751133935376845e-61,-0.1615989437412075,0,70,255.0,255.0,255.0
282,14.100000000000001,1.623426773534205,-6.214710110262284e-62,-9.63426967942486,0.03940902521569431,-5.316741844142785e-61,-1.1737406222641127,0.0038953961171917196,6.122832275423927e-60,-0.1594317934494746,0,70,255.0,255.0,255.0
283,14.15,1.6254027625392886,-7.837296013956611e-62,-9.693155097300586,0.03964390497071503,-6.327398027365545e-62,-1.181658033179293,0.005499794083637133,1.2613175890201393e-59,-0.15726464315774177,0,70,255.0,255.0,255.0
284,14.200000000000001,1.6273925010295818,-6.3065879451006e-62,-9.752433676784213,0.03995900462405803,7.296434046058678e-61,-1.1894670865798866,0.0071041920500826035,1.9103519504979087e-59,-0.15509749286600888,0,70,255.0,255.0,255.0
285,14.25,1.6294,0.0,-9.8121,0.04035432417572328,1.8470779702242352e-60,-1.1971677824658937,0.008708590016527906,2.5593863119756554e-59,-0.15293034257426896,0,70,255.0,255.0,255.0
286,14.3,1.6314281161504514,1.1425360569052165e-61,-9.872149783900937,0.04076060592521496,2.5212138229888077e-60,-1.2048282105600858,0.007542679963138938,1.3715709908259487e-60,-0.1534867811934184,0,70,255.0,255.0,255.0
287,14.350000000000001,1.6334750890008105,2.319361388581082e-61,-9.932583284754857,0.04110859217203719,1.984235069306832e-60,-1.2125164605852359,0.006376769909749969,-2.2850721138104656e-59,-0.15404321981256788,0,70,255.0,255.0,255.0
288,14.4,1.6355380037759437,2.924918691804312e-61,-9.99340189365831,0.04139828291618995,2.3614170917839256e-61,-1.2202325325413428,0.005210859856361041,-4.70730132670344e-59,-0.1545996584317173,0,70,255.0,255.0,255.0
289,14.450000000000001,1.6376139457007182,2.3536506633516832e-61,-10.054607001707843,0.04162967815767328,-2.723066257396635e-60,-1.2279764264284074,0.0040449498029720725,-7.1295305395965e-59,-0.15515609705086675,0,70,255.0,255.0,255.0
290,14.5,1.6397,0.0,-10.1162,0.041802777896487155,-6.89338883041804e-60,-1.2357481422464291,0.00287903974958309,-9.551759752489476e-59,-0.15571253567001087,0,70,255.0,255.0,255.0
291,14.55,1.641794212378781,-4.264002613849673e-61,-10.178181223363499,0.041975210940144184,-9.409298084139194e-60,-1.2434843039253085,0.004018281996698075,-5.118772623950032e-60,-0.15373393148515893,0,70,255.0,255.0,255.0
292,14.600000000000001,1.6438984704625537,-8.6559745432981e-61,-10.240546781555711,0.04220460609615697,-7.405266092813048e-60,-1.2511215353949454,0.00515752424381306,8.52800522769947e-59,-0.15175532730030697,0,70,255.0,255.0,255.0
293,14.65,1.6460156223569358,-1.0915945165821587e-60,-10.303291728066172,0.042490963364525486,-8.812928564399159e-61,-1.2586598366553392,0.0062967664909280045,1.7567887717793624e-58,-0.1497767231154551,0,70,255.0,255.0,255.0
294,14.700000000000001,1.6481485161675453,-8.783943858896676e-61,-10.366411116384425,0.042834282745249766,1.016262162498067e-59,-1.2660992077064908,0.00743600873804299,2.6607770207888097e-58,-0.14779811893060316,0,70,255.0,255.0,255.0
295,14.75,1.6503,0.0,-10.4299,0.04323456423832978,2.572647735144792e-59,-1.2734396485483994,0.008575250985157934,3.564765269798224e-58,-0.14581951474574772,0,70,255.0,255.0,255.0
296,14.8,1.6524718343344253,1.5913474398493477e-60,-10.49375412264507,0.04362655031421069,3.5115978513567968e-59,-1.280722573738693,0.007104192050078252,1.9103519504974113e-59,-0.145497492865994,0,70,255.0,255.0,255.0
297,14.850000000000001,1.6546614291489754,3.230453678461132e-60,-10.557971989022304,0.04394498344333762,2.7636829301945357e-59,-1.2879893978349992,0.00563313311499857,-3.1826948796987418e-58,-0.14517547098624028,0,70,255.0,255.0,255.0
298,14.9,1.656865106796313,4.073886197148202e-60,-10.622552794077002,0.04418986362571055,3.289029716581271e-60,-1.2952401208373172,0.004162074179918941,-6.556424954447104e-58,-0.14485344910648656,0,70,255.0,255.0,255.0
299,14.950000000000001,1.6590791896291004,3.278212477223501e-60,-10.687495732754469,0.04436119086132951,-3.7927420242526037e-59,-1.3024747427456476,0.002691015244839259,-9.930155029195586e-58,-0.14453142722673284,0,70,255.0,255.0,255.0
300,15.0,1.6613,0.0,-10.7528,0.044458965150194485,-9.601252057537364e-59,-1.30969326355999,0.0012199563097596844,-1.330388510394395e-57,-0.1442094053469738,0,70,255.0,255.0,255.0
301,15.05,1.6635248502835194,-5.938989498012423e-60,-10.81846468605623,0.04454258780301278,-1.3105461597013267e-58,-1.316889401119935,0.002124949802972255,-7.12953053959466e-59,-0.14363609705082184,0,70,255.0,255.0,255.0
302,15.100000000000001,1.6657550129415457,-1.205621725951472e-59,-10.884488462355081,0.04467146013049172,-1.0314205111496838e-58,-1.3240568732650724,0.003029943296184826,1.1877978996025019e-57,-0.14306278875466985,0,70,255.0,255.0,255.0
303,15.15,1.6679927504578127,-1.5203950272010655e-59,-10.950869895625823,0.04484558213263127,-1.2274826009885181e-59,-1.331195679995402,0.003934936789397365,2.4468911046009058e-57,-0.1424894804585179,0,70,255.0,255.0,255.0
304,15.200000000000001,1.6702403253160532,-1.2234455523004333e-59,-11.017607552597708,0.04506495380943145,1.4154705934512344e-58,-1.3383058213109242,0.004839930282609936,3.705984309599354e-57,-0.14191617216236593,0,70,255.0,255.0,255.0
305,15.25,1.6725,0.0,-11.0847,0.04532957516089226,3.5832360495004664e-58,-1.3453872972116385,0.005744923775822641,4.965077514597758e-57,-0.14134286386621042,0,70,255.0,255.0,255.0
306,15.3,1.6747735645314987,2.2164610552200347e-59,-11.152145533130025,0.04561109847373891,4.891024853669628e-58,-1.3524238217815594,0.005516008738043195,2.660777020788129e-58,-0.1401181189306193,0,70,255.0,255.0,255.0
307,15.350000000000001,1.6770609190848424,4.499441535959774e-59,-11.21994136155738,0.04588117603469659,3.849313751579282e-58,-1.3593991091047006,0.005287093700263749,-4.432922110440132e-57,-0.13889337399502819,0,70,255.0,255.0,255.0
308,15.4,1.679361491372437,5.67419148908944e-59,-11.288084423419717,0.046139807843765285,4.5810274322959455e-59,-1.3663131591810622,0.005058178662484312,-9.131921922958912e-57,-0.1376686290594371,0,70,255.0,255.0,255.0
309,15.450000000000001,1.6816747091066877,4.565960961479387e-59,-11.356571656854703,0.046386993900945014,-5.282608171379677e-58,-1.3731659720106442,0.004829263624704866,-1.3830921735477856e-56,-0.13644388412384598,0,70,255.0,255.0,255.0
310,15.5,1.684,0.0,-11.4254,0.046622734206235764,-1.337281899224813e-57,-1.3799575475934465,0.0046003485869251515,-1.8529921547996636e-56,-0.13521913918825668,0,70,255.0,255.0,255.0
311,15.55,1.6863368915904862,-8.271945271078896e-59,-11.494566781423675,0.04685301830202987,-1.8253553254977184e-57,-1.386711311753822,0.004611015244839023,-9.930155029193021e-58,-0.1349314272267545,0,70,255.0,255.0,255.0
312,15.600000000000001,1.6886853107190845,-1.6792144417887625e-58,-11.564070891415417,0.04708383573071968,-1.4365834495167446e-57,-1.3934506903161221,0.004621681902752895,1.6543890542158032e-56,-0.13464371526525235,0,70,255.0,255.0,255.0
313,15.65,1.69104528405244,-2.11763709291567e-58,-11.63391161069532,0.047315186492305164,-1.7096627128195207e-58,-1.400175683280347,0.004632348560666766,3.4080796587234746e-56,-0.13435600330375017,0,70,255.0,255.0,255.0
314,15.700000000000001,1.6934168382571968,-1.7040398293617093e-58,-11.704088219983483,0.047547070586786346,1.9714962092067484e-57,-1.4068862906464972,0.004643015218580637,5.161770263231207e-56,-0.13406829134224799,0,70,255.0,255.0,255.0
315,15.75,1.6958,0.0,-11.7746,0.047779488014163214,4.9908039919492055e-57,-1.4135825124145718,0.00465368187649412,6.915460867738879e-56,-0.13378057938074583,0,70,255.0,255.0,255.0
316,15.8,1.6981948691065563,3.0871320029095553e-58,-11.845445741175281,0.04801682831814093,6.812318816623911e-57,-1.4202349312031493,0.004839930282614216,3.7059843095983954e-57,-0.13231617216235242,0,70,255.0,255.0,255.0
317,15.850000000000001,1.700601838038819,6.2669136135590724e-58,-11.916622272780968,0.048263481042424644,5.361402422909051e-57,-1.426814129630807,0.005026178688734312,-6.1742640058192e-56,-0.13085176494395898,0,70,255.0,255.0,255.0
318,15.9,1.703021372417804,7.903129222753737e-58,-11.988125933799013,0.048519446187014356,6.380548108048474e-58,-1.4333201076975453,0.005212427094854401,-1.2719126442598005e-55,-0.12938735772556562,0,70,255.0,255.0,255.0
319,15.950000000000001,1.705453937864526,6.359563221298901e-58,-12.059953063211372,0.04878472375191008,-7.357724019689027e-57,-1.4397528654033638,0.005398675500974497,-1.9263988879377043e-55,-0.12792295050717217,0,70,255.0,255.0,255.0
320,16.0,1.7079,0.0,-12.1321,0.049059313737111795,-1.862593406857201e-56,-1.4461124027482624,0.005584923907094308,-2.5808851316155854e-55,-0.1264585432887717,0,70,255.0,255.0,255.0
321,16.05,1.7103596319832886,-1.152133348453033e-57,-12.204563853875205,0.04931966842540667,-2.5423919940997924e-56,-1.4524449634335783,0.004829263624700453,-1.3830921735474307e-56,-0.12684388412386519,0,70,255.0,255.0,255.0
322,16.1,1.7128313371256385,-2.3388440012447532e-57,-12.277344817460722,0.049542240099581844,-2.000902624211946e-56,-1.4587967911606492,0.004073603342306598,2.3042666969060993e-55,-0.12722922495895866,0,70,255.0,255.0,255.0
323,16.150000000000002,1.7153132262763446,-2.9494879798099326e-57,-12.350443854108635,0.04972702875963734,-2.3812529719366033e-57,-1.4651678859294743,0.0033179430599127435,4.7468426111669416e-55,-0.12761456579405214,0,70,255.0,255.0,255.0
324,16.2,1.7178034102847004,-2.373421305583439e-57,-12.42386192717103,0.049874034405573114,2.745939986954808e-56,-1.471558247740054,0.0025622827775189424,7.18941852542761e-55,-0.1279999066291456,0,70,255.0,255.0,255.0
325,16.25,1.7203,0.0,-12.4976,0.04998325703738923,6.951293228233883e-56,-1.4779678765923887,0.001806622495125032,9.631994439688454e-55,-0.12838524746423552,0,70,255.0,255.0,255.0
326,16.3,1.7228018029602898,4.299820193521177e-57,-12.5716580433239,0.050096497980231976,9.48833609473678e-56,-1.4843372150625505,0.0027230152185849362,5.161770263229881e-56,-0.12638829134223176,0,70,255.0,255.0,255.0
327,16.35,1.725310413458626,8.728684643623105e-57,-12.646032057376155,0.05025555855924772,7.4674702545568785e-56,-1.4906067057266121,0.0036394079420448405,-8.599640387042478e-55,-0.12439133522022802,0,70,255.0,255.0,255.0
328,16.400000000000002,1.7278281224768175,1.1007638996964352e-56,-12.720717049766463,0.05046043877443647,8.886957076941783e-57,-1.4967763485845733,0.004555800665504745,-1.7715457800407943e-54,-0.12239437909822426,0,70,255.0,255.0,255.0
329,16.45,1.7303572209966727,8.857728900203846e-57,-12.795708028104508,0.05071113862579819,-1.0247987545850365e-55,-1.5028461436364344,0.005472193388964584,-2.683127521377276e-54,-0.12039742297622065,0,70,255.0,255.0,255.0
330,16.5,1.7329,0.0,-12.871,0.05100765811333292,-2.594257950607833e-55,-1.5088160908821955,0.006388586112424488,-3.5947092627138217e-54,-0.11840046685421868,0,70,255.0,255.0,255.0
331,16.55,1.7354579561755525,-1.604714742563167e-56,-12.9465887728292,0.05130233965366778,-3.541095238484732e-55,-1.5147341763162292,0.005398675500970082,-1.9263988879372037e-55,-0.1183229505071239,0,70,255.0,255.0,255.0
332,16.6,1.7380294090398574,-3.257589457324765e-56,-13.02247335303467,0.05154752566342993,-2.786897839401556e-55,-1.520648385932908,0.0044087648895156754,3.209429485126381e-54,-0.1182454341600291,0,70,255.0,255.0,255.0
333,16.650000000000002,1.7406118838163862,-4.108106800804747e-56,-13.098653546825538,0.051743216142619355,-3.3166575335830475e-56,-1.5265587197322321,0.0034188542780612696,6.611498859046482e-54,-0.11816791781293431,0,70,255.0,255.0,255.0
334,16.7,1.7432029057286096,-3.305749429523195e-56,-13.175129160410934,0.05188941109123606,3.824601019644665e-55,-1.5324651777142013,0.002428943666606934,1.0013568232966343e-53,-0.11809040146583953,0,70,255.0,255.0,255.0
335,16.75,1.7458,0.0,-13.2519,0.051986110509280044,9.681902479607944e-55,-1.5383677598788157,0.0014390330551523056,1.341563760688644e-53,-0.11801288511874297,0,70,255.0,255.0,255.0
336,16.8,1.7484015723375008,5.98887695090055e-56,-13.328965265359303,0.05208614340509672,1.321554734446525e-54,-1.5442300796725146,0.0025622827775146064,7.189418525425824e-55,-0.11647990662920511,0,70,255.0,255.0,255.0
337,16.85,1.7510095503819452,1.2157489364936754e-55,-13.406321730485178,0.05224233878703151,1.0400844332150534e-54,-1.5500157505417365,0.0036855324998769077,-1.1977753901801276e-53,-0.11494692813966725,0,70,255.0,255.0,255.0
338,16.900000000000002,1.7536267422576393,1.5331663303522551e-55,-13.483965562931404,0.05245469665508442,1.2377934426638005e-55,-1.5557247724864813,0.004808782222239209,-2.4674449656145134e-53,-0.11341394965012938,0,70,255.0,255.0,255.0
339,16.95,1.7562559560888886,1.2337224828072396e-55,-13.561892930251748,0.05272321700925541,-1.4273605323993616e-54,-1.561357145506749,0.00593203194460143,-3.7371145410488092e-53,-0.11188097116059163,0,70,255.0,255.0,255.0
340,17.0,1.7589,0.0,-13.6401,0.05304789984954455,-3.613335196782394e-54,-1.5669128696025403,0.007055281666963731,-5.006784116483194e-53,-0.11034799267105377,0,70,255.0,255.0,255.0
341,17.05,1.761560554474445,-2.2350793061039036e-55,-13.718583765733595,0.05336108672594298,-4.932109413937627e-54,-1.572441504993722,0.0054721933889731456,-2.68312752137661e-54,-0.11079742297621104,0,70,255.0,255.0,255.0
342,17.1,1.7642347894323627,-4.5372368002422245e-55,-13.79734452502463,0.05359511918844187,-3.8816479489200587e-54,-1.5779926119001617,0.00388910511098256,4.470158612207872e-53,-0.11124685328136828,0,70,255.0,255.0,255.0
343,17.150000000000002,1.7669187471530576,-5.721854641328545e-55,-13.876383401448868,0.05374999723704124,-4.619508017296906e-55,-1.583566190321859,0.002306016832991974,9.208629976553405e-53,-0.11169628358652554,0,70,255.0,255.0,255.0
344,17.2,1.769608469915835,-4.6043149882766374e-55,-13.955701518582066,0.05382572087174107,5.32698202763298e-54,-1.589162240258814,0.0007229285550015008,1.39471013408986e-52,-0.11214571389168276,0,70,255.0,255.0,255.0
345,17.25,1.7723,0.0,-14.0353,0.05382229009254138,1.3485150539168782e-53,-1.5947807617110268,-0.0008601597229894176,1.8685572705244136e-52,-0.1125951441968347,0,70,255.0,255.0,255.0
346,17.3,1.774990609764719,8.341429529325559e-55,-14.115178871706327,0.053813509691131814,1.8406882921303984e-53,-1.6003559003525933,0.0005089436666069287,1.0013568232963877e-53,-0.11041040146582046,0,70,255.0,255.0,255.0
347,17.35,1.7776824918886045,1.6933198264475225e-54,-14.195333769416317,0.05387318445920207,1.4486507362465181e-53,-1.605821801857609,0.001878047056203275,-1.668285905865136e-52,-0.10822565873480622,0,70,255.0,255.0,255.0
348,17.400000000000002,1.7803790691301307,2.135425223496193e-54,-14.275759231273147,0.05400131439675215,1.7240238626523863e-54,-1.611178466226074,0.003247150445799621,-3.436707494059911e-52,-0.10604091600379197,0,70,255.0,255.0,255.0
349,17.45,1.7830837642477708,1.718353747029933e-54,-14.35644979541998,0.054197899503782024,-1.988056757813256e-53,-1.616425893457988,0.0046162538353958695,-5.2051290822545595e-52,-0.10385617327277788,0,70,255.0,255.0,255.0
350,17.5,1.7858,0.0,-14.4374,0.05446293978029173,-5.032726695989273e-53,-1.6215640835533516,0.005985357224992438,-6.973550670449334e-52,-0.1016714305417672,0,70,255.0,255.0,255.0
351,17.55,1.788530606466679,-3.113063881119834e-54,-14.518605547441105,0.05476087450953148,-6.869542227127829e-53,-1.6266628935959113,0.005932031944597337,-3.7371145410478954e-53,-0.10228097116061648,0,70,255.0,255.0,255.0
352,17.6,1.7912760430132197,-6.319555625765867e-54,-14.60006679731011,0.05505614297475147,-5.406438150094067e-53,-1.6317921806694133,0.005878706664202237,6.226127762239755e-52,-0.10289051177946577,0,70,255.0,255.0,255.0
353,17.650000000000002,1.7940361763264208,-7.969515429851918e-54,-14.681785273458564,0.05534874517595171,-6.434144648879834e-54,-1.6369519447738579,0.0058253813838071355,1.2825966978584301e-51,-0.10350005239831506,0,70,255.0,255.0,255.0
354,17.7,1.7968108730930812,-6.412983489292063e-54,-14.763762499738007,0.05563868111313217,7.419528828489727e-53,-1.6421421859092447,0.005772056103412039,1.9425806194928376e-51,-0.10410959301716431,0,70,255.0,255.0,255.0
355,17.75,1.7996,0.0,-14.846,0.05592595078629291,1.8782391730040214e-52,-1.6473629040755744,0.005718730823016993,2.6025645411272925e-51,-0.10471913363601182,0,70,255.0,255.0,255.0
356,17.8,1.8024029643685653,1.1618112571546778e-53,-14.928498138529264,0.05618299227074336,2.5637480616380923e-52,-1.6525445252637656,0.004562928555000851,1.3947101340895179e-52,-0.10254571389163122,0,70,255.0,255.0,255.0
357,17.85,1.8052173360585178,2.3584902676615945e-53,-15.01125264134326,0.056382243641793,2.017710186412975e-52,-1.6576174754647377,0.003407126286984708,-2.323622514309389e-51,-0.10037229414725063,0,70,255.0,255.0,255.0
358,17.900000000000002,1.8080402255641879,2.974263649591147e-53,-15.094258074892622,0.056523704899441835,2.4012554732867e-53,-1.662581754678491,0.0022513240189685653,-4.7867160420277294e-51,-0.09819887440287002,0,70,255.0,255.0,255.0
359,17.95,1.810868743379905,2.3933580210138316e-53,-15.177509005627984,0.05660737604368986,-2.769005855614566e-52,-1.6674373629050243,0.0010955217509525045,-7.249809569745895e-51,-0.09602545465848958,0,70,255.0,255.0,255.0
360,18.0,1.8137,0.0,-15.261,0.05663325707453708,-7.009684022417158e-52,-1.6721843001443393,-6.0280517063637795e-05,-9.712903097464235e-51,-0.0938520349141001,0,70,255.0,255.0,255.0
361,18.05,1.8165319360590608,-4.3359386405067275e-53,-15.344726698441843,0.05665115640749539,-9.568038023839586e-52,-1.6768870053490128,0.0007762538353964018,-5.205129082253275e-52,-0.09425617327283363,0,70,255.0,255.0,255.0
362,18.1,1.8193658127527101,-8.802005508069792e-53,-15.428689037316868,0.05671088245807671,-7.530196930642491e-52,-1.6816099174716228,0.0016127881878564413,8.67187728101358e-51,-0.09466031163156716,0,70,255.0,255.0,255.0
363,18.150000000000002,1.822203721416829,-1.1100103055379397e-52,-15.512888026970973,0.056812435226281044,-8.961607428258835e-53,-1.6863530365121695,0.002449322540316481,1.7864267470252486e-50,-0.09506444999030067,0,70,255.0,255.0,255.0
364,18.2,1.8250477533872984,-8.932133735126115e-53,-15.597324677750047,0.05695581471210836,1.0334070539609288e-51,-1.6911163624706524,0.003285856892776461,2.705665765949074e-50,-0.09546858834903417,0,70,255.0,255.0,255.0
365,18.25,1.8279,0.0,-15.682,0.05714102091555869,2.616049691666461e-51,-1.695899895347073,0.004122391245236667,3.624904784872965e-50,-0.09587272670777303,0,70,255.0,255.0,255.0
366,18.3,1.830762091395192,1.6181943304872232e-52,-15.766914267703369,0.057340382099274924,3.570840403372024e-51,-1.7006594533401953,0.0038520561034123342,1.942580619492356e-51,-0.09450959301712165,0,70,255.0,255.0,255.0
367,18.35,1.8336338129306429,3.2849531764617565e-52,-15.852064809389281,0.05752622652589993,2.810307753615699e-51,-1.7053508546487854,0.003581720961588001,-3.236388660974494e-50,-0.09314645932647028,0,70,255.0,255.0,255.0
368,18.400000000000002,1.8365144887684974,4.142614857192644e-52,-15.937448217223507,0.057698554195433724,3.344517423974853e-52,-1.7099740992728425,0.0033113858197636676,-6.667035383898223e-50,-0.09178332563581891,0,70,255.0,255.0,255.0
369,18.45,1.8394034430709012,3.333517691949066e-52,-16.023061083371818,0.05785736510787629,-3.85672763028226e-51,-1.7145291872123671,0.003041050677939354,-1.009768210682171e-49,-0.09042019194516764,0,70,255.0,255.0,255.0
370,18.5,1.8423,0.0,-16.1089,0.05800265926322765,-9.763230364424128e-51,-1.7190161184673594,0.0027707155361151314,-1.3528328829745437e-49,-0.08905705825452515,0,70,255.0,255.0,255.0
371,18.55,1.8452036983601712,-6.039183457898219e-52,-16.19496183074469,0.058147315195404344,-1.3326557811104143e-50,-1.7234511812901852,0.0030155217509522914,-7.249809569744121e-51,-0.08834545465850424,0,70,255.0,255.0,255.0
372,18.6,1.8481149355247195,-1.2259612155040049e-51,-16.281244525126024,0.05830421143832289,-1.0488211321398553e-50,-1.7278506639332099,0.0032603279657894514,1.2078366915796613e-49,-0.08763385106248334,0,70,255.0,255.0,255.0
373,18.650000000000002,1.8510343235091826,-1.546044912323264e-51,-16.367746304135014,0.05847334799198329,-1.2481908953073531e-51,-1.7322145663964337,0.003505134180626612,2.4881714788567632e-49,-0.08692224746646243,0,70,255.0,255.0,255.0
374,18.7,1.8539624743290968,-1.2440857394283651e-51,-16.454465388762664,0.05865472485638554,1.43935034671681e-50,-1.736542888679856,0.0037499403954637544,3.768506266133775e-49,-0.08621064387044158,0,70,255.0,255.0,255.0
375,18.75,1.8569,0.0,-16.5414,0.05884834203152966,3.643687176603005e-50,-1.7408356307834778,0.003994746610300803,5.048841053410878e-49,-0.0854990402744189,0,70,255.0,255.0,255.0
376,18.8,1.8598471151641238,2.2538539501105656e-51,-16.628548009317882,0.0590303571191066,4.973539084104454e-50,-1.745071821499065,0.003285856892776496,2.705665765948407e-50,-0.08394858834906065,0,70,255.0,255.0,255.0
377,18.85,1.8628024449704794,4.575349544369843e-51,-16.715905890106637,0.059176927720807314,3.9142537531978496e-50,-1.749230489618384,0.002576967175252189,-4.507707900221197e-49,-0.08239813642370239,0,70,255.0,255.0,255.0
378,18.900000000000002,1.8657642171947733,5.769918163573789e-51,-16.803469766236454,0.05928805383663181,4.658311838831919e-51,-1.7533116351414353,0.0018680774577278822,-9.285982377037231e-49,-0.08084768449834415,0,70,255.0,255.0,255.0
379,18.95,1.8687306596127113,4.64299118851855e-51,-16.89123576157751,0.0593637354665801,-5.371728623839018e-50,-1.757315258068218,0.0011591877402036257,-1.406425685385293e-48,-0.079297232572986,0,70,255.0,255.0,255.0
380,19.0,1.8717,0.0,-16.9792,0.05940397261065217,-1.3598425669969607e-49,-1.7612413583987336,0.000450298022679263,-1.8842531330668965e-48,-0.0777467806476313,0,70,255.0,255.0,255.0
381,19.05,1.8746710409833338,-8.411497454652439e-51,-17.06735973198379,0.05944325632816774,-1.8561500555307397e-49,-1.7651575327135538,0.0011210506779439117,-1.0097682106819206e-49,-0.07890019194516677,0,70,255.0,255.0,255.0
382,19.1,1.8776448845933629,-1.7075436961975368e-50,-17.155716714447436,0.05951607767844656,-1.4608193880651543e-49,-1.7691313775932505,0.0017918033332085606,1.6822994909305123e-48,-0.08005360324270225,0,70,255.0,255.0,255.0
383,19.150000000000002,1.8806232077117246,-2.15336277419719e-50,-17.244273830919195,0.0596224366614886,-1.7385056460020299e-50,-1.773162893037824,0.0024625559884732095,3.465575802929217e-48,-0.08120701454023771,0,70,255.0,255.0,255.0
384,19.200000000000003,1.883607687220058,-1.7327879014645128e-50,-17.333033964927303,0.05976233327729388,2.0047564148641113e-49,-1.7772520790472743,0.003133308643737858,5.248852114927921e-48,-0.08236042583777319,0,70,255.0,255.0,255.0
385,19.25,1.8866,0.0,-17.422,0.05993576752586238,5.075001550327542e-49,-1.7813989356216013,0.003804061299002459,7.0321284269265e-48,-0.0835138371353068,0,70,255.0,255.0,255.0
386,19.3,1.8896015209025405,3.1392135868499195e-50,-17.511173062746973,0.06012461756822394,6.927246313712516e-49,-1.7854980476467455,0.0037499403954594605,3.768506266132858e-49,-0.08045064387045282,0,70,255.0,255.0,255.0
387,19.35,1.8926124166560694,6.372639830353162e-50,-17.60054725210362,0.060310761565408336,5.451852176940832e-49,-1.7894440000086467,0.003695819491916462,-6.278427173699929e-48,-0.07738745060559885,0,70,255.0,255.0,255.0
388,19.400000000000002,1.8956325519583284,8.03645928043138e-50,-17.690114910086788,0.06049419951741559,6.488191400124973e-50,-1.7932367927073054,0.0036416985883734633,-1.2933704974013144e-47,-0.07432425734074487,0,70,255.0,255.0,255.0
389,19.450000000000003,1.8986617915070583,6.466852487006214e-50,-17.779868378713303,0.06067493142424568,-7.481852797072496e-49,-1.7968764257427214,0.0035875776848304643,-1.9588982774326358e-47,-0.07126106407589089,0,70,255.0,255.0,255.0
390,19.5,1.9017,0.0,-17.8698,0.06085295728589862,-1.8940163634313208e-48,-1.8003628991148943,0.0035334567812874695,-2.6244260574639097e-47,-0.06819787081104067,0,70,255.0,255.0,255.0
391,19.55,1.9047468754065042,-1.1715704601934432e-49,-17.95990401702833,0.061018273398935896,-2.5852835199319316e-48,-1.8038102766994921,0.003079187740203342,-1.4064256853849452e-48,-0.06969723257287515,0,70,255.0,255.0,255.0
392,19.6,1.9078014487823594,-2.378301562521511e-49,-18.050182277138088,0.06116087605991896,-2.0346589319698172e-48,-1.807332622372182,0.0026249186991192147,2.3431409203869207e-47,-0.07119659433470961,0,70,255.0,255.0,255.0
393,19.650000000000002,1.910862584454962,-2.9992474347528325e-49,-18.14063852873368,0.06128076526884782,-2.4214259954497855e-49,-1.8109299361329634,0.002170649658035087,4.826924409312336e-47,-0.07269595609654408,0,70,255.0,255.0,255.0
394,19.700000000000003,1.91392914675171,-2.4134622046560352e-49,-18.23127652021952,0.06137794102572248,2.792265477342587e-48,-1.8146022179818366,0.0017163806169509597,7.310707898237751e-47,-0.07419531785837856,0,70,255.0,255.0,255.0
395,19.75,1.917,0.0,-18.3221,0.061452403330542915,7.068565298692529e-48,-1.8183494679188008,0.0012621115758667534,9.79449138716299e-47,-0.0756946796202147,0,70,255.0,255.0,255.0
396,19.8,1.9200741774714418,4.372360482088781e-49,-18.41311086913972,0.061514288836033035,9.648409448356475e-48,-1.822060845555253,0.0012133086437379863,5.248852114926501e-48,-0.07276042583786509,0,70,255.0,255.0,255.0
397,19.85,1.9231513882144935,8.875942267050728e-49,-18.50430363934404,0.06157373419491671,7.593450510185188e-48,-1.8256255105025874,0.0011645057116092192,-8.744720964177689e-47,-0.06982617205551547,0,70,255.0,255.0,255.0
398,19.900000000000002,1.9262315102218237,1.1193343810968194e-48,-18.5956709749785,0.061630739407193956,9.036884841786639e-49,-1.8290434627608045,0.001115702779480452,-1.8014327139848026e-46,-0.06689191827316586,0,70,255.0,255.0,255.0
399,19.950000000000003,1.9293144214861027,9.007163569923517e-49,-18.687205540408637,0.061685304472864765,-1.0420876629663095e-47,-1.8323147023299042,0.001066899847351685,-2.7283933315518368e-46,-0.06395766449081625,0,70,255.0,255.0,255.0
400,20.0,1.9324,0.0,-18.7789,0.061737429391929124,-2.6380244831338794e-47,-1.835439229209886,0.0010180969152228103,-3.655353949118804e-46,-0.061023410708459735,0,70,255.0,255.0,255.0
401,20.05,1.9354884147077276,-1.631787146816168e-48,-18.870748506412784,0.06180457125693046,-3.600835427349397e-47,-1.8385063410794953,0.001667577684830666,-1.9588982774321e-47,-0.06166106407591166,0,70,255.0,255.0,255.0
402,20.1,1.9385809983596678,-3.31254675056814e-48,-18.96275116548576,0.0619041871604122,-2.8339143108770925e-47,-1.8416053356174773,0.002317058454438522,3.263574293632384e-46,-0.06229871744336359,0,70,255.0,255.0,255.0
403,20.150000000000002,1.9416793746577437,-4.1774127809119934e-48,-19.054909571352344,0.06203627710237432,-3.3726113371696684e-48,-1.8447362128238318,0.002966539224046377,6.723038415007978e-46,-0.06293637081081552,0,70,255.0,255.0,255.0
404,20.200000000000003,1.9447851673038798,-3.3615192075038026e-48,-19.14722531814595,0.062200841082816836,3.889124104130982e-47,-1.8478989726985589,0.003616019993654233,1.0182502536383572e-45,-0.06357402417826745,0,70,255.0,255.0,255.0
405,20.25,1.9479,0.0,-19.2397,0.062397879101739724,9.845241402666265e-47,-1.8510936152416584,0.004265500763262098,1.3641966657758923e-45,-0.06421167754571222,0,70,255.0,255.0,255.0
406,20.3,1.9510249636976467,6.089912539055794e-48,-19.332334305209145,0.06259542613624515,1.343850076456194e-46,-1.8542657901267596,0.0036363806169550615,7.310707898235775e-47,-0.06267531785833531,0,70,255.0,255.0,255.0
407,20.35,1.954159018346836,1.2362592775567488e-47,-19.425125298712942,0.06276151716343524,1.0576312192489848e-46,-1.857361147027492,0.003007260470648025,-1.2179825078111768e-45,-0.0611389581709584,0,70,255.0,255.0,255.0
408,20.400000000000002,1.957300591147202,1.559031674255116e-47,-19.51806913961216,0.06289615218330996,1.2586756864499968e-47,-1.8603796859438555,0.002378140324340989,-2.5090720946047113e-45,-0.059602598483581494,0,70,255.0,255.0,255.0
409,20.450000000000003,1.9604481092983788,1.2545360473022867e-47,-19.611161987007588,0.06299933119586934,-1.4514408753557627e-46,-1.8633214068758504,0.001749020178033953,-3.8001616813982457e-45,-0.05806623879620459,0,70,255.0,255.0,255.0
410,20.5,1.9636,0.0,-19.7044,0.06307105420111335,-3.674294112753118e-46,-1.8661863098234759,0.0011199000317266838,-5.0912512681916886e-45,-0.05652987910882068,0,70,255.0,255.0,255.0
411,20.55,1.9667549305016852,-2.272786300940701e-47,-19.797779872750638,0.06312572419809019,-5.015316763089837e-46,-1.869006498413467,0.0010668998473472905,-2.728393331551103e-46,-0.05627766449083004,0,70,255.0,255.0,255.0
412,20.6,1.9699125282529888,-4.613782435170183e-47,-19.8913004396625,0.06317774418584808,-3.947133445908232e-46,-1.871814076272559,0.0010138996629678971,4.545572601881468e-45,-0.05602544987283941,0,70,255.0,255.0,255.0
413,20.650000000000002,1.97307266075345,-5.818385418929262e-47,-19.984961070199045,0.06322711416438699,-4.697441612083028e-47,-1.8746090434007512,0.0009608994785885039,9.363984536918046e-45,-0.05577323525484877,0,70,255.0,255.0,255.0
414,20.700000000000003,1.9762351955026072,-4.681992268458767e-47,-20.07876113382373,0.06327383413370694,5.416851091009947e-46,-1.877391399798044,0.0009078992942091105,1.4182396471954625e-44,-0.05552102063685814,0,70,255.0,255.0,255.0
415,20.75,1.9794,0.0,-20.1727,0.0633179040938079,1.3712652310745847e-45,-1.880161145464437,0.0008548991098294989,1.9000808406990857e-44,-0.05526880601887463,0,70,255.0,255.0,255.0
416,20.8,1.9825673142956128,8.482153949857224e-47,-20.266776603788315,0.063381677071395,1.8717416975903152e-45,-1.8828922162193662,0.001696019993654375,1.0182502536380818e-45,-0.05397402417829118,0,70,255.0,255.0,255.0
417,20.85,1.9857388686412094,1.7218870463123977e-46,-20.360988142637073,0.06348750609317334,1.4730902564383944e-45,-1.885558547882266,0.002537140877479251,-1.6964307899714693e-44,-0.05267924233770774,0,70,255.0,255.0,255.0
418,20.900000000000002,1.988916765839,2.1714510001461934e-46,-20.455331379591676,0.06363539115914292,1.7531090761882116e-46,-1.888160140453137,0.003378261761304127,-3.494686605306747e-44,-0.05138446049712429,0,70,255.0,255.0,255.0
419,20.950000000000003,1.9921031086911938,1.7473433026532774e-46,-20.549803077697522,0.06382533226930376,-2.0215963488684024e-45,-1.8906969939319787,0.004219382645129003,-5.292942420642025e-44,-0.050089678656540855,0,70,255.0,255.0,255.0
420,21.0,1.9953,0.0,-20.6444,0.0640573294236558,-5.117631513023027e-45,-1.8931691083187911,0.005060503528953486,-7.091198235977174e-44,-0.048794896815955724,0,70,255.0,255.0,255.0
421,21.05,1.9985086123158644,-3.1655829498488196e-46,-20.739119312096122,0.06427556751633048,-6.985435114052278e-45,-1.8956006367090938,0.0036690201780335907,-3.800161681397207e-45,-0.04846623879615279,0,70,255.0,255.0,255.0
422,21.1,2.001726397182174,-6.426169941732573e-46,-20.833959789789226,0.06442423144145917,-5.4976476811627535e-45,-1.8980157321984064,0.002277536827113696,6.331165899697732e-44,-0.04813758077634985,0,70,255.0,255.0,255.0
423,21.150000000000002,2.0049498758905515,-8.10396545869185e-46,-20.928920611434283,0.06450332119904185,-6.5426921435445375e-46,-1.900414394786729,0.0008860534761938009,1.3042347967535186e-43,-0.04780892275654692,0,70,255.0,255.0,255.0
424,21.200000000000003,2.008175569732619,-6.5211739837672294e-46,-21.02400095538622,0.06451283678907854,7.544700286372616e-45,-1.9027966244740613,-0.0005054298747260945,1.9753530035372637e-43,-0.047480264736743986,0,70,255.0,255.0,255.0
425,21.25,2.0114,0.0,-21.1192,0.06445277821156925,1.909926082101752e-44,-1.9051624212604032,-0.001896913225646113,2.6464712103209604e-43,-0.04715160671694463,0,70,255.0,255.0,255.0
426,21.3,2.01462063644093,1.1814116404409557e-45,-21.214516547827216,0.06438005286328323,2.606999875861879e-44,-1.907489236944249,-0.0010121007057950367,1.4182396471950712e-44,-0.04592102063688513,0,70,255.0,255.0,255.0
427,21.35,2.017838742630095,2.398279272061789e-45,-21.30994789820603,0.06435156814098975,2.0517500468212614e-44,-1.909754523324092,-0.00012728818594396046,-2.362823280881946e-43,-0.04469043455682563,0,70,255.0,255.0,255.0
428,21.400000000000002,2.0210565305987958,3.0244410834621183e-45,-21.405490974671224,0.06436732404468883,2.4417659497989945e-45,-1.9119582803999315,0.0007575243339071158,-4.867470526483398e-43,-0.04345984847676613,0,70,255.0,255.0,255.0
429,21.450000000000003,2.0242762123783304,2.4337352632415654e-45,-21.50114270075762,0.06442732057438046,-2.815720479662207e-44,-1.9141005081717686,0.001642336853758192,-7.372117772084853e-43,-0.04222926239670663,0,70,255.0,255.0,255.0
430,21.5,2.0275,0.0,-21.5969,0.06453155773006462,-7.127941177104705e-44,-1.916181206639602,0.0025271493736090944,-9.876765017686126e-43,-0.04099867631663834,0,70,255.0,255.0,255.0
431,21.55,2.030729641920417,-4.40908826677894e-45,-21.69276009659502,0.0646522210305332,-9.729455992042288e-44,-1.9182184155139321,0.0022993826451332936,-5.292942420640602e-44,-0.04048967865656045,0,70,255.0,255.0,255.0
432,21.6,2.0339650322974463,-8.950500094073898e-45,-21.788721417386682,0.06476149599457795,-7.657235419168773e-44,-1.9202301745052581,0.0020716159166574923,8.818176533558005e-43,-0.03998068099648256,0,70,255.0,255.0,255.0
433,21.650000000000002,2.0372056017142675,-1.1287367787979292e-44,-21.884782689880833,0.06485938262219894,-9.112794584841552e-45,-1.9222164836135804,0.0018438491881816912,1.8165647309180072e-42,-0.039471683336404675,0,70,255.0,255.0,255.0
434,21.700000000000003,2.040450780754059,-9.082823654589539e-45,-21.980942641583326,0.06494588091339612,1.0508411890011557e-43,-1.9241773428388986,0.0016160824597058901,2.7513118084802136e-42,-0.03896268567632678,0,70,255.0,255.0,255.0
435,21.75,2.0437,0.0,-22.0772,0.06502099086816952,2.6601838626317067e-43,-1.926112752181213,0.0013883157312301053,3.686058886042355e-42,-0.03845368801624893,0,70,255.0,255.0,255.0
436,21.8,2.046952795877403,1.6454941426674808e-44,-22.173553465792722,0.06509106301458233,3.631082409230728e-43,-1.928021101000035,0.0014145701252822333,1.975353003536733e-43,-0.03788026473663314,0,70,255.0,255.0,255.0
437,21.85,2.05020912818012,3.34037211042338e-44,-22.270001632247272,0.06516244788069775,2.8577191629853825e-43,-1.9299007786548763,0.0014408245193343612,-3.290988285335008e-42,-0.037306841457017355,0,70,255.0,255.0,255.0
438,21.900000000000002,2.0534690625441345,4.212503006845506e-44,-22.366543065805477,0.06523514546651576,3.400941238956711e-44,-1.9317517851457366,0.0014670789133864892,-6.77951187102369e-42,-0.03673341817740156,0,70,255.0,255.0,255.0
439,21.950000000000003,2.056732664605433,3.389755935511659e-44,-22.463176332909114,0.0653091557720364,-3.921792708038405e-43,-1.9335741204726165,0.0014933333074386172,-1.0268035456712371e-41,-0.03615999489778578,0,70,255.0,255.0,255.0
440,22.0,2.06,0.0,-22.5599,0.06538447879725963,-9.927941332816357e-43,-1.9353677846355155,0.0015195877014907433,-1.3756559042400804e-41,-0.03558657161817891,0,70,255.0,255.0,255.0
441,22.05,2.0632711745699703,-6.141067743992029e-44,-22.656712440234124,0.06546352691114063,-1.3551384037718681e-42,-1.9371211804858897,0.0016423368537495059,-7.372117772082861e-43,-0.03454926239679067,0,70,255.0,255.0,255.0
442,22.1,2.0665464549820745,-1.2466438432286133e-43,-22.75361125362424,0.06554871248263458,-1.0665153110024652e-42,-1.9388227108751948,0.0017650860060082687,1.2282135487984232e-41,-0.033511953175402426,0,70,255.0,255.0,255.0
443,22.150000000000002,2.069826148109194,-1.572127524858409e-43,-22.850593846897294,0.06564003551174145,-1.2692485497342678e-43,-1.9404723758034301,0.0018878351582670312,2.530148275317675e-41,-0.032474643954014185,0,70,255.0,255.0,255.0
444,22.200000000000003,2.073110560824209,-1.2650741376587686e-43,-22.947657626780234,0.06573749599846129,1.4636329643152462e-42,-1.942070175270596,0.002010584310525794,3.832083001836927e-41,-0.03143733473262594,0,70,255.0,255.0,255.0
445,22.25,2.0764,0.0,-23.0448,0.06584109394279404,3.705158146863372e-42,-1.9436161092766928,0.002133333462784326,5.134017728356086e-41,-0.0304000255112431,0,70,255.0,255.0,255.0
446,22.3,2.0796945058427174,2.2918776833300635e-43,-23.142018373270794,0.06593482934085629,5.057445374164399e-42,-1.9451101770563841,0.0016160824597058069,2.7513118084794604e-42,-0.029362685676416676,0,70,255.0,255.0,255.0
447,22.35,2.082993051891583,4.652538161872115e-43,-23.23931015325578,0.06600270218876463,3.9802893277113213e-42,-1.9465523778443345,0.001098831456627288,-4.583755366660194e-41,-0.028325345841590247,0,70,255.0,255.0,255.0
448,22.400000000000002,2.086294345019091,5.867259798749085e-43,-23.336672746605366,0.06604471248651902,4.736900075041376e-43,-1.9479427116405432,0.0005815804535487692,-9.442641914168334e-41,-0.027288006006763822,0,70,255.0,255.0,255.0
449,22.450000000000003,2.089597092097733,4.7213209570839075e-43,-23.434103559969973,0.0660608602341195,-5.462352586457149e-42,-1.949281178445011,6.43294504702502e-05,-1.4301528461676473e-40,-0.026250666171937394,0,70,255.0,255.0,255.0
450,22.5,2.0929,0.0,-23.5316,0.06605114543156605,-1.3827838454171853e-41,-1.950567778257737,-0.00045292155260823197,-1.916041500918426e-40,-0.02521332633710749,0,70,255.0,255.0,255.0
451,22.55,2.0962020020591625,-8.553403958921049e-43,-23.62915966668271,0.0660291557254367,-1.8874643092885726e-41,-1.9518141112886067,-0.00042666669256539135,-1.0268035456709525e-41,-0.024639994897678354,0,70,255.0,255.0,255.0
452,22.6,2.099502937451594,-1.7363508804259844e-42,-23.726780933352664,0.06600847876230952,-1.4854641999842821e-41,-1.953031777747505,-0.00040041183252255067,1.7106807917842353e-40,-0.024066663458249222,0,70,255.0,255.0,255.0
453,22.650000000000002,2.1028028718144443,-2.1896911670137936e-42,-23.824462366681264,0.06598911454218445,-1.7678351750431275e-42,-1.9542207776344316,-0.00037415697247971,3.5240419381355655e-40,-0.023493332018820087,0,70,255.0,255.0,255.0
454,22.700000000000003,2.106101870784862,-1.762020969067686e-42,-23.922202533339913,0.06597106306506155,2.038577738151334e-41,-1.955381110949387,-0.00034790211243686936,5.3374030844868965e-40,-0.022920000579390955,0,70,255.0,255.0,255.0
455,22.75,2.1094,0.0,-24.02,0.06595432433094078,5.160619566982403e-41,-1.9565127776923708,-0.00032164725239391956,7.150764230838096e-40,-0.02234666913995831,0,70,255.0,255.0,255.0
456,22.8,2.112697485920633,3.1921738152354135e-42,-24.117853359998374,0.06594854775739419,7.044112699737852e-41,-1.957617377789184,9.058431053015655e-05,3.8320830018358843e-41,-0.02183733473258264,0,70,255.0,255.0,255.0
457,22.85,2.1159951983020417,6.480149705516726e-42,-24.215761313333584,0.06596338276199379,5.543827867165998e-41,-1.9586965111656292,0.0005028158734542327,-6.384347630470919e-40,-0.021328000325206972,0,70,255.0,255.0,255.0
458,22.900000000000002,2.119294167723135,8.172038688180267e-42,-24.3137225866696,0.06599882934473962,6.597650692668398e-42,-1.959750177821705,0.0009150474363783087,-1.3151903561125426e-39,-0.020818665917831304,0,70,255.0,255.0,255.0
459,22.950000000000003,2.1225954247628183,6.575951780562349e-42,-24.41173590667042,0.06605488750563164,-7.608075693959615e-41,-1.9607783777574121,0.0013272789993023849,-1.9919459491779935e-39,-0.020309331510455636,0,70,255.0,255.0,255.0
460,23.0,2.1259,0.0,-24.5098,0.06613155724466985,-1.9259694422512427e-40,-1.9617811109727503,0.0017395105622264317,-2.668701542243396e-39,-0.019799997103067568,0,70,255.0,255.0,255.0
461,23.05,2.1292088542583065,-1.1913354865049548e-41,-24.607913293323794,0.06622465324498737,-2.6288986489662833e-40,-1.9627403775546293,0.0019843294504743128,-1.430152846167263e-40,-0.01857066617208714,0,70,255.0,255.0,255.0
462,23.1,2.1325226693402395,-2.418424794164092e-41,-24.70607301331302,0.06632999018971728,-2.0689847268679705e-40,-1.963638177589959,0.0022291483387221938,2.3826709730099435e-39,-0.017341335241106714,0,70,255.0,255.0,255.0
463,23.150000000000002,2.1358420572930186,-3.0498463585707264e-41,-24.80427608664035,0.06644756807885958,-2.462276759563052e-41,-1.9644745110787398,0.0024739672269700743,4.908357230636613e-39,-0.016112004310126285,0,70,255.0,255.0,255.0
464,23.200000000000003,2.1391676301638656,-2.454178615318171e-41,-24.90251943997846,0.06657738691241429,2.8393725037687126e-40,-1.9652493780209719,0.0027187861152179558,7.434043488263284e-39,-0.014882673379145858,0,70,255.0,255.0,255.0
465,23.25,2.1425,0.0,-25.0008,0.06671944669038138,7.1878158123067305e-40,-1.9659627784166545,0.002963605003465819,9.959729745889775e-39,-0.013653342448158412,0,70,255.0,255.0,255.0
466,23.3,2.145839097046142,4.446124564496278e-41,-25.099115066706453,0.06683283926265679,9.811183325891347e-40,-1.9666371119923403,0.0015720978875502192,5.3374030844854544e-40,-0.013320000579275154,0,70,255.0,255.0,255.0
467,23.35,2.1491821243370026,9.025684206104696e-41,-25.197463433414345,0.0668766564791364,7.721556120755283e-40,-1.967294778474582,0.00018059077163461949,-8.892249128992684e-39,-0.012986658710391898,0,70,255.0,255.0,255.0
468,23.400000000000002,2.1525256031047926,1.1382181565464884e-40,-25.295844266769024,0.06685089833982023,9.189341968985372e-41,-1.9679357778633795,-0.0012109163442809807,-1.831823856643391e-38,-0.01265331684150864,0,70,255.0,255.0,255.0
469,23.450000000000003,2.1558660545817214,9.159119283216451e-41,-25.394256733415794,0.0667555648447083,-1.059668244567889e-39,-1.968560110158733,-0.00260242346019658,-2.774422800387514e-38,-0.012319974972625384,0,70,255.0,255.0,255.0
470,23.5,2.1592,0.0,-25.4927,0.06659065599380061,-2.6825293806975678e-39,-1.969167775360642,-0.003993930576111748,-3.71702174413157e-38,-0.011986633103731492,0,70,255.0,255.0,255.0
471,23.55,2.162525157557126,-1.6593162771480156e-40,-25.591172839850415,0.06642798970438081,-3.661583465459911e-39,-1.9697351744759954,-0.002512721000680075,-1.9919459491774548e-39,-0.010709331510400925,0,70,255.0,255.0,255.0
472,23.6,2.1658440333117506,-3.3684312030254696e-40,-25.68967245302961,0.0663393838937326,-2.881723975615316e-39,-1.9702387085116821,-0.0010315114252484017,3.318632554296079e-38,-0.009432029917070359,0,70,255.0,255.0,255.0
473,23.650000000000002,2.169160330287812,-4.2478879903288804e-40,-25.78819564628359,0.06632483856185596,-3.4295091116378363e-40,-1.9706783774677024,0.0004496981501832722,6.836459703509903e-38,-0.008154728323739792,0,70,255.0,255.0,255.0
474,23.700000000000003,2.1724777515092493,-3.418229851754763e-40,-25.886739226358387,0.06638435370875093,3.954735727894685e-39,-1.9710541813440563,0.0019309077256149448,1.0354286852723728e-37,-0.006877426730409224,0,70,255.0,255.0,255.0
475,23.75,2.1758,0.0,-25.9853,0.06651792933441747,1.0011335941559597e-38,-1.971366120140743,0.0034121173010466244,1.38721140019373e-37,-0.005600125137069867,0,70,255.0,255.0,255.0
476,23.8,2.1791298727253534,6.192652652142434e-40,-26.083875173891894,0.06667120191982387,1.3665215529250507e-38,-1.9716381901036524,0.0027187861152093164,7.434043488261266e-39,-0.005282673379301523,0,70,255.0,255.0,255.0
477,23.85,2.1824665424159946,1.2571156391491404e-39,-26.182463554467237,0.0667898079459384,1.0754740290385731e-38,-1.9718943874786734,0.0020254549293720085,-1.2385305304285047e-37,-0.00496522162153318,0,70,255.0,255.0,255.0
478,23.900000000000002,2.185808275743959,1.585333380476903e-39,-26.28106434809663,0.06687374741276107,1.2799102249652824e-39,-1.9721347122658055,0.0013321237435347006,-2.551401495739622e-37,-0.004647769863764837,0,70,255.0,255.0,255.0
479,23.950000000000003,2.1891533393812823,1.2757007478697406e-39,-26.379676761150687,0.06692302032029188,-1.4759274667010852e-38,-1.9723591644650498,0.0006387925576973926,-3.86427246105074e-37,-0.004330318105996493,0,70,255.0,255.0,255.0
480,24.0,2.1925,0.0,-26.4783,0.06693762666853081,-3.736281438554082e-38,-1.9725677440764053,-5.453862813986632e-05,-5.177143426361764e-37,-0.004012866348228172,0,70,255.0,255.0,255.0
481,24.05,2.1958465515414614,-2.3111294331421723e-39,-26.576932864582016,0.0669192026163223,-5.099927865154212e-38,-1.9727360651094237,-0.0006824234602008073,-2.7744228003867693e-38,-0.002719974972508847,0,70,255.0,255.0,255.0
482,24.1,2.199191397024272,-4.6916194362940156e-39,-26.67557252910147,0.06686938432251073,-4.0137237185927626e-38,-1.9728397415736563,-0.0013103082922617483,4.62225886628441e-37,-0.001427083596789521,0,70,255.0,255.0,255.0
483,24.150000000000002,2.2025329667363525,-5.916544722874724e-39,-26.774215761329906,0.06678817178709612,-4.776689988697362e-39,-1.9728787734691027,-0.0019381931243226892,9.521960012607497e-37,-0.00013419222107019556,0,70,255.0,255.0,255.0
484,24.200000000000003,2.205869690965622,-4.760980006303489e-39,-26.8728593290389,0.06667556501007846,5.50823629401487e-38,-1.9728531607957633,-0.0025660779563836302,1.4421661158930584e-36,0.0011586991546491303,0,70,255.0,255.0,255.0
485,24.25,2.2092,0.0,-26.9715,0.06653156399145777,1.3943992160060368e-37,-1.9727629035536378,-0.0031939627884443045,1.9321362305253325e-36,0.002451590530364811,0,70,255.0,255.0,255.0
486,24.3,2.2125231211088017,8.625252467354445e-39,-27.070134967780046,0.06640398761488725,1.9033189907691795e-37,-1.9726335494586393,-0.0019090922743759714,1.0354286852720948e-37,0.0027225732695715303,0,70,255.0,255.0,255.0
487,24.35,2.215841469486917,1.750936210602692e-38,-27.168763129126916,0.06634065476402017,1.4979420845332475e-37,-1.9724906462266805,-0.0006242217603076384,-1.7250504934709135e-36,0.0029935560087782495,0,70,255.0,255.0,255.0
488,24.400000000000002,2.219158257310632,2.208084551102199e-38,-27.267383806583766,0.06634156543885648,1.7826849729824154e-38,-1.9723341938577617,0.0006606487537606947,-3.553643855469037e-36,0.003264538747984969,0,70,255.0,255.0,255.0
489,24.450000000000003,2.2224766967562313,1.776821927734421e-38,-27.365996322693746,0.06640671963939623,-2.0557017709358405e-37,-1.9721641923518822,0.0019455192678290278,-5.382237217467159e-36,0.0035355214871916883,0,70,255.0,255.0,255.0
490,24.5,2.2258,0.0,-27.4646,0.06653611736563939,-5.203968720168739e-37,-1.9719806417090424,0.0032303897818972693,-7.210830579465152e-36,0.0038065042263948357,0,70,255.0,255.0,255.0
491,24.55,2.2291305640233325,-3.21898804362756e-38,-27.563193664297806,0.06668084692412914,-7.1032831765612966e-37,-1.971753737056033,0.002558792557692903,-3.8642724610496874e-37,0.005269681893980425,0,70,255.0,255.0,255.0
492,24.6,2.2324675250280595,-6.534582898781366e-38,-27.661774154390887,0.06679199662140868,-5.590395966273713e-37,-1.9714536735196442,0.001887195333488537,6.437976087255214e-36,0.006732859561566015,0,70,255.0,255.0,255.0
493,24.650000000000002,2.2358092040211197,-8.240683732121322e-38,-27.760337812335056,0.06686956645747799,-6.653070893059886e-38,-1.9710804510998765,0.0012155981092841707,1.3262379420615397e-35,0.008196037229151605,0,70,255.0,255.0,255.0
494,24.700000000000003,2.239153922009454,-6.631189710307331e-38,-27.858880980186154,0.0669135564323371,7.671983454341877e-37,-1.9706340697967293,0.0005440008850798048,2.008678275397558e-35,0.009659214896737194,0,70,255.0,255.0,255.0
495,24.75,2.2425,0.0,-27.9574,0.06692396654598598,1.9421475664668917e-36,-1.9701145296102025,-0.0001275963391247359,2.691118608733528e-35,0.011122392564331562,0,70,255.0,255.0,255.0
496,24.8,2.2458458227978686,1.2013426927774798e-37,-28.055891975028725,0.06690462468859816,2.6509813715476e-36,-1.9695675023172268,-0.0006460779563880766,1.4421661158926668e-36,0.010758699154696667,0,70,255.0,255.0,255.0
497,24.85,2.249190030400846,2.4387395384522773e-37,-28.154357053309564,0.06685935875034717,2.0863641780561605e-36,-1.969038659694733,-0.0011645595736514173,-2.4026853855549945e-35,0.01039500574506177,0,70,255.0,255.0,255.0
498,24.900000000000002,2.2525313266048888,3.0754650377383094e-37,-28.252796144076047,0.06678816873123303,2.4829598599257136e-37,-1.9685280017427205,-0.0016830411909147579,-4.949587382699256e-35,0.010031312335426874,0,70,255.0,255.0,255.0
499,24.950000000000003,2.255868415205955,2.4747936913494928e-37,-28.351210156561685,0.0666910546312557,-2.8632232046431648e-36,-1.9680355284611901,-0.0022015228081780987,-7.496489379843517e-35,0.009667618925791977,0,70,255.0,255.0,255.0
500,25.0,2.2592,0.0,-28.4496,0.06656801645041521,-7.248193393850693e-36,-1.9675612398501416,-0.0027200044254414024,-1.0043391376987596e-34,0.009303925516162437,0,70,255.0,255.0,255.0
501,25.05,2.2625253447851943,-4.483471966747162e-37,-28.547965635587296,0.06645265432147492,-9.893597168534273e-36,-1.9670482536750582,-0.0018944807321705664,-5.382237217465717e-36,0.0112155214871738,0,70,255.0,255.0,255.0
502,25.1,2.2658459533685584,-9.101499863930973e-37,-28.64630323237087,0.06637856837719815,-7.786417115597273e-36,-1.9664396877014243,-0.0010689570388997304,8.966943933494453e-35,0.013127117458185166,0,70,255.0,255.0,255.0
503,25.150000000000002,2.2691638895593256,-1.1477791777741106e-36,-28.744608011360796,0.06634575861758493,-9.26653235039687e-37,-1.9657355419292397,-0.00024343334562889436,1.847211158873548e-34,0.015038713429196531,0,70,255.0,255.0,255.0
504,25.200000000000003,2.272481217166728,-9.236055794367237e-37,-28.84287519356715,0.06635422504263527,1.0685694473138472e-35,-1.9649358163585045,0.0005820903476419417,2.7977279243976502e-34,0.016950309400207895,0,70,255.0,255.0,255.0
505,25.25,2.2758,0.0,-28.9411,0.06640396765234914,2.705062600893588e-35,-1.964040510989219,0.0014076140409130522,3.748244689921686e-34,0.018861905371219123,0,70,255.0,255.0,255.0
506,25.3,2.2791215980613537,1.6732545174211168e-36,-29.03927828262211,0.0664527580254994,3.6923407302589486e-35,-1.9630874829825204,0.0005440008850968614,2.0086782753970138e-35,0.019259214896718297,0,70,255.0,255.0,255.0
507,25.35,2.28244455612492,3.39672599172716e-36,-29.137408417206984,0.06645836774085882,2.9059304284332914e-35,-1.962114589499547,-0.0003196122707193295,-3.3465090348422834e-34,0.01965652442221747,0,70,255.0,255.0,255.0
508,25.400000000000002,2.2857667151578096,4.283570207322611e-36,-29.235489410480795,0.06642079679842745,3.4583169541661804e-36,-1.9611218305402989,-0.0011832254265355204,-6.893885897224267e-34,0.02005383394771664,0,70,255.0,255.0,255.0
509,25.450000000000003,2.289085916127133,3.4469429486119426e-36,-29.333520269169743,0.06634004519820527,-3.987955468791075e-35,-1.9601092061047753,-0.002046838582351711,-1.0441262759606253e-33,0.020451143473215815,0,70,255.0,255.0,255.0
510,25.5,2.2924,0.0,-29.4315,0.06621611294019229,-1.0095431064189283e-34,-1.9590767161929772,-0.002910451738168063,-1.3988639621987978e-33,0.020848452998722067,0,70,255.0,255.0,255.0
511,25.55,2.2957074629693914,-6.244670873009751e-36,-29.529427633924264,0.0660883135765332,-1.3780003204182365e-34,-1.9580258143948648,-0.0022015228081952677,-7.496489379841464e-35,0.021187618925769064,0,70,255.0,255.0,255.0
512,25.6,2.299009422131762,-1.2676753980515546e-35,-29.627302298801215,0.06599596065937276,-1.084508000217344e-34,-1.9569579543004,-0.0014925938782224721,1.2489341746019685e-33,0.02152678485281606,0,70,255.0,255.0,255.0
513,25.650000000000002,2.302307649809437,-1.598650165151633e-35,-29.725123146716033,0.06593905418871096,-1.2906614581624978e-35,-1.9558731359095831,-0.000783664948249677,2.5728332430023518e-33,0.021865950779863055,0,70,255.0,255.0,255.0
514,25.700000000000003,2.3056039183247417,-1.2864166215011054e-35,-29.822889329753906,0.06591759416454779,1.4883252427850446e-34,-1.954771359222414,-7.473601827688147e-05,3.896732311402735e-33,0.022205116706910052,0,70,255.0,255.0,255.0
515,25.75,2.3089,0.0,-29.9206,0.06593158058688325,3.767666165586354e-34,-1.9536526242388923,0.0006341929116955303,5.2206313798030244e-33,0.02254428263396413,0,70,255.0,255.0,255.0
516,25.8,2.3121973500610817,2.3305428974617893e-35,-30.018253581680835,0.0659619876683667,5.142767208647053e-34,-1.9524732594380367,0.0005820903476420718,2.7977279243969014e-34,0.02463030940025955,0,70,255.0,255.0,255.0
517,25.85,2.3154961553480335,4.731028993033502e-35,-30.115845587588165,0.06598978962164746,4.047438958026048e-34,-1.9511895932988663,0.0005299877835886132,-4.661085794923644e-33,0.02671633616655497,0,70,255.0,255.0,255.0
518,25.900000000000002,2.3187962856044435,5.966243639874271e-35,-30.213370802655085,0.06601498644672556,4.816814137233414e-35,-1.949801625821381,0.00047788521953515465,-9.601944382286978e-33,0.02880236293285039,0,70,255.0,255.0,255.0
519,25.950000000000003,2.322097610573903,4.800972191143225e-35,-30.31082401181467,0.06603757814360098,-5.554505424261066e-34,-1.9483093570055814,0.00042578265548169603,-1.4542802969650312e-32,0.03088838969914581,0,70,255.0,255.0,255.0
520,26.0,2.3254,0.0,-30.4082,0.06605756471227373,-1.4061121555926488e-33,-1.9467127868514669,0.00037368009142801917,-1.9483661557013295e-32,0.032974416465439305,0,70,255.0,255.0,255.0
521,26.05,2.3287031367862805,-8.69770450254618e-35,-30.50549483935241,0.06606373575000074,-1.9193068514169973e-33,-1.9450891478529992,-0.00012683858234772852,-1.0441262759603406e-33,0.03197114347325892,0,70,255.0,255.0,255.0
522,26.1,2.332005956476105,-1.7656440574082454e-34,-30.60270975084613,0.06604488085403895,-1.5105247831886845e-33,-1.943515672504141,-0.0006273572561234762,1.7395409005092614e-32,0.030967870481078536,0,70,255.0,255.0,255.0
523,26.150000000000002,2.33530720777279,-2.226632439434545e-34,-30.69984724266365,0.06600100002438838,-1.7976595090771077e-34,-1.9419923608048915,-0.0011278759298992238,3.5834944286145563e-32,0.02996459748889815,0,70,255.0,255.0,255.0
524,26.200000000000003,2.3386056393796495,-1.7917472143071798e-34,-30.79690982298745,0.06593209326104903,2.0729696454259232e-33,-1.940519212755251,-0.0016283946036749716,5.427447956719853e-32,0.028961324496717764,0,70,255.0,255.0,255.0
525,26.25,2.3419,0.0,-30.8939,0.06583816056402088,5.24768200581196e-33,-1.93909622835522,-0.0021289132774510167,7.271401484825015e-32,0.027958051504539227,0,70,255.0,255.0,255.0
526,26.3,2.3451893027937953,3.2460275112722932e-34,-30.990819060909548,0.06573506933162758,7.162950684803284e-33,-1.9376501491499358,-0.001994736018281194,3.896732311401671e-33,0.029885116706828925,0,70,255.0,255.0,255.0
527,26.35,2.348473618747545,6.58947333032963e-34,-31.087663409027325,0.06563868696219276,5.637355236952134e-33,-1.936107716684537,-0.001860558759111371,-6.492055022544681e-32,0.03181218190911862,0,70,255.0,255.0,255.0
528,26.400000000000002,2.3517532833043977,8.309905393750752e-34,-31.184428226690333,0.06554901345571644,6.708956622585094e-34,-1.934468930959024,-0.0017263814999415482,-1.3373783276229526e-31,0.03373924711140831,0,70,255.0,255.0,255.0
529,26.450000000000003,2.3550286319075,6.686891638114394e-34,-31.281108696235563,0.0654660488121986,-7.736428039277587e-33,-1.9327337919733962,-0.0015922042407717253,-2.0255511529914377e-31,0.03566631231369801,0,70,255.0,255.0,255.0
530,26.5,2.3583,0.0,-31.3777,0.06538979303163928,-1.9584615867655189e-32,-1.9309022997276544,-0.001458026981601801,-2.713723978359874e-31,0.03759337751598224,0,70,255.0,255.0,255.0
531,26.55,2.361567652038537,-1.2114339594834554e-33,-31.474197717009414,0.0653159869234866,-2.6732495887796135e-32,-1.9289982555472767,-0.0014942173445053448,-1.4542802969646387e-32,0.03856838969912461,0,70,255.0,255.0,255.0
532,26.6,2.3648315685337127,-2.459224926391028e-33,-31.57059901304458,0.06524037129718874,-2.1038896164619847e-32,-1.9270454607577419,-0.0015304077074088883,2.422867918966946e-31,0.039543401882266974,0,70,255.0,255.0,255.0
533,26.650000000000002,2.3680916590096204,-3.101298913556847e-33,-31.666901450575036,0.06516294615274572,-2.5038166981263256e-33,-1.92504391535905,-0.001566598070312432,4.991163867630356e-31,0.04051841406540935,0,70,255.0,255.0,255.0
534,26.700000000000003,2.371347832990352,-2.49558193381504e-33,-31.763102592070332,0.06508371149015749,2.8872742511684424e-32,-1.9229936193512007,-0.0016027884332159756,7.5594598162937664e-31,0.041493426248551714,0,70,255.0,255.0,255.0
535,26.75,2.3746,0.0,-31.8592,0.0650026673094241,7.30907814648088e-32,-1.9208945727341948,-0.0016389787961198499,1.0127755764956992e-30,0.04246843843169046,0,70,255.0,255.0,255.0
536,26.8,2.377848089052056,4.521133086806592e-33,-31.955191671052816,0.064920982974429,9.976703286638125e-32,-1.9187728286609802,-0.0016283946036837582,5.427447956718391e-32,0.04240132449689042,0,70,255.0,255.0,255.0
537,26.85,2.3810921071176034,9.177952372531148e-33,-32.051077338794386,0.06483982784905572,7.851822942152725e-32,-1.9166544402845058,-0.0016178104112476663,-9.042266173613313e-31,0.04233421056209039,0,70,255.0,255.0,255.0
538,26.900000000000002,2.3843320806571224,1.1574205114852313e-32,-32.146857171009536,0.06475920193330423,9.34437113024685e-33,-1.914539407604771,-0.0016072262188115746,-1.8627277142898466e-30,0.042267096627290356,0,70,255.0,255.0,255.0
539,26.950000000000003,2.387568036131094,9.313638571448723e-33,-32.242531335483136,0.06467910522717456,-1.0775454200746007e-31,-1.9124277306217767,-0.0015966420263754826,-2.821228811218362e-30,0.04219998269249032,0,70,255.0,255.0,255.0
540,27.0,2.3908,0.0,-32.3381,0.06459953773066669,-2.7277850999157996e-31,-1.910319409335522,-0.0015860578339396136,-3.7797299081468084e-30,0.04213286875769562,0,70,255.0,255.0,255.0
541,27.05,2.394027991753238,-1.687309838774291e-32,-32.43356279877934,0.06452008117879869,-3.7233563557772877e-31,-1.9081824298087426,-0.0015922042407801708,-2.025551152990887e-31,0.04334631231347396,0,70,255.0,255.0,255.0
542,27.1,2.397252002995874,-3.425258456373356e-32,-32.52891723177791,0.06444031730658867,-2.930340215214891e-31,-1.9059847781041745,-0.0015983506476207278,3.374619677548631e-30,0.04455975586925231,0,70,255.0,255.0,255.0
543,27.150000000000002,2.4004720183618917,-4.319552154585239e-32,-32.624160265386806,0.06436024611403662,-3.487366782286087e-32,-1.9037264542218173,-0.001604497054461285,6.951794470396351e-30,0.04577319942503065,0,70,255.0,255.0,255.0
544,27.200000000000003,2.4036880224852726,-3.4758972351979833e-32,-32.719288865997136,0.06427986760114253,4.021454255181558e-31,-1.9014074581616716,-0.001610643461301842,1.052896926324407e-29,0.04698664298080899,0,70,255.0,255.0,255.0
545,27.25,2.4069,0.0,-32.8143,0.06419918176790645,1.018023258501511e-30,-1.8990277899237369,-0.0016167898681425097,1.4106144056091537e-29,0.048200086536589026,0,70,255.0,255.0,255.0
546,27.3,2.410107943934991,6.297126046416505e-32,-32.90919073382981,0.0641186923103727,1.3895755094445339e-30,-1.896593452104107,-0.0016027884332077134,7.559459816291736e-31,0.04917342624860127,0,70,255.0,255.0,255.0
547,27.35,2.4133118808989,1.2783238588240308e-31,-33.00395853409399,0.06403890292458568,1.0936178566644294e-30,-1.8941104472988768,-0.001588786998272917,-1.259425209283319e-29,0.05014676596061352,0,70,255.0,255.0,255.0
548,27.400000000000002,2.4165118458953123,1.6120788106855725e-31,-33.09860096744327,0.06395981361054541,1.3015030016119697e-31,-1.8915787755080455,-0.0015747855633381207,-2.5944450167295555e-29,0.05112010567262577,0,70,255.0,255.0,255.0
549,27.450000000000003,2.4197078739278166,1.2972225083647069e-31,-33.19311560052837,0.06388142436825187,-1.5008271600651635e-30,-1.8889984367316142,-0.0015607841284033244,-3.9294648241757915e-29,0.05209344538463802,0,70,255.0,255.0,255.0
550,27.5,2.4229,0.0,-33.2875,0.06380373519770507,-3.799314524014464e-30,-1.886369430969582,-0.0015467826934687512,-5.264484631621934e-29,0.053066785096653746,0,70,255.0,255.0,255.0
