idx,t,px,py,pz,vx,vy,vz,ax,ay,az,yaw,mode,ledr,ledg,ledb
0,0.0,10.5,3.0,0.0,-8.658233725000115e-20,4.970624021871555e-20,0.019030436776039605,1.0389880470000137e-18,-5.964748826245866e-19,-0.5155652413124753,0,70,255.0,255.0,255.0
1,0.05,10.5,3.0,0.0003090957239374257,-3.9827875135000524e-20,2.286487050060915e-20,-0.006625999083021784,8.311904376000109e-19,-4.771799060996693e-19,-0.5106921930499801,0,70,255.0,255.0,255.0
2,0.1,10.5,3.0,-0.0006585390347500995,-3.463293490000043e-21,1.988249608748619e-21,-0.03203878252895842,6.233928282000082e-19,-3.5788492957475194e-19,-0.5058191447874851,0,70,255.0,255.0,255.0
3,0.15000000000000002,10.5,3.0,-0.0028907216554063375,2.2511407685000296e-20,-1.2923622456866054e-20,-0.0572079135617703,4.1559521880000542e-19,-2.3858995304983456e-19,-0.50094609652499,0,70,255.0,255.0,255.0
4,0.2,10.5,3.0,-0.006375269517375051,3.8096228390000493e-20,-2.1870745696234844e-20,-0.08213339218145743,2.0779760940000266e-19,-1.1929497652491728e-19,-0.49607304826249493,0,70,255.0,255.0,255.0
5,0.25,10.5,3.0,-0.0111,4.3291168625000573e-20,-2.4853120109357775e-20,-0.1068152183880198,0.0,0.0,-0.49119999999999986,0,70,255.0,255.0,255.0
6,0.30000000000000004,10.5,3.0,-0.017052730482624956,3.8096228390000493e-20,-2.1870745696234838e-20,-0.13125339218145746,-2.0779760940000293e-19,1.1929497652491742e-19,-0.48632695173750495,0,70,255.0,255.0,255.0
7,0.35000000000000003,10.5,3.0,-0.02422127834459367,2.2511407685000284e-20,-1.2923622456866035e-20,-0.15544791356177032,-4.155952188000056e-19,2.385899530498347e-19,-0.4814539034750101,0,70,255.0,255.0,255.0
8,0.4,10.5,3.0,-0.032593460965249905,-3.463293490000055e-21,1.9882496087486296e-21,-0.17939878252895844,-6.233928282000083e-19,3.5788492957475203e-19,-0.4765808552125152,0,70,255.0,255.0,255.0
9,0.45,10.5,3.0,-0.04215709572393743,-3.9827875135000536e-20,2.286487050060916e-20,-0.20310599908302182,-8.31190437600011e-19,4.771799060996693e-19,-0.47170780695002035,0,70,255.0,255.0,255.0
10,0.5,10.5,3.0,-0.0529,-8.658233725000115e-20,4.970624021871555e-20,-0.22656956322396044,-1.0389880470000135e-18,5.964748826245866e-19,-0.4668347586875261,0,70,255.0,255.0,255.0
11,0.55,10.5,3.0,-0.06480937379343764,-1.125570384250015e-19,6.461811228433021e-20,-0.24975243219114862,9.62964972193618e-34,-5.7777898331617076e-34,-0.46048000000000017,0,70,255.0,255.0,255.0
12,0.6000000000000001,10.5,3.0,-0.07786994758687528,-8.658233725000105e-20,4.970624021871549e-20,-0.27261756322396047,1.0389880470000154e-18,-5.964748826245877e-19,-0.4541252413124742,0,70,255.0,255.0,255.0
13,0.65,10.5,3.0,-0.09206583448359407,-8.658233725000087e-21,4.970624021871521e-21,-0.29516495632239603,2.0779760940000278e-18,-1.1929497652491734e-18,-0.44777048262494834,0,70,255.0,255.0,255.0
14,0.7000000000000001,10.5,3.0,-0.10738114758687527,1.212152721500018e-19,-6.95887363062019e-20,-0.3173946114864553,3.116964141000042e-18,-1.7894246478737604e-18,-0.4414157239374224,0,70,255.0,255.0,255.0
15,0.75,10.5,3.0,-0.1238,3.03038180375004e-19,-1.7397184076550442e-19,-0.33930652871613826,4.155952188000054e-18,-2.3858995304983464e-18,-0.4350609652498991,0,70,255.0,255.0,255.0
16,0.8,10.5,3.0,-0.14130657434362454,4.1213192531000545e-19,-2.36601703441086e-19,-0.36090487905394814,2.0779760939999862e-19,-1.1929497652491535e-19,-0.4288730482624959,0,70,255.0,255.0,255.0
17,0.8500000000000001,10.5,3.0,-0.15988533130790536,3.238179413150039e-19,-1.85901338417996e-19,-0.38219383354238784,-3.740356969200057e-18,2.1473095774485157e-18,-0.4226851312750926,0,70,255.0,255.0,255.0
18,0.9,10.5,3.0,-0.17952080110037383,3.8096228390000325e-20,-2.187074569623479e-20,-0.4031733921814574,-7.688511547800102e-18,4.413914131421942e-18,-0.4164972142876894,0,70,255.0,255.0,255.0
19,0.9500000000000001,10.5,3.0,-0.20019751392856155,-4.450332134650066e-19,2.5549007472419836e-19,-0.42384355497115683,-1.1636666126400158e-17,6.680518685395373e-18,-0.41030929730028615,0,70,255.0,255.0,255.0
20,1.0,10.5,3.0,-0.2219,-1.1255703842500149e-18,6.461811228433022e-19,-0.44420432191148607,-1.5584820705000202e-17,8.947123239368798e-18,-0.40412138031288514,0,70,255.0,255.0,255.0
21,1.05,10.5,3.0,-0.24461232883206424,-1.53597066281502e-18,8.817887014800139e-19,-0.46422805159305874,-8.311904375999945e-19,4.771799060996599e-19,-0.39682780695002134,0,70,255.0,255.0,255.0
22,1.1,10.5,3.0,-0.2683167271815035,-1.2086894280100147e-18,6.938991134532683e-19,-0.48388710260648826,1.3922439829800213e-17,-7.992763427169478e-18,-0.3895342335871575,0,70,255.0,255.0,255.0
23,1.1500000000000001,10.5,3.0,-0.29299496111491063,-1.437266798349974e-19,8.251235876306518e-20,-0.5031814749517746,2.867607009720042e-17,-1.6462706760438615e-17,-0.3822406602242937,0,70,255.0,255.0,255.0
24,1.2000000000000002,10.5,3.0,-0.31862879669887867,1.6589175817100296e-18,-9.523715625905947e-19,-0.5221111686289177,4.342970036460063e-17,-2.4932650093707754e-17,-0.3749470868614299,0,70,255.0,255.0,255.0
25,1.25,10.5,3.0,-0.3452,4.1992433566250554e-18,-2.4107526506077043e-18,-0.5406761836379175,5.818333063200078e-17,-3.3402593426976854e-17,-0.3676535134985688,0,70,255.0,255.0,255.0
26,1.3,10.5,3.0,-0.37269131032811864,5.731750725950076e-18,-3.29055310247897e-18,-0.5589349145738173,3.1169641409999986e-18,-1.789424647873735e-18,-0.36269572393742316,0,70,255.0,255.0,255.0
27,1.35,10.5,3.0,-0.40108935996608086,4.510939770725055e-18,-2.589695115395078e-18,-0.5769457560316599,-5.194940235000078e-17,2.9823744131229384e-17,-0.3577379343762775,0,70,255.0,255.0,255.0
28,1.4000000000000001,10.5,3.0,-0.43038175443998367,5.368104909499924e-19,-3.081786893560271e-19,-0.594708708011445,-1.0701576884100157e-16,6.14369129103325e-17,-0.35278014481513187,0,70,255.0,255.0,255.0
29,1.4500000000000002,10.5,3.0,-0.46055609927592445,-6.190637113375111e-18,3.553996175638177e-18,-0.6122237705131731,-1.6208213533200234e-16,9.305008168943562e-17,-0.34782235525398625,0,70,255.0,255.0,255.0
30,1.5,10.5,3.0,-0.4916,-1.5671403042250208e-17,8.996829479587515e-18,-0.6294909435368435,-2.1714850182300289e-16,1.2466325046853865e-16,-0.3428645656928362,0,70,255.0,255.0,255.0
31,1.55,10.5,3.0,-0.5235000298554614,-2.1391032240985287e-17,1.2280423708435868e-17,-0.6464482901116717,-1.1636666126399978e-17,6.680518685395297e-18,-0.33542929730028576,0,70,255.0,255.0,255.0
32,1.6,10.5,3.0,-0.5562386329541734,-1.683506965489021e-17,9.664881348127048e-18,-0.6630338732668721,1.9387516957020293e-16,-1.1130221309774806e-16,-0.3279940289077354,0,70,255.0,255.0,255.0
33,1.6500000000000001,10.5,3.0,-0.5897972211251548,-2.0035152839649756e-18,1.1502023986610467e-18,-0.6792476930024453,3.993870052668058e-16,-2.292849448808914e-16,-0.32055876051518495,0,70,255.0,255.0,255.0
34,1.7000000000000002,10.5,3.0,-0.6241572061974242,2.310363087179041e-17,-1.3263613139962117e-17,-0.6950897493183906,6.048988409634087e-16,-3.4726767666403478e-16,-0.3131234921226346,0,70,255.0,255.0,255.0
35,1.75,10.5,3.0,-0.6593,5.848636881237578e-17,-3.357656526774236e-17,-0.7105600422147085,8.104106766600106e-16,-4.652504084471775e-16,-0.30568822373008153,0,70,255.0,255.0,255.0
36,1.8,10.5,3.0,-0.6952077702500361,7.983237823799105e-17,-4.583114173126449e-17,-0.7257039249794963,4.342970036459983e-17,-2.4932650093707317e-17,-0.3000670868614311,0,70,255.0,255.0,255.0
37,1.85,10.5,3.0,-0.7318657082172259,6.282933884883575e-17,-3.60698302771131e-17,-0.7405667509008516,-7.23551275930811e-16,4.153851082597629e-16,-0.29444594999278056,0,70,255.0,255.0,255.0
38,1.9000000000000001,10.5,3.0,-0.7692597610593974,7.47725064490989e-18,-4.29263090528817e-18,-0.7551485199787744,-1.4905322522262217e-15,8.557028666132331e-16,-0.2888248131241301,0,70,255.0,255.0,255.0
39,1.9500000000000002,10.5,3.0,-0.8073758759343794,-8.622388637378654e-17,4.950045638421027e-17,-0.7694492322132647,-2.2575132285216325e-15,1.2960206249667034e-15,-0.28320367625547965,0,70,255.0,255.0,255.0
40,2.0,10.5,3.0,-0.8462,-2.1827407220725288e-16,1.253094315913819e-16,-0.7834688876043222,-3.02449420481704e-15,1.7363383833201722e-15,-0.2775825393868301,0,70,255.0,255.0,255.0
41,2.0500000000000003,10.5,3.0,-0.8857176891443945,-2.97938480710979e-16,1.7104414321662216e-16,-0.7971840099703427,-1.6208213533198666e-16,9.305008168942687e-17,-0.2710223552539863,0,70,255.0,255.0,255.0
42,2.1,10.5,3.0,-0.9259129341769236,-2.344822857404528e-16,1.3461443976032534e-16,-0.8105711231297209,2.7003299341530413e-15,-1.5502382199413039e-15,-0.2644621711211426,0,70,255.0,255.0,255.0
43,2.15,10.5,3.0,-0.9667693346372555,-2.7905487295675774e-17,1.6020321222492226e-17,-0.8236302270824568,5.562742003638069e-15,-3.1935265215720344e-15,-0.25790198698829897,0,70,255.0,255.0,255.0
44,2.2,10.5,3.0,-1.0082704900650588,3.217919146233558e-16,-1.8473821239687906e-16,-0.8363613218285508,8.425154073123123e-15,-4.83681482320278e-15,-0.2513418028554552,0,70,255.0,255.0,255.0
45,2.25,10.5,3.0,-1.0504,8.146099200166357e-16,-4.676611610977853e-16,-0.8487644073680023,1.128756614260815e-14,-6.4801031248335085e-15,-0.24478161872261772,0,70,255.0,255.0,255.0
46,2.3000000000000003,10.5,3.0,-1.093141473172387,1.1119215446059248e-15,-6.383454311352239e-16,-0.8608400351391337,6.048988409633524e-16,-3.4726767666400135e-16,-0.2382434921226366,0,70,255.0,255.0,255.0
47,2.35,10.5,3.0,-1.1364785550750802,8.75099804112976e-16,-5.023879287641881e-16,-0.872588756580266,-1.0077768460681351e-14,5.785567771505452e-15,-0.23170536552265553,0,70,255.0,255.0,255.0
48,2.4000000000000004,10.5,3.0,-1.1803949003915803,1.0414469853778448e-16,-5.978865398467564e-17,-0.8840105716913993,-2.076043576232615e-14,1.1918403219674958e-14,-0.22516723892267437,0,70,255.0,255.0,255.0
49,2.45,10.5,3.0,-1.224874163805387,-1.2009437721196364e-15,6.894523932033059e-16,-0.8951054804725335,-3.144310306397085e-14,1.805123866784441e-14,-0.2186291123226933,0,70,255.0,255.0,255.0
50,2.5,10.5,3.0,-1.2699,-3.04016560785929e-15,1.7453352127997592e-15,-0.9058734829236686,-4.212577036561555e-14,2.418407411601387e-14,-0.21209098572271845,0,70,255.0,255.0,255.0
51,2.5500000000000003,10.5,3.0,-1.315456418166059,-4.14974769771272e-15,2.382337581324274e-15,-0.9163358494731235,-2.2575132285214184e-15,1.2960206249665815e-15,-0.20640367625547584,0,70,255.0,255.0,255.0
52,2.6,10.5,3.0,-1.3615288455227563,-3.265916930711449e-15,1.874937275296428e-15,-0.9265138505492162,3.761074390857236e-14,-2.1592032866080498e-14,-0.20071636678823326,0,70,255.0,255.0,255.0
53,2.6500000000000004,10.5,3.0000000000000004,-1.408103063796425,-3.886733068554642e-16,2.231342947162114e-16,-0.9364074861519468,7.74790010456665e-14,-4.448008635712779e-14,-0.19502905732099066,0,70,255.0,255.0,255.0
54,2.7,10.500000000000002,3.0000000000000004,-1.4551648547133953,4.48198317385519e-15,-2.5730713604163446e-15,-0.9460167562813153,1.1734725818276027e-13,-6.736813984817487e-14,-0.18934174785374808,0,70,255.0,255.0,255.0
55,2.75,10.5,3.0,-1.5027,1.1346052511420525e-14,-6.513679690101252e-15,-0.9553416609373215,1.5721551531985406e-13,-9.025619333922194e-14,-0.18365443838650286,0,70,255.0,255.0,255.0
56,2.8000000000000003,10.5,2.9999999999999996,-1.5506936541633782,1.5487069246244954e-14,-8.89100489416187e-15,-0.9643445669683707,8.425154073122304e-15,-4.836814823202306e-15,-0.1764618028554572,0,70,255.0,255.0,255.0
57,2.85,10.500000000000002,2.9999999999999996,-1.5991284628338946,1.218856791873282e-14,-6.997361172421519e-15,-0.9729878412228673,-1.4036520717360814e-13,8.058256369281657e-14,-0.16926916732441163,0,70,255.0,255.0,255.0
58,2.9000000000000004,10.500000000000002,2.999999999999999,-1.6479864444227224,1.4505485288840617e-15,-8.327485248801699e-16,-0.9812714837008117,-2.8915556842033987e-13,1.6600194220883619e-13,-0.16207653179336598,0,70,255.0,255.0,255.0
59,2.95,10.500000000000002,2.999999999999999,-1.6972496173410332,-1.6726988923301125e-14,9.602833048462076e-15,-0.9891954944022039,-4.3794592966707034e-13,2.5142132072485505e-13,-0.1548838962623204,0,70,255.0,255.0,255.0
60,3.0,10.5,3.0,-1.7469,-4.234404443782281e-14,2.4309383547605247e-14,-0.9967598733270437,-5.867362909138009e-13,3.36840699240874e-13,-0.14769126073126948,0,70,255.0,255.0,255.0
61,3.0500000000000003,10.499999999999998,3.0000000000000018,-1.7969201651804294,-5.779852928726712e-14,3.318168199532321e-14,-1.0039978826533928,-3.1443103063967954e-14,1.8051238667842726e-14,-0.1418291123226989,0,70,255.0,255.0,255.0
62,3.1,10.499999999999995,3.000000000000003,-1.8472949031416654,-4.548835474421985e-14,2.6114507414389667e-14,-1.0109427845593135,5.238500847858601e-13,-3.007382219051857e-13,-0.1359669639141284,0,70,255.0,255.0,255.0
63,3.1500000000000004,10.499999999999993,3.000000000000004,-1.898009558512687,-5.413520808680824e-15,3.1078598048044777e-15,-1.0175945790448058,1.079143272635693e-12,-6.19527682478217e-13,-0.13010481550555783,0,70,255.0,255.0,255.0
64,3.2,10.499999999999993,3.000000000000003,-1.9490494759224724,6.24259725193493e-14,-3.583826083343195e-14,-1.0239532661098694,1.6344364604855212e-12,-9.383171430512454e-13,-0.12424266709698732,0,70,255.0,255.0,255.0
65,3.25,10.5,3.0,-2.0004,1.5803012523987072e-13,-9.072385450031974e-14,-1.0300188457545043,2.189729648335349e-12,-1.2571066036242738e-12,-0.11838051868840793,0,70,255.0,255.0,255.0
66,3.3000000000000003,10.50000000000001,2.9999999999999942,-2.052046485114905,2.157070479028235e-13,-1.2383572308713096e-13,-1.035791902418058,1.1734725818274903e-13,-6.736813984816854e-14,-0.11254174785374073,0,70,255.0,255.0,255.0
67,3.35,10.50000000000002,2.999999999999989,-2.103974324599444,1.6976485105814654e-13,-9.746066848513711e-14,-1.0412730205398784,-1.9550351319698325e-12,1.1223703239279262e-12,-0.10670297701907358,0,70,255.0,255.0,255.0
68,3.4000000000000004,10.500000000000025,2.9999999999999853,-2.1561689215265303,2.02035347058392e-14,-1.159869069433769e-14,-1.0464622001199653,-4.0274175221224325e-12,2.3121087877040317e-12,-0.10086420618440636,0,70,255.0,255.0,255.0
69,3.45,10.500000000000021,2.999999999999988,-2.208615678969078,-2.329769011540961e-13,1.3375021028526575e-13,-1.051359441158319,-6.099799912275014e-12,3.5018472514801263e-12,-0.09502543534973922,0,70,255.0,255.0,255.0
70,3.5,10.5,3.0,-2.2613,-5.897764565216601e-13,3.385860344536737e-13,-1.055964743654939,-8.172182302427596e-12,4.69158571525622e-12,-0.08918666451507029,0,70,255.0,255.0,255.0
71,3.5500000000000003,10.499999999999963,3.000000000000021,-2.3142066943599526,-8.05029662324027e-13,4.621612103532007e-13,-1.060242507674374,-4.379459296670288e-13,2.514213207248306e-13,-0.08192389626231988,0,70,255.0,255.0,255.0
72,3.6,10.499999999999927,3.0000000000000426,-2.3673181984605596,-6.335710494883666e-13,3.637281665261587e-13,-1.0641571332811712,7.296290443093468e-12,-4.1887430738065185e-12,-0.07466112800956956,0,70,255.0,255.0,255.0
73,3.6500000000000004,10.499999999999906,3.0000000000000537,-2.420616355381192,-7.540061801467583e-14,4.328690297254617e-14,-1.0677086204753308,1.5030526815854037e-11,-8.628907468337909e-12,-0.06739835975681915,0,70,255.0,255.0,255.0
74,3.7,10.499999999999925,3.0000000000000426,-2.474083008201216,8.694816320970345e-13,-4.991625803076308e-13,-1.070896969256853,2.276476318861453e-11,-1.3069071862869257e-11,-0.06013559150406882,0,70,255.0,255.0,255.0
75,3.75,10.5,3.0,-2.5277,2.2010757008467697e-12,-1.263620283314375e-12,-1.0737221796257377,3.0498999561375036e-11,-1.7509236257400607e-11,-0.052872823251325585,0,70,255.0,255.0,255.0
76,3.8000000000000003,10.500000000000135,2.9999999999999223,-2.581449937445287,3.0044116013932838e-12,-1.7248091183256714e-12,-1.0762300668844456,1.6344364604853693e-12,-9.383171430511545e-13,-0.04744266709699009,0,70,255.0,255.0,255.0
77,3.85,10.500000000000277,2.999999999999841,-2.635318481558316,2.3645193468953195e-12,-1.357451997619498e-12,-1.0784664463354368,-2.7230126640404045e-11,1.5632601971298156e-11,-0.04201251094265465,0,70,255.0,255.0,255.0
78,3.9000000000000004,10.500000000000348,2.9999999999997997,-2.6892920569487018,2.8139893735286503e-13,-1.615489211958473e-13,-1.0804313179787108,-5.609468974129371e-11,3.2203521085647605e-11,-0.03658235478831916,0,70,255.0,255.0,255.0
79,3.95,10.50000000000028,2.999999999999839,-2.7433570882260585,-3.2449496272340436e-12,1.862900110945258e-12,-1.0821246818142685,-8.495925284218313e-11,4.877444019999692e-11,-0.031152198633983712,0,70,255.0,255.0,255.0
80,4.0,10.5,3.0,-2.7975,-8.214526346865419e-12,4.715895098803826e-12,-1.0835465378421094,-1.1382381594307256e-10,6.534535931434624e-11,-0.02572204247965182,0,70,255.0,255.0,255.0
81,4.05,10.499999999999492,3.0000000000002918,-2.8517063558589,-1.1212616743249107e-11,6.437075262949485e-12,-1.084645224787844,-6.0997999122754e-12,3.5018472514803553e-12,-0.01822543534973742,0,70,255.0,255.0,255.0
82,4.1000000000000005,10.49999999999897,3.0000000000005924,-2.9059582753061766,-8.824506338092866e-12,5.066079823951809e-12,-1.085369081377083,1.0162421611852367e-10,-5.834166481138664e-11,-0.010728828219822892,0,70,255.0,255.0,255.0
83,4.15,10.499999999998698,3.0000000000007465,-2.9602370168240015,-1.0501951313967792e-12,6.029087818108464e-13,-1.0857181076098263,2.0934823214932085e-10,-1.2018517687425252e-10,-0.0032322210899084942,0,70,255.0,255.0,255.0
84,4.2,10.499999999998952,3.000000000000601,-3.0145238388945508,1.2110316876839146e-11,-6.9524378634734015e-12,-1.0856923034860742,3.17072248180118e-10,-1.8202868893711838e-10,0.0042643860400059,0,70,255.0,255.0,255.0
85,4.25,10.5,3.0,-3.0688,3.065702968661491e-11,-1.759996011190093e-11,-1.085291669005826,4.2479626421091517e-10,-2.438722009999843e-10,0.011760993169918521,0,70,255.0,255.0,255.0
86,4.3,10.500000000001897,2.9999999999989115,-3.1230478391191094,4.184605537160315e-11,-2.402349193347227e-11,-1.0845810339641797,2.276476318861597e-11,-1.3069071862870096e-11,0.016664408495929435,0,70,255.0,255.0,255.0
87,4.3500000000000005,10.500000000003851,2.9999999999977898,-3.17725401721698,3.293350600547616e-11,-1.8906867298187744e-11,-1.083625228156233,-3.7926673783369037e-10,2.177340572742482e-10,0.021567823821940432,0,70,255.0,255.0,255.0
88,4.4,10.500000000004855,2.999999999997213,-3.231406275755295,3.91938158823425e-12,-2.250086206047527e-12,-1.0824242515819857,-7.812982388559896e-10,4.485371864113624e-10,0.026471239147951343,0,70,255.0,255.0,255.0
89,4.45,10.500000000003908,2.9999999999977573,-3.28549235619574,-4.5196317880122495e-11,2.5946851342948342e-11,-1.0809781042414381,-1.1833297398782886e-09,6.793403155484767e-10,0.03137465447396226,0,70,255.0,255.0,255.0
90,4.5,10.5,3.0,-3.3395,-1.1441359239959422e-10,6.56839453487999e-11,-1.0792867861345898,-1.585361240900588e-09,9.101434446855907e-10,0.03627806979997139,0,70,255.0,255.0,255.0
91,4.55,10.499999999992923,3.000000000004063,-3.39341588766466,-1.5617160474316347e-10,8.965689247093958e-11,-1.07728663935544,-8.49592528421883e-11,4.877444019999982e-11,0.04372780136602008,0,70,255.0,255.0,255.0
92,4.6000000000000005,10.499999999985635,3.000000000008248,-3.4472224558259064,-1.2290951768381175e-10,7.056138936879914e-11,-1.0749140059979878,1.415442735216238e-09,-8.125945642856063e-10,0.05117753293206889,0,70,255.0,255.0,255.0
93,4.65,10.499999999981883,3.000000000010401,-3.5009010801548213,-1.4627331221540238e-11,8.397436042379265e-12,-1.0721688860622332,2.9158447232746377e-09,-1.6739635687711974e-09,0.05862726449811758,0,70,255.0,255.0,255.0
94,4.7,10.49999999998542,3.0000000000083697,-3.5544331363224906,1.68674954643651e-10,-9.683496750831996e-11,-1.0690512795481761,4.4162467113330375e-09,-2.535332573256788e-09,0.06607699606416627,0,70,255.0,255.0,255.0
95,4.75,10.5,3.0,-3.6078,4.2699733991176197e-10,-2.4513582128329864e-10,-1.0655611864558165,5.916648699391438e-09,-3.396701577742379e-09,0.07352672763022206,0,70,255.0,255.0,255.0
96,4.800000000000001,10.500000000026413,2.9999999999848366,-3.66098381022225,5.828403636010511e-10,-3.3460407795028624e-10,-1.0617444086140606,3.1707224818003754e-10,-1.820286889370727e-10,0.07914438604001192,0,70,255.0,255.0,255.0
97,4.8500000000000005,10.500000000053618,2.9999999999692184,-3.7139697594793986,4.58704564729771e-10,-2.6333869017700895e-10,-1.0576467478518154,-5.282504203031262e-09,3.0326441998681764e-09,0.08476204444980168,0,70,255.0,255.0,255.0
98,4.9,10.500000000067617,2.9999999999611813,-3.766743803625423,5.458994329792677e-11,-3.13396579634697e-11,-1.0532682041690806,-1.0882080654242564e-08,6.247317088673426e-09,0.09037970285959145,0,70,255.0,255.0,255.0
99,4.95,10.500000000054412,2.9999999999687637,-3.8192918985142983,-6.295035006944814e-10,3.613930186903313e-10,-1.0486087775658561,-1.6481657105453863e-08,9.461989977478673e-09,0.09599736126938122,0,70,255.0,255.0,255.0
100,5.0,10.5,3.0,-3.8716,-1.5935757672474537e-09,9.148593397843946e-10,-1.0436684680421424,-2.208123355666517e-08,1.2676662866283923e-08,0.10161501967917097,0,70,255.0,255.0,255.0
101,5.050000000000001,10.499999999901428,3.0000000000565903,-3.9236536714463446,-2.175189849661041e-09,1.248759419330205e-09,-1.0384237261883142,-1.1833297398779925e-09,6.793403155483055e-10,0.1081746544739592,0,70,255.0,255.0,255.0
102,5.1000000000000005,10.499999999799897,3.0000000001148783,-3.975436906256503,-1.7119087412352721e-09,9.827933713392362e-10,-1.0328510025947466,1.9714574076908813e-08,-1.13179822351871e-08,0.11473428926874732,0,70,255.0,255.0,255.0
103,5.15,10.499999999747649,3.0000000001448717,-4.02693330534349,-2.0373244197016699e-10,1.1696119581149895e-10,-1.0269502972614395,4.0612477893695625e-08,-2.331530478592251e-08,0.12129392406353542,0,70,255.0,255.0,255.0
104,5.2,10.499999999796936,3.0000000001165765,-4.078126469620318,2.3493390481342757e-09,-1.3487371072530058e-09,-1.020721610188393,6.151038171048243e-08,-3.5312627336657914e-08,0.12785355885832356,0,70,255.0,255.0,255.0
105,5.25,10.5,3.0,-4.129,5.947305729078053e-09,-3.4143015378542798e-09,-1.014164941375607,8.240828552726923e-08,-4.730994988739332e-08,0.13441319365311521,0,70,255.0,255.0,255.0
106,5.300000000000001,10.50000000036788,2.9999999997888036,-4.179537503992376,8.117919035043112e-09,-4.660433599370534e-09,-1.0072806866326753,4.41624671133194e-09,-2.5353325732561517e-09,0.14095699606414955,0,70,255.0,255.0,255.0
107,5.3500000000000005,10.5000000007468,2.9999999995712687,-4.229722615494592,6.388930400211319e-09,-3.6678347951799355e-09,-1.000069241769192,-7.357579210460397e-08,4.223928474088022e-08,0.14750079847518377,0,70,255.0,255.0,255.0
108,5.4,10.500000000941778,2.999999999459332,-4.279538975000619,7.60339824582743e-10,-4.3650512528252754e-10,-0.992530606785157,-1.5156783092053989e-07,8.701390205501659e-08,0.15404460088621802,0,70,255.0,255.0,255.0
109,5.45,10.50000000075784,2.9999999995649302,-4.328970223004431,-8.767852691842613e-09,5.033555410321693e-09,-0.9846647816805704,-2.295598697364758e-07,1.3178851936915296e-07,0.16058840329725224,0,70,255.0,255.0,255.0
110,5.5,10.5,3.0,-4.378,-2.2195647149064758e-08,1.2742346811632724e-08,-0.9764717664554318,-3.0755190855241166e-07,1.765631366832893e-07,0.16713220570828557,0,70,255.0,255.0,255.0
111,5.550000000000001,10.499999998627057,3.0000000007881957,-4.426612312584153,-3.029648629051141e-08,1.7392974978151928e-08,-0.9679735272809898,-1.6481657105449648e-08,9.461989977476281e-09,0.17279736126938827,0,70,255.0,255.0,255.0
112,5.6000000000000005,10.499999997212909,3.0000000016000463,-4.474792631765132,-2.384381285961e-08,1.3688545809380505e-08,-0.9591920303284928,2.745885943415072e-07,-1.5763915672833378e-07,0.17846251683049086,0,70,255.0,255.0,255.0
113,5.65,10.499999996485233,3.0000000020177993,-4.522526794654035,-2.8376268563608e-09,1.6290593053186075e-09,-0.9501272755979407,5.656588457884639e-07,-3.247403034341438e-07,0.18412767239159344,0,70,255.0,255.0,255.0
114,5.7,10.499999997171704,3.0000000016237016,-4.569800638361959,3.272207171923619e-08,-1.8785484534033774e-08,-0.9407792630893336,8.567290972354207e-07,-4.918414501399539e-07,0.18979282795269603,0,70,255.0,255.0,255.0
115,5.75,10.5,3.0,-4.6166,8.283528286718098e-08,-4.7555085708676616e-08,-0.9311479928026714,1.1477993486823774e-06,-6.58942596845764e-07,0.19545798351379418,0,70,255.0,255.0,255.0
116,5.800000000000001,10.500000005123892,2.999999997058413,-4.6629100456710155,1.1306802612700251e-07,-6.491146631323719e-08,-0.921193204243368,6.15103817104667e-08,-3.5312627336648973e-08,0.20273355885833705,0,70,255.0,255.0,255.0
117,5.8500000000000005,10.500000010401562,2.999999994028545,-4.708713257444884,8.898632103822865e-08,-5.108634844234209e-08,-0.9108746369168376,-1.0247785852614245e-06,5.88317342172455e-07,0.2100091342028798,0,70,255.0,255.0,255.0
118,5.9,10.500000013117285,2.99999999246947,-4.753991446383244,1.0590167600860411e-08,-6.079732095991907e-09,-0.90019229082308,-2.1110675522333157e-06,1.211947311681559e-06,0.21728470954742254,0,70,255.0,255.0,255.0
119,5.95,10.500000010555338,2.9999999939402633,-4.798726423547737,-1.2212043418510213e-07,7.010838272581336e-08,-0.8891461659620954,-3.197356519205207e-06,1.8355772811906626e-06,0.22456028489196528,0,70,255.0,255.0,255.0
120,6.0,10.5,3.0,-4.8429,-3.0914548431965913e-07,1.7747799602307374e-07,-0.8777362623338836,-4.283645486177097e-06,2.459207250699767e-06,0.2318358602365116,0,70,255.0,255.0,255.0
121,6.050000000000001,10.49999998087737,3.0000000109781513,-4.88649470473179,-4.219756182174986e-07,2.422528902747968e-07,-0.8660056557455394,-2.2955986973641754e-07,1.3178851936911972e-07,0.2373884032972463,0,70,255.0,255.0,255.0
122,6.1000000000000005,10.499999961180842,3.0000000222857732,-4.929495938455338,-3.3210147129330454e-07,1.9065684795998785e-07,-0.8539974220041587,3.8245257467041906e-06,-2.195630211961486e-06,0.24294094635798094,0,70,255.0,255.0,255.0
123,6.15,10.499999951045629,3.00000002810432,-4.971889819812988,-3.952304354708095e-08,2.2689869078649022e-08,-0.8417115611097415,7.878611363144798e-06,-4.523048943292092e-06,0.24849348941871557,0,70,255.0,255.0,255.0
124,6.2,10.499999960606942,3.0000000226152452,-5.013662467447094,4.557596650211723e-07,-2.616480463692197e-07,-0.8291480730622873,1.1932696979585403e-05,-6.850467674622696e-06,0.25404603247945023,0,70,255.0,255.0,255.0
125,6.25,10.5,3.0,-5.0548,1.1537466544114555e-06,-6.623568983836183e-07,-0.8163069578617965,1.5986782596026014e-05,-9.177886405953304e-06,0.25959857554018484,0,70,255.0,255.0,255.0
126,6.300000000000001,10.500000071366621,2.9999999590289823,-5.095287935401827,1.5748344467429918e-06,-9.041000947859501e-07,-0.8031521727744743,8.567290972352056e-07,-4.918414501398302e-07,0.26659282795270167,0,70,255.0,255.0,255.0
127,6.3500000000000005,10.500000144875068,2.9999999168283615,-5.135109388733771,1.2394195641349901e-06,-7.115410433976094e-07,-0.7896476750665262,-1.4273324401555335e-05,8.194203505673487e-06,0.2735870803652184,0,70,255.0,255.0,255.0
128,6.4,10.5000001827002,2.9999998951132487,-5.174246874364803,1.4750200658746324e-07,-8.467974421860397e-08,-0.7757934647379524,-2.9403377900345873e-05,1.6880248461486805e-05,0.2805813327777351,0,70,255.0,255.0,255.0
129,6.45,10.50000014701689,2.9999999155987576,-5.21268290666389,-1.7009182258995867e-06,9.764838027510652e-07,-0.7615895417887527,-4.4533431399136413e-05,2.5566293417300123e-05,0.28757558519025184,0,70,255.0,255.0,255.0
130,6.5,10.5,3.0,-5.2504,-4.305841133326162e-06,2.4719495975113993e-06,-0.7470359062189273,-5.9663484897926954e-05,3.4252338373113434e-05,0.29456983760277033,0,70,255.0,255.0,255.0
131,6.550000000000001,10.499999733656141,3.0000001529059186,-5.287381553660906,-5.877362168754469e-06,3.374147488869003e-06,-0.7321856531565588,-3.1973565192044005e-06,1.8355772811901952e-06,0.2994402848919635,0,70,255.0,255.0,255.0
132,6.6000000000000005,10.49999945931889,3.000000310400781,-5.323614506609582,-4.6255767852466545e-06,2.6555073256304488e-06,-0.7170918777297308,5.326877185951715e-05,-3.0581183810732474e-05,0.30431073218115656,0,70,255.0,255.0,255.0
133,6.65,10.49999931815357,3.0000003914426836,-5.3590866827278045,-5.504849828027729e-07,3.160291077957678e-07,-0.7017545799384433,0.0001097349002382387,-6.299794490265514e-05,0.3091811794703496,0,70,255.0,255.0,255.0
134,6.7,10.499999451325499,3.0000003149897245,-5.393785905897351,6.3479132385771765e-06,-3.6442871646350422e-06,-0.686173759782696,0.00016620102861696025,-9.541470599457779e-05,0.3140516267595427,0,70,255.0,255.0,255.0
135,6.75,10.5,3.0,-5.4277,1.6069617878893193e-05,-9.225441491661979e-06,-0.6703494172624891,0.0002226671569956818,-0.00012783146708650046,0.3189220740487375,0,70,255.0,255.0,255.0
136,6.800000000000001,10.500000994008815,2.999999429347341,-5.460813849954551,2.193461422827488e-05,-1.2592489860690063e-05,-0.6541052145992844,1.19326969795824e-05,-6.8504676746209575e-06,0.3308460324794423,0,70,255.0,255.0,255.0
137,6.8500000000000005,10.500002017849372,2.9999988415685133,-5.493100584827903,1.7262887576851627e-05,-9.910488259124187e-06,-0.6372648140145446,-0.00019880176303651326,0.00011413053173725638,0.3427699909101468,0,70,255.0,255.0,255.0
138,6.9,10.500002544685522,2.9999985391160147,-5.52453039472398,2.0544379246236315e-06,-1.1794366869644618e-06,-0.6198282155082698,-0.0004095362230526089,0.00023511153114913371,0.3546939493408513,0,70,255.0,255.0,255.0
139,6.95,10.500002047681114,2.999998824442345,-5.555073469746704,-2.369073472840912e-05,1.3600664855789101e-05,-0.6017954190804597,-0.0006202706830687046,0.0003560925305610111,0.36661790777155584,0,70,255.0,255.0,255.0
140,7.0,10.5,3.0,-5.5847,-5.997263038224661e-05,3.4429816369136515e-05,-0.5831664247311144,-0.0008310051430848002,0.0004770735299728884,0.37854186620226216,0,70,255.0,255.0,255.0
141,7.050000000000001,10.4999962903086,3.0000021297047152,-5.613382246520892,-8.186109474434505e-05,4.699581195389125e-05,-0.5640654884463014,-4.453343139912511e-05,2.5566293417293696e-05,0.38549558519024646,0,70,255.0,255.0,255.0
142,7.1000000000000005,10.499992469283619,3.0000043233251654,-5.641100754078806,-6.442597352215985e-05,3.6986445710866314e-05,-0.5446168662120895,0.0007419382802865361,-0.00042594094313829297,0.39244930417823065,0,70,255.0,255.0,255.0
143,7.15,10.499990503104339,3.0000054520932564,-5.667838138376276,-7.667266715691707e-06,4.401717640062095e-06,-0.5248205580284785,0.0015284099919721972,-0.0008774481796938796,0.3994030231662148,0,70,255.0,255.0,255.0
144,7.2,10.49999235795004,3.0000043872408986,-5.693577015115832,8.84150256750593e-05,-5.075837225852135e-05,-0.5046765638954681,0.002314881703657858,-0.0013289554162494663,0.406356742154199,0,70,255.0,255.0,255.0
145,7.25,10.5,3.0,-5.7183,0.00022382090365009324,-0.00012849382398488407,-0.48418488381305863,0.0031013534153435185,-0.001780462652805053,0.4133104611421845,0,70,255.0,255.0,255.0
146,7.300000000000001,10.50001464475679,2.999991251833796,-5.741997963961886,0.0003535097647489948,-0.00022339075795497758,-0.46384083161551465,0.0020862010286124707,-0.002015414705998633,0.4004516267595634,0,70,255.0,255.0,255.0
147,7.3500000000000005,10.500034505016153,2.999977465130827,-5.764694798856871,0.00043244100651134224,-0.0003300352945847482,-0.44413972113710204,0.001071048641881441,-0.002250366759192209,0.38759279237694255,0,70,255.0,255.0,255.0
148,7.4,10.50005704289712,2.99995805251096,-5.7864226517709145,0.0004606146289371385,-0.00044842743387419763,-0.4250815523778205,5.589625515041137e-05,-0.0024853188123857843,0.37473395799432174,0,70,255.0,255.0,255.0
149,7.45,10.500079720518723,2.9999324265940617,-5.807213669789972,0.00043803063202638344,-0.0005785671758233257,-0.40666632533767005,-0.0009592561315806183,-0.0027202708655793603,0.3618751236117009,0,70,255.0,255.0,255.0
150,7.5,10.5001,2.9999,-5.8271,0.000364689015779077,-0.0007204545204321326,-0.3888940400166505,-0.00197440851831165,-0.0029552229187729383,0.34901628922908223,0,70,255.0,255.0,255.0
151,7.550000000000001,10.50011633066424,2.9998600629601,-5.84611229763157,0.0002998220357445677,-0.0008814327801372096,-0.37167518509163444,-0.0006202706830686852,-0.0034839074694300483,0.33973790777155116,0,70,255.0,255.0,255.0
152,7.6000000000000005,10.500131110651772,2.9998114161515272,-5.864275250493711,0.000302661947472207,-0.0010688452673751389,-0.3549202492394952,0.0007338671521742559,-0.0040125920200871495,0.33045952631402026,0,70,255.0,255.0,255.0
153,7.65,10.500147725307183,2.9997527378629036,-5.881612054540067,0.00037320875096199304,-0.001282691982145923,-0.3386292324602325,0.0020880049874171967,-0.00454127657074425,0.3211811448564894,0,70,255.0,255.0,255.0
154,7.7,10.500169559975063,2.9996827063828535,-5.898145905724283,0.0005114624462139259,-0.001522972924449562,-0.32280213475384634,0.0034421428226601375,-0.00506996112140135,0.3119027633989585,0,70,255.0,255.0,255.0
155,7.75,10.5002,2.9996,-5.9139,0.0007174230332280055,-0.0017896880942860564,-0.3074389561203368,0.004796280657903078,-0.005598645672058452,0.3026243819414276,0,70,255.0,255.0,255.0
156,7.800000000000001,10.500241632586253,2.999503696325802,-5.928897645511835,0.0009432020922677726,-0.0020588781214937475,-0.2925464280179461,0.004234881703687478,-0.0051689554162490355,0.29307674215419033,0,70,255.0,255.0,255.0
157,7.8500000000000005,10.500293852376766,2.9993944702630637,-5.943162599168284,0.001140911203596756,-0.0023065836359109633,-0.2781312819049176,0.0036734827494718887,-0.004739265160439626,0.2835291023669533,0,70,255.0,255.0,255.0
158,7.9,10.500355255874151,2.9992733960374243,-5.956718730068816,0.0013105503672149604,-0.0025328046375377084,-0.2641935177812509,0.003112083795256299,-0.004309574904630217,0.2739814625797162,0,70,255.0,255.0,255.0
159,7.95,10.500424439581025,2.999141547874523,-5.969589907312899,0.001452119583122385,-0.002737541126373983,-0.25073313564694605,0.0025506848410407094,-0.003879884648820809,0.2644338227924791,0,70,255.0,255.0,255.0
160,8.0,10.5005,2.999,-5.9818,0.0015656188513190302,-0.0029207931024197876,-0.23775013550200302,0.0019892858868251154,-0.003450194393011398,0.25488618300524424,0,70,255.0,255.0,255.0
161,8.05,10.50058113899075,2.998849151736691,-5.993373120321092,0.0016873695951990684,-0.003123054733884874,-0.22525910283657918,0.0028807438683763403,-0.004640270865591956,0.24475512361170265,0,70,255.0,255.0,255.0
162,8.1,10.500669479841173,2.998686702796218,-6.004334352833153,0.0018536932381566617,-0.0033848201889789794,-0.21327462314083281,0.0037722018499275335,-0.005830347338172471,0.23462406421816143,0,70,255.0,255.0,255.0
163,8.15,10.500767251196217,2.9985096779873994,-6.014709025184668,0.002064589780191822,-0.0037060894677021215,-0.20179669641476314,0.004663659831478758,-0.007020423810753029,0.22449300482461984,0,70,255.0,255.0,255.0
164,8.200000000000001,10.500876681700843,2.998315102119054,-6.024522465024123,0.0023200592213045443,-0.004086862570054292,-0.19082532265837052,0.005555117813029984,-0.008210500283333588,0.21436194543107825,0,70,255.0,255.0,255.0
165,8.25,10.501,2.9981,-6.0338,0.0026201015614948165,-0.004527139496035475,-0.18036050187165534,0.006446575794581154,-0.00940057675591411,0.20423088603753814,0,70,255.0,255.0,255.0
166,8.3,10.501138611450745,2.9978620967274345,-6.042566673203802,0.0029153195269257404,-0.004984902942968144,-0.1703851606357428,0.005362142822655636,-0.008909961121392395,0.19478276339895836,0,70,255.0,255.0,255.0
167,8.35,10.501290628258548,2.997601918552065,-6.050846389499107,0.0031563158437603804,-0.005418135608174712,-0.16088222553175954,0.004277709850730156,-0.008419345486870698,0.18533464076037892,0,70,255.0,255.0,255.0
168,8.4,10.501453339340978,2.997320692012979,-6.05866276919251,0.0033430905119987524,-0.00582683749165521,-0.15185169655970499,0.0031932768788046372,-0.007928729852348985,0.17588651812179917,0,70,255.0,255.0,255.0
169,8.450000000000001,10.501624033615606,2.9970196436492618,-6.0660394325906095,0.0034756435316408486,-0.006211008593409622,-0.14329357371957938,0.0021088439068791187,-0.007438114217827271,0.1664383954832194,0,70,255.0,255.0,255.0
170,8.5,10.5018,2.9967,-6.073,0.003553974902686665,-0.006570648913437936,-0.13520785701138308,0.0010244109349536144,-0.00694749858330556,0.15699027284463996,0,70,255.0,255.0,255.0
171,8.55,10.501979615206261,2.9963624613535718,-6.0795681868637015,0.00364335229708823,-0.006937333494241089,-0.12760025462045455,0.00255068484110894,-0.0077198846488203895,0.14731382279249708,0,70,255.0,255.0,255.0
172,8.6,10.502165607124631,2.9960056229955216,-6.085768089170423,0.0038090433867975556,-0.00734263737831997,-0.1204764747321334,0.004076958747264211,-0.008492270714335191,0.13763737274035456,0,70,255.0,255.0,255.0
173,8.65,10.502361791439863,2.995627553960685,-6.091623898045292,0.004051048171814653,-0.0077865605656746075,-0.11383651734641916,0.005603232653419537,-0.009264656779850021,0.12796092268821171,0,70,255.0,255.0,255.0
174,8.700000000000001,10.502571983836733,2.9952263232838994,-6.097159804613441,0.004369366652139517,-0.008269103056304985,-0.10768038246331205,0.007129506559574862,-0.01003704284536485,0.11828447263606884,0,70,255.0,255.0,255.0
175,8.75,10.5028,2.9948,-6.1024,0.004763998827772133,-0.008790264850211086,-0.10200807008281228,0.008655780465730144,-0.010809428910879618,0.10860802258392666,0,70,255.0,255.0,255.0
176,8.8,10.5030485277242,2.9943472578582795,-6.107368579341392,0.005167271284740177,-0.009313763080066524,-0.09681382088243717,0.007475117812991368,-0.0101305002833376,0.09916194543107462,0,70,255.0,255.0,255.0
177,8.85,10.50331574324293,2.99386918946585,-6.112089253819204,0.00551151060907127,-0.009803314878544845,-0.09209187553970483,0.006294455160252633,-0.009451571655795606,0.08971586827822291,0,70,255.0,255.0,255.0
178,8.9,10.503598694899564,2.993367492144281,-6.116585638626322,0.005796716800765435,-0.01025892024564608,-0.08784223405461493,0.005113792507513858,-0.008772643028253589,0.08026979112537087,0,70,255.0,255.0,255.0
179,8.950000000000001,10.503894431037464,2.9928438632151413,-6.120881348955627,0.006022889859822663,-0.010680579181370217,-0.08406489642716763,0.003933129854775082,-0.00809371440071157,0.07082371397251883,0,70,255.0,255.0,255.0
180,9.0,10.5042,2.9923,-6.125,0.0061900297862429446,-0.011068291685717234,-0.08075986265736305,0.0027524672020363197,-0.007414785773169508,0.0613776368196669,0,70,255.0,255.0,255.0
181,9.05,10.504513473896942,2.9917365072133126,-6.128965495770733,0.006359562563964869,-0.01148761418549226,-0.07794446184979097,0.004028843906840554,-0.009358114217831342,0.051238395483214925,0,70,255.0,255.0,255.0
182,9.1,10.50483701990365,2.9911496191410802,-6.13280289555276,0.0065929141769269966,-0.012004103107500361,-0.07563602310904156,0.005305220611644743,-0.011301442662493107,0.04109915414676331,0,70,255.0,255.0,255.0
183,9.15,10.505173828961889,2.990534477462192,-6.136537547449418,0.006890084625129344,-0.012617758451741571,-0.07383454643511467,0.006581597316448978,-0.013244771107154944,0.030959912810311335,0,70,255.0,255.0,255.0
184,9.200000000000001,10.505527092013418,2.9898862238555357,-6.140194799564052,0.007251073908571904,-0.013328580218215876,-0.07254003182801039,0.007857974021253211,-0.015188099551816776,0.02082067147385936,0,70,255.0,255.0,255.0
185,9.25,10.5059,2.9892,-6.1438,0.007675882027254659,-0.01413656840692324,-0.07175247928772874,0.009134350726057394,-0.017131427996478543,0.010681430137407633,0,70,255.0,255.0,255.0
186,9.3,10.506295176688036,2.988472313288471,-6.147378237575673,0.008130478459396212,-0.014959780177969215,-0.07145633171839223,0.00904950655960447,-0.015797042845359915,0.0011644726360522367,0,70,255.0,255.0,255.0
187,9.35,10.506712977142469,2.987705133969829,-6.150953563969757,0.008580832683215103,-0.01571627269145923,-0.0716360320241235,0.008964662393151546,-0.014462657694241331,-0.008352484865302823,0,70,255.0,255.0,255.0
188,9.4,10.507153189252884,2.9869017980069508,-6.154549771576003,0.009026944698711363,-0.01640604594739334,-0.07229158020492255,0.008879818226698621,-0.0131282725431227,-0.017869442366658217,0,70,255.0,255.0,255.0
189,9.450000000000001,10.507615600908867,2.9860656413627154,-6.158190652788167,0.009468814505884977,-0.017029099945771516,-0.07342297626078935,0.008794974060245696,-0.011793887392004071,-0.02738639986801361,0,70,255.0,255.0,255.0
190,9.5,10.5081,2.9852,-6.1619,0.009906442104735928,-0.017585434686593748,-0.07503022019172387,0.008710129893792759,-0.01045950224088546,-0.03690335736936867,0,70,255.0,255.0,255.0
191,9.55,10.508605819350924,2.984307039632802,-6.165701553926572,0.010318523598449906,-0.018145265102633458,-0.07711021127664472,0.007773129854766137,-0.011933714400702592,-0.04629628602746401,0,70,255.0,255.0,255.0
192,9.600000000000001,10.509131071526479,2.9833842449796033,-6.169618848568213,0.010683755090212552,-0.018778806126664025,-0.07965984879447033,0.006836129815739515,-0.013407926560519725,-0.055689214685559346,0,70,255.0,255.0,255.0
193,9.65,10.509673414026578,2.9824279305100028,-6.173675366246568,0.011002136580023858,-0.01948605775868542,-0.08267913274520061,0.005899129776712926,-0.014882138720336807,-0.06508214334365434,0,70,255.0,255.0,255.0
194,9.700000000000001,10.510230504351115,2.981434410693602,-6.177894589283282,0.011273668067883841,-0.0202670199986977,-0.08616806312883576,0.004962129737686304,-0.01635635088015394,-0.07447507200174967,0,70,255.0,255.0,255.0
195,9.75,10.5108,2.9804,-6.1823,0.011498349553792487,-0.02112169284670081,-0.09012663994537555,0.004025129698659688,-0.017830563039970992,-0.08386800065984457,0,70,255.0,255.0,255.0
196,9.8,10.511380745908278,2.9793219281803185,-6.186915546718037,0.011747427146790425,-0.021995159411495616,-0.09458282317502535,0.005937974021257671,-0.017108099551820754,-0.09437932852614495,0,70,255.0,255.0,255.0
197,9.850000000000001,10.511976336751614,2.9782010861117567,-6.191767041757391,0.012092146955918263,-0.022832502801882912,-0.09956457279799018,0.007850818343855655,-0.01638563606367052,-0.10489065639244531,0,70,255.0,255.0,255.0
198,9.9,10.512591554640807,2.9770392799530367,-6.196880763437725,0.012532508981175984,-0.023633723017862665,-0.10507188881426982,0.00976366266645357,-0.015663172575520308,-0.11540198425874532,0,70,255.0,255.0,255.0
199,9.950000000000001,10.513231181686669,2.9758383158628776,-6.202282990078707,0.01306851322256362,-0.024398820059434934,-0.1111047712238647,0.011676506989051554,-0.01494070908737007,-0.1259133121250457,0,70,255.0,255.0,255.0
200,10.0,10.5139,2.9746,-6.208,0.013700159680081132,-0.025127793926599667,-0.11766322002677433,0.01358935131164958,-0.014218245599219803,-0.1364246399913459,0,70,255.0,255.0,255.0
201,10.05,10.514601597015954,2.973325247645924,-6.214057059201277,0.014355767814379153,-0.025874097251380478,-0.12468649602325842,0.012634974060270877,-0.01563388739201221,-0.14450639986801353,0,70,255.0,255.0,255.0
202,10.100000000000001,10.515334781467063,2.972011410573368,-6.220475384402223,0.014963657086108237,-0.02669118266580091,-0.1321138600135759,0.011680596808892172,-0.01704952918480462,-0.15258815974468115,0,70,255.0,255.0,255.0
203,10.15,10.516097167410189,2.97065494967785,-6.227275180002532,0.015523827495268367,-0.02757905016986093,-0.13994531199772647,0.010726219557513501,-0.01846517097759698,-0.16066991962134847,0,70,255.0,255.0,255.0
204,10.200000000000001,10.516886368902211,2.969252325854888,-6.234476650401893,0.016036279041859582,-0.028537699763560603,-0.1481808519757107,0.009771842306134797,-0.019880812770389385,-0.16875167949801612,0,70,255.0,255.0,255.0
205,10.25,10.5177,2.9678,-6.2421,0.016501011725881847,-0.029567131446899857,-0.15682047994752799,0.00881746505475614,-0.02129645456318166,-0.17683343937468288,0,70,255.0,255.0,255.0
206,10.3,10.518536066027895,2.9662954812359854,-6.250167416476856,0.01694150159569269,-0.03060445158298325,-0.16598319273193862,0.008802129737677338,-0.02019635088015347,-0.1896750720017368,0,70,255.0,255.0,255.0
207,10.350000000000001,10.519394137380138,2.9647404715947707,-6.258709020633717,0.017381224699649592,-0.03158676653491523,-0.17578798714770194,0.008786794420598537,-0.019096247197125278,-0.2025167046287907,0,70,255.0,255.0,255.0
208,10.4,10.52027417571843,2.9631377213355634,-6.267756916552148,0.01782018103775254,-0.032514076302695774,-0.18623486319481758,0.008771459103519735,-0.017996143514097125,-0.21535833725584416,0,70,255.0,255.0,255.0
209,10.450000000000001,10.521176142704482,2.9614899807175705,-6.277343208313721,0.018258370610001563,-0.03338638088632494,-0.19732382087328632,0.008756123786440933,-0.016896039831068937,-0.2281999698828981,0,70,255.0,255.0,255.0
210,10.5,10.5221,2.9598,-6.2875,0.018695793416396628,-0.034203680285802666,-0.20905486018310726,0.008740788469362104,-0.0157959361480407,-0.24104160250995044,0,70,255.0,255.0,255.0
211,10.55,10.523046138872457,2.9580696274101332,-6.2982540748912985,0.019158225802857087,-0.03502009641668783,-0.22110873304898285,0.00975650698905605,-0.01686070908736557,-0.24111331212506676,0,70,255.0,255.0,255.0
212,10.600000000000001,10.524016669012386,2.9562971030475484,-6.309610933062911,0.019671444115302247,-0.03588975119453925,-0.23316619139561426,0.010772225508749995,-0.01792548202669044,-0.2411850217401831,0,70,255.0,255.0,255.0
213,10.65,10.525014129716086,2.954479764979897,-6.321570753788873,0.02023544835373208,-0.03681264461935687,-0.24522723522300108,0.011787944028443905,-0.01899025496601527,-0.24125673135529943,0,70,255.0,255.0,255.0
214,10.700000000000001,10.526041060279859,2.95261495127483,-6.334133716343223,0.020850238518146637,-0.03778877669114077,-0.25729186453114417,0.012803662548137851,-0.02005502790534014,-0.24132844097041578,0,70,255.0,255.0,255.0
215,10.75,10.5271,2.9507,-6.3473,0.02151581460854586,-0.03881814740989088,-0.2693600793200426,0.013819381067831704,-0.021119800844664915,-0.2414001505855321,0,70,255.0,255.0,255.0
216,10.8,10.528192178482279,2.9487332091234806,-6.361055483957947,0.02215359519289407,-0.039843162750267246,-0.28057387507213133,0.011691842306096203,-0.01988081277038925,-0.20715167949801114,0,70,255.0,255.0,255.0
217,10.850000000000001,10.529313586570321,2.946716716215035,-6.37532884711464,0.022684998839155496,-0.04080622868692984,-0.290075247269844,0.009564303544360702,-0.018641824696113585,-0.17290320841049017,0,70,255.0,255.0,255.0
218,10.9,10.530458905417225,2.9446536187448493,-6.3900344682923595,0.02311002554733014,-0.04170734521987861,-0.29786419591318036,0.007436764782625278,-0.01740283662183796,-0.13865473732297046,0,70,255.0,255.0,255.0
219,10.950000000000001,10.531622816176087,2.9425470141831087,-6.405086726313385,0.023428675317418022,-0.04254651234911362,-0.3039407210021409,0.005309226020889778,-0.016163848547562296,-0.10440626623544949,0,70,255.0,255.0,255.0
220,11.0,10.5328,2.9404,-6.4204,0.023640948149419118,-0.04332373007463483,-0.3083048225367253,0.0031816872591542977,-0.01492486047328645,-0.07015779514792797,0,70,255.0,255.0,255.0
221,11.05,10.533986747198432,2.9382151360959443,-6.435906389276911,0.023843393425559224,-0.04407125258224363,-0.31201976666249576,0.0049161237864498684,-0.014976039831064814,-0.07843996988288755,0,70,255.0,255.0,255.0
222,11.100000000000001,10.535185784706329,2.9359928320923108,-6.451608878478529,0.02413256052806411,-0.04482133405774133,-0.31614881952501417,0.00665056031374544,-0.015027219188843179,-0.08672214461784714,0,70,255.0,255.0,255.0
223,11.15,10.53640144861501,2.933732960040705,-6.467528173041692,0.024508449456933763,-0.045573974501127934,-0.32069198112428043,0.00838499684104095,-0.015078398546621541,-0.09500431935280644,0,70,255.0,255.0,255.0
224,11.200000000000001,10.537638075015794,2.9314353919927325,-6.483684978403237,0.024971060212168206,-0.04632917391240348,-0.32564925146029483,0.010119433368336522,-0.015129577904399906,-0.10328649408776602,0,70,255.0,255.0,255.0
225,11.25,10.5389,2.9291,-6.5001,0.025520392793767405,-0.04708693229156792,-0.3310206305330569,0.011853869895631836,-0.015180757262178046,-0.11156866882272398,0,70,255.0,255.0,255.0
226,11.3,10.540190432723996,2.9267270464927426,-6.5167893589344095,0.026088831104862615,-0.047823826920756006,-0.33653105827788554,0.010883662548176323,-0.01429502790534497,-0.10884844097041763,0,70,255.0,255.0,255.0
227,11.350000000000001,10.541508074604364,2.9243183554157217,-6.533750838971245,0.026608759048585052,-0.04851643508210244,-0.34190547463009885,0.009913455200720811,-0.013409298548511892,-0.10612821311811126,0,70,255.0,255.0,255.0
228,11.4,10.542850500122732,2.92187614109233,-6.550977639540875,0.0270801766249347,-0.04916475677560719,-0.3471438795896966,0.008943247853265333,-0.012523569191678845,-0.103407985265805,0,70,255.0,255.0,255.0
229,11.450000000000001,10.544215283760733,2.9194026178459582,-6.568462960073671,0.027503083833911583,-0.049768792001270316,-0.3522462731566793,0.007973040505809822,-0.011637839834845768,-0.10068775741349863,0,70,255.0,255.0,255.0
230,11.5,10.5456,2.9169,-6.5862,0.027877480675515674,-0.05032854075909177,-0.3572126553310464,0.007002833158354094,-0.010752110478012611,-0.09796752956119192,0,70,255.0,255.0,255.0
231,11.55,10.547002721905582,2.9143694779330853,-6.6041833749854515,0.02823328215499581,-0.05090543973473116,-0.36212800022596286,0.007229226020851179,-0.012323848547562678,-0.0986462662354633,0,70,255.0,255.0,255.0
232,11.600000000000001,10.54842351687622,2.911808146244802,-6.6224133656364925,0.028600403277600803,-0.05156092561384805,-0.3670772819545929,0.007455618883348265,-0.013895586617112743,-0.09932500290973467,0,70,255.0,255.0,255.0
233,11.65,10.549862950894063,2.909212075589976,-6.640891668794806,0.028978844043330634,-0.05229499839644242,-0.3720605005169363,0.007682011745845343,-0.015467324686662754,-0.10000373958400602,0,70,255.0,255.0,255.0
234,11.700000000000001,10.55132158994127,2.9065773366234335,-6.659619981302081,0.029368604452185334,-0.053107658082514324,-0.37707765591299347,0.007908404608342428,-0.01703906275621282,-0.10068247625827739,0,70,255.0,255.0,255.0
235,11.75,10.5528,2.9039,-6.6786,0.029769684504164874,-0.0539989046720637,-0.382128748142764,0.008134797470839505,-0.01861080082576283,-0.10136121293254874,0,70,255.0,255.0,255.0
236,11.8,10.55429867965367,2.9011774417749154,-6.697832341123786,0.03017804027514439,-0.054890414140317874,-0.3871489408182713,0.008199433368340914,-0.017049577904403868,-0.09944649408773995,0,70,255.0,255.0,255.0
237,11.850000000000001,10.555817857890764,2.8984122596050694,-6.71731329848279,0.030589627840998976,-0.055703862462504104,-0.39207339755153814,0.008264069265842324,-0.015488354983044905,-0.09753177524293116,0,70,255.0,255.0,255.0
238,11.9,10.557357696301018,2.895608356547766,-6.737038085279902,0.031004447201728617,-0.05643924963862237,-0.39690211834256434,0.008328705163343731,-0.013927132061685998,-0.09561705639812244,0,70,255.0,255.0,255.0
239,11.950000000000001,10.558918356474182,2.8927696356603083,-6.75700191471801,0.03142249835733335,-0.057096575668672704,-0.4016351031913503,0.00839334106084514,-0.012365909140327036,-0.09370233755331366,0,70,255.0,255.0,255.0
240,12.0,10.5605,2.8899,-6.7772,0.03184378130781313,-0.05767584055265507,-0.4062723520978957,0.008457976958346436,-0.01080468621896813,-0.09178761870850494,0,70,255.0,255.0,255.0
241,12.05,10.562102559479733,2.887002354967253,-6.797628860519408,0.03225455674441789,-0.058236903704000205,-0.4108922365009463,0.00797304050584378,-0.011637839834837228,-0.09300775741351616,0,70,255.0,255.0,255.0
242,12.100000000000001,10.56372505156073,2.88407561533492,-6.818290240432349,0.03264108535839752,-0.05883962453613881,-0.4155731278392475,0.007488104053341124,-0.012470993450706326,-0.09422789611852739,0,70,255.0,255.0,255.0
243,12.15,10.565366263901863,2.8811176982189597,-6.839187190085586,0.033003367149752,-0.05948400304907084,-0.420315026112799,0.007003167600838486,-0.013304147066575395,-0.09544803482353857,0,70,255.0,255.0,255.0
244,12.200000000000001,10.567024984161995,2.878126520735333,-6.860322759825882,0.03334140211848137,-0.06017003924279635,-0.42511793132160125,0.00651823114833583,-0.014137300682444493,-0.0966681735285498,0,70,255.0,255.0,255.0
245,12.25,10.5687,2.8751,-6.8817,0.033655190264585584,-0.06089773311731527,-0.429981843465654,0.006033294695833191,-0.014970454298313396,-0.09788831223356409,0,70,255.0,255.0,255.0
246,12.3,10.570390282427397,2.8720363383560708,-6.903321016798586,0.033955732747189236,-0.06164997104367855,-0.4348501131779503,0.0059884046083128134,-0.01511906275621723,-0.09684247625828729,0,70,255.0,255.0,255.0
247,12.350000000000001,10.572095535866312,2.8689348790552502,-6.9251841397878175,0.03425403072541688,-0.06240963939293701,-0.43966609109148286,0.005943514520792436,-0.015267671214121063,-0.09579664028301048,0,70,255.0,255.0,255.0
248,12.4,10.57381564809153,2.8657952505763955,-6.947286754377754,0.03455008419926848,-0.06317673816509065,-0.4444297772062513,0.005898624433272059,-0.015416279672024892,-0.09475080430773372,0,70,255.0,255.0,255.0
249,12.450000000000001,10.575550506877834,2.86261708139836,-6.9696262459784615,0.03484389316874408,-0.06395126736013951,-0.4491411715222562,0.005853734345751681,-0.015564888129928725,-0.09370496833245692,0,70,255.0,255.0,255.0
250,12.5,10.5773,2.8594,-6.9922,0.03513545763384365,-0.06473322697808351,-0.453800274039497,0.0058088442582314714,-0.015713496587832276,-0.09265913235717749,0,70,255.0,255.0,255.0
251,12.55,10.579064310810681,2.856144291608464,-7.015005472286254,0.035442512266820686,-0.0654832121212876,-0.4584113107872586,0.0064733410608496115,-0.014285909140331057,-0.09178233755328237,0,70,255.0,255.0,255.0
252,12.600000000000001,10.580844804974017,2.852852868444077,-7.0380404004163895,0.03578279173992863,-0.06616181789211663,-0.4629785077948254,0.0071378378634677515,-0.012858321692829838,-0.09090554274938724,0,70,255.0,255.0,255.0
253,12.65,10.58264314373201,2.8495292994754586,-7.0613025924034,0.036156296053167454,-0.06676904429057058,-0.46750186506219726,0.007802334666085868,-0.011430734245328669,-0.09002874794549215,0,70,255.0,255.0,255.0
254,12.700000000000001,10.58446098832667,2.846177153671227,-7.084789856260273,0.03656302520653721,-0.06730489131664949,-0.47198138258937455,0.008466831468704009,-0.010003146797827447,-0.08915195314159703,0,70,255.0,255.0,255.0
255,12.75,10.5863,2.8428,-7.1085,0.03700297920003785,-0.06776935897035331,-0.47641706037635695,0.009131328271322237,-0.008575559350325501,-0.08827515833770194,0,70,255.0,255.0,255.0
256,12.8,10.588161274329874,2.8394000952100726,-7.132431494056403,0.03744221818553005,-0.06824118047117236,-0.4808486436730138,0.008438231148365474,-0.010297300682436108,-0.08898817352856972,0,70,255.0,255.0,255.0
257,12.850000000000001,10.590043644237616,2.835974447168439,-7.156585458546628,0.03784680231487441,-0.06879908903859694,-0.4853158777292141,0.007745134025408709,-0.012019042014546715,-0.08970118871943751,0,70,255.0,255.0,255.0
258,12.9,10.591945376980425,2.8325187515217696,-7.180963676008651,0.03821673158807092,-0.06944308467262703,-0.4898187625449575,0.00705203690245197,-0.013740783346657261,-0.09041420391030526,0,70,255.0,255.0,255.0
259,12.950000000000001,10.593864739815487,2.8290287039167334,-7.205567928980449,0.038552006005119606,-0.07017316737326267,-0.4943572981202446,0.0063589397794952054,-0.015462524678767867,-0.09112721910117305,0,70,255.0,255.0,255.0
260,13.0,10.5958,2.8255,-7.2304,0.03885262556602045,-0.07098933714050379,-0.4989314844550748,0.005665842656538411,-0.017184266010877858,-0.09184023429203725,0,70,255.0,255.0,255.0
261,13.05,10.597749791869825,2.821929727551245,-7.255460551488135,0.03914061499107686,-0.07180806599402396,-0.5034741145206869,0.005853734345717601,-0.015564888129928555,-0.08986496833244632,0,70,255.0,255.0,255.0
262,13.100000000000001,10.599714218075517,2.818320542882165,-7.2807457653971035,0.039437999000592215,-0.07254582595349666,-0.5079179812883196,0.006041626034896791,-0.013945510248979252,-0.0878897023728554,0,70,255.0,255.0,255.0
263,13.15,10.601693748346293,2.8146764944374625,-7.306250703562001,0.03974477759456653,-0.07320261701892188,-0.5122630847579724,0.006229517724075974,-0.012326132368030006,-0.08591443641326453,0,70,255.0,255.0,255.0
264,13.200000000000001,10.60368885241138,2.8110016306618406,-7.331970427817934,0.040060950772999815,-0.07377843919029965,-0.516509424929646,0.006417409413255163,-0.010706754487080705,-0.0839391704536736,0,70,255.0,255.0,255.0
265,13.25,10.6057,2.8073,-7.3579,0.040386518535892035,-0.07427329246762997,-0.5206570018033397,0.006605301102434291,-0.009087376606131348,-0.08196390449408408,0,70,255.0,255.0,255.0
266,13.3,10.607727558190826,2.8035745945849477,-7.384035899991054,0.04071532185016975,-0.07475055555272893,-0.5247908982442322,0.0065468314686744295,-0.010003146797827114,-0.083391953141612,0,70,255.0,255.0,255.0
267,13.350000000000001,10.609771483460323,2.799824181302901,-7.410380279864964,0.04104120168275949,-0.0752736071474127,-0.5289961971175011,0.006488361834914567,-0.01091891698952288,-0.08482000178913993,0,70,255.0,255.0,255.0
268,13.4,10.611831629634406,2.7960464707283803,-7.436936709743343,0.04136415803366122,-0.07584244725168122,-0.5332728984231462,0.006429892201154707,-0.011834687181218613,-0.0862480504366678,0,70,255.0,255.0,255.0
269,13.450000000000001,10.613907850538995,2.7922391734359064,-7.463708759747818,0.04168419090287495,-0.07645707586553455,-0.5376210021611678,0.006371422567394845,-0.012750457372914378,-0.08767609908419573,0,70,255.0,255.0,255.0
270,13.5,10.616,2.7884,-7.4907,0.04200130029040069,-0.07711749298897264,-0.5420405083315658,0.006312952933634708,-0.013666227564609335,-0.08910414773172803,0,70,255.0,255.0,255.0
271,13.55,10.618107975366874,2.784527094108965,-7.5179126485476475,0.04231809760822979,-0.07779771179505739,-0.5464502925023882,0.006358939779529272,-0.013542524678780319,-0.08728721910116445,0,70,255.0,255.0,255.0
272,13.600000000000001,10.620231848083195,2.7806203319062326,-7.545343515143048,0.04263719426835363,-0.07847174545685068,-0.5507692302416823,0.006404926625423836,-0.013418821792951304,-0.08547029047060088,0,70,255.0,255.0,255.0
273,13.65,10.622371733116077,2.7766800226490185,-7.572988057464624,0.04295859027077217,-0.07913959397435251,-0.5549973215494483,0.006450913471318398,-0.013295118907122294,-0.08365336184003737,0,70,255.0,255.0,255.0
274,13.700000000000001,10.624527745432642,2.7727064755945356,-7.6008417331908005,0.04328228561548546,-0.07980125734756291,-0.559134566425686,0.006496900317212962,-0.013171416021293278,-0.08183643320947379,0,70,255.0,255.0,255.0
275,13.75,10.6267,2.7687,-7.6289,0.04360828030249347,-0.08045673557648184,-0.5631809648703955,0.006542887163107414,-0.013047713135463823,-0.08001950457890761,0,70,255.0,255.0,255.0
276,13.8,10.628888540341684,2.7646610289791935,-7.657159105818358,0.043932287716903384,-0.08109859726704513,-0.5671839317462098,0.0064174094132892195,-0.012626754487067732,-0.0800991704536644,0,70,255.0,255.0,255.0
277,13.850000000000001,10.631093124206899,2.760590491072169,-7.685618459562851,0.0442500212438224,-0.08171941102518863,-0.5711908819157621,0.006291931663471025,-0.01220579583867164,-0.08017883632842118,0,70,255.0,255.0,255.0
278,13.9,10.633313437901274,2.756489438675548,-7.714278260398164,0.044561480883250494,-0.08231917685091229,-0.5752018153790519,0.006166453913652835,-0.011784837190275562,-0.08025850220317796,0,70,255.0,255.0,255.0
279,13.950000000000001,10.635549167730431,2.7523589241859514,-7.743138707488985,0.04486666663518768,-0.08289789474421617,-0.5792167321360798,0.006040976163834641,-0.011363878541879471,-0.08033816807793474,0,70,255.0,255.0,255.0
280,14.0,10.6378,2.7482,-7.7722,0.04516557849963395,-0.08345556470510024,-0.5832356321868453,0.005915498414016562,-0.01094291989348295,-0.08041783395269064,0,70,255.0,255.0,255.0
281,14.05,10.640065863266397,2.7440135899742617,-7.801462128178922,0.04547275152416839,-0.08399989913676029,-0.5872459805127681,0.00637142256736067,-0.010830457372918366,-0.07999609908421661,0,70,255.0,255.0,255.0
282,14.100000000000001,10.642347655089212,2.7398001038050914,-7.830924246605554,0.04580272075637003,-0.08453861044239208,-0.591235242095267,0.006827346720704776,-0.010717994852353781,-0.07957436421574257,0,70,255.0,255.0,255.0
283,14.15,10.644646515278827,2.73555982264879,-7.860585300942724,0.04615548619623886,-0.08507169862199565,-0.5952034169343422,0.007283270874048867,-0.010605532331789201,-0.07915262934726854,0,70,255.0,255.0,255.0
284,14.200000000000001,10.646963583645631,2.7312930276616587,-7.890444236853264,0.04653104784377491,-0.08559916367557101,-0.5991505050299939,0.007739195027392974,-0.010493069811224618,-0.0787308944787945,0,70,255.0,255.0,255.0
285,14.25,10.6493,2.727,-7.9205,0.046929405698978154,-0.08612100560311811,-0.6030765063822218,0.008195119180736843,-0.010380607290659372,-0.07830915961032137,0,70,255.0,255.0,255.0
286,14.3,10.65165600659273,2.722680611123759,-7.950751581465957,0.04729670618642605,-0.08666180618591704,-0.6069841462027169,0.006496900317178676,-0.011251416021297412,-0.07799643320948117,0,70,255.0,255.0,255.0
287,14.350000000000001,10.654028255436256,2.718333093707466,-7.981198154014939,0.04757909573069603,-0.08724614720524787,-0.61087614970317,0.004798681453620508,-0.012122224751935454,-0.07768370680864098,0,70,255.0,255.0,255.0
288,14.4,10.656412500983414,2.7139552707292927,-8.01183893583094,0.0477765743317881,-0.08787402866111058,-0.6147525168835809,0.0031004625900624017,-0.012993033482573463,-0.07737098040780079,0,70,255.0,255.0,255.0
289,14.450000000000001,10.65880449768705,2.7095449651674124,-8.042673145097963,0.04788914198970227,-0.08854545055350521,-0.6186132477439501,0.0014022437265042344,-0.013863842213211505,-0.07705825400696059,0,70,255.0,255.0,255.0
290,14.5,10.6612,2.7051,-8.0737,0.04791679870443852,-0.08926041288243171,-0.622458342284277,-0.0002959751370541497,-0.01473465094384896,-0.07674552760612041,0,70,255.0,255.0,255.0
291,14.55,10.663596510362675,2.700619165530699,-8.104918745957251,0.047964423730109104,-0.0899608761195746,-0.6262894346763778,0.002200976163877746,-0.013283878541866257,-0.07649816807790852,0,70,255.0,255.0,255.0
292,14.600000000000001,10.665998523165761,2.696105121365044,-8.1363287373347,0.048136896320826295,-0.09058880073661836,-0.630108159092068,0.0046979274648096415,-0.011833106139883557,-0.07625080854969662,0,70,255.0,255.0,255.0
293,14.65,10.668412280787509,2.691561494434039,-8.16792935573352,0.04843421647659007,-0.09114418673356295,-0.6339145155313474,0.007194878765741448,-0.010382333737900908,-0.07600344902148475,0,70,255.0,255.0,255.0
294,14.700000000000001,10.67084402560617,2.686991911668689,-8.199719982754894,0.048856384197400446,-0.09162703411040844,-0.6377085039942164,0.009691830066673344,-0.008931561335918206,-0.07575608949327285,0,70,255.0,255.0,255.0
295,14.75,10.6733,2.6824,-8.2317,0.049403399483257386,-0.09203734286715477,-0.6414901244806747,0.012188781367605095,-0.007480788933935556,-0.07550872996506452,0,70,255.0,255.0,255.0
296,14.8,10.675784351956564,2.6777883267534426,-8.26386863470504,0.049949598893133086,-0.09243868933578389,-0.6452501150917707,0.009659195027422537,-0.008573069811228955,-0.07489089447877166,0,70,255.0,255.0,255.0
297,14.850000000000001,10.678292851900695,2.673155220832357,-8.296224496646273,0.05036931898599965,-0.09289464984827768,-0.648979213928552,0.00712960868723998,-0.009665350688522353,-0.07427305899247878,0,70,255.0,255.0,255.0
298,14.9,10.680819175866548,2.66849795153455,-8.328766041234987,0.05066255976185709,-0.09340522440463613,-0.6526774209910184,0.0046000223470575126,-0.010757631565815714,-0.07365522350618593,0,70,255.0,255.0,255.0
299,14.950000000000001,10.683356999888264,2.663813788157829,-8.36149172388247,0.050829321220705395,-0.09397041300485925,-0.6563447362791704,0.0020704360068749556,-0.011849912443109113,-0.07303738801989307,0,70,255.0,255.0,255.0
300,15.0,10.6859,2.6591,-8.3944,0.050869603362544584,-0.09459021564894703,-0.6599811597930078,-0.000459150333307512,-0.012942193320402251,-0.07241955253360022,0,70,255.0,255.0,255.0
301,15.05,10.68844368181107,2.6543547274555306,-8.427489115222597,0.05089318069737365,-0.09521236653728749,-0.6635741049565234,0.001402243726470058,-0.011943842213215568,-0.07129825400702446,0,70,255.0,255.0,255.0
302,15.100000000000001,10.690990869231454,2.6495795953055272,-8.460756476080213,0.051009827735191596,-0.0957845998702686,-0.6671109851937103,0.003263637786247628,-0.010945491106028887,-0.0701769554804487,0,70,255.0,255.0,255.0
303,15.15,10.693546215746306,2.6447770994277593,-8.49419927932653,0.051219544475998406,-0.09630691564789037,-0.6705918005045682,0.005125031846025132,-0.00994713999884224,-0.06905565695387299,0,70,255.0,255.0,255.0
304,15.200000000000001,10.69611437484077,2.6399497356999944,-8.527814721715233,0.05152233091979411,-0.09677931387015283,-0.6740165508890976,0.006986425905802702,-0.008948788891655558,-0.06793435842729723,0,70,255.0,255.0,255.0
305,15.25,10.6987,2.6351,-8.5616,0.05191818706657868,-0.09720179453705594,-0.677385236347298,0.008847819965580372,-0.0079504377844688,-0.06681305990071795,0,70,255.0,255.0,255.0
306,15.3,10.701306520799161,2.630229563424437,-8.595553304404572,0.05233367831738428,-0.09762384451506562,-0.6807574650821474,0.007771830066643622,-0.008931561335918183,-0.06807608949325666,0,70,255.0,255.0,255.0
307,15.350000000000001,10.703932471173491,2.6253367979455335,-8.629676799032875,0.052695370073243056,-0.09809495067064776,-0.6841928452966237,0.006695840167706871,-0.009912684887367568,-0.06933911908579539,0,70,255.0,255.0,255.0
308,15.4,10.706575161148237,2.6204192507544124,-8.663973641458895,0.05300326233415497,-0.09861511300380238,-0.6876913769907269,0.005619850268770158,-0.010893808438816916,-0.07060214867833406,0,70,255.0,255.0,255.0
309,15.450000000000001,10.709231900748657,2.615474469042194,-8.69844698925661,0.053257355100120064,-0.09918433151452946,-0.6912530601644571,0.004543860369833407,-0.011874931990266301,-0.07186517827087278,0,70,255.0,255.0,255.0
310,15.5,10.7119,2.6105,-8.7331,0.05345764837113831,-0.09980260620282899,-0.6948778948178141,0.0034678704708968056,-0.012856055541715428,-0.07312820786340612,0,70,255.0,255.0,255.0
311,15.55,10.714577434992284,2.6054942188467223,-8.767934467159119,0.053644106033083346,-0.10042025540244962,-0.6984840347148958,0.003990436006904659,-0.01184991244310892,-0.071117388019862,0,70,255.0,255.0,255.0
312,15.600000000000001,10.717264846074588,2.6004588129123367,-8.802946727788287,0.05385669197182878,-0.1009875974471399,-0.7019896336198005,0.004513001542912513,-0.010843769344502412,-0.06910656817631787,0,70,255.0,255.0,255.0
313,15.65,10.71996353966075,2.5953962975545903,-8.838131754837896,0.0540954061873746,-0.10150463233689985,-0.7053946915325278,0.005035567078920348,-0.009837626245895941,-0.06709574833277382,0,70,255.0,255.0,255.0
314,15.700000000000001,10.722674822164604,2.5903091881312292,-8.873484521258337,0.05436024867972082,-0.1019713600717295,-0.7086992084530778,0.005558132614928202,-0.008831483147289432,-0.06508492848922968,0,70,255.0,255.0,255.0
315,15.75,10.7254,2.5852,-8.909,0.054651219448867416,-0.10238778065162878,-0.7119031843814506,0.006080698150936037,-0.007825340048682183,-0.06307410864568563,0,70,255.0,255.0,255.0
316,15.8,10.728139739231697,2.580070361188673,-8.944674426958956,0.054929897550285996,-0.10280713387513722,-0.7150823960582754,0.0050664259058072,-0.008948788891655417,-0.06409435842730586,0,70,255.0,255.0,255.0
317,15.850000000000001,10.730892144528157,2.5749183504051167,-8.980509089813982,0.05515786203944815,-0.10328265954079434,-0.7183126202241813,0.004052153660678364,-0.01007223773462865,-0.06511460820892608,0,70,255.0,255.0,255.0
318,15.9,10.73365468020877,2.5697411590272243,-9.016506539189525,0.05533511291635384,-0.10381435764860007,-0.721593856879168,0.003037881415549563,-0.011195686577601845,-0.06613485799054626,0,70,255.0,255.0,255.0
319,15.950000000000001,10.736424810592924,2.564535978432888,-9.052669325710049,0.055461650181003096,-0.10440222819855452,-0.7249261060232359,0.002023609170420726,-0.01231913542057508,-0.06715510777216649,0,70,255.0,255.0,255.0
320,16.0,10.7392,2.5593,-9.089,0.05553747383339591,-0.10504627119065758,-0.7283093676563847,0.001009336925291704,-0.01344258426354783,-0.06817535755378845,0,70,255.0,255.0,255.0
321,16.05,10.741978808080928,2.554031536398585,-9.125499825005061,0.055628303765773296,-0.10567920909700272,-0.7316663810520008,0.0026238603698037774,-0.01187493199025762,-0.06610517827085062,0,70,255.0,255.0,255.0
322,16.1,10.744764175812781,2.5487333854671936,-9.162164912955799,0.05579985987037629,-0.10623376438968336,-0.7349198854834698,0.004238383814315851,-0.01030727971696741,-0.06403499898791279,0,70,255.0,255.0,255.0
323,16.150000000000002,10.74756013950417,2.5434094663365108,-9.198990088404006,0.056052142147204886,-0.10670993706869948,-0.7380698809507921,0.0058529072588279244,-0.008739627443677199,-0.06196481970497496,0,70,255.0,255.0,255.0
324,16.2,10.750370735463706,2.538063698137219,-9.235970175901475,0.056385150596259065,-0.10710772713405108,-0.7411163674539671,0.007467430703339883,-0.007171975170387102,-0.05989464042203728,0,70,255.0,255.0,255.0
325,16.25,10.7532,2.5327,-9.2731,0.05679888521753887,-0.10742713458573817,-0.7440593449929958,0.009081954147851845,-0.0056043228970960035,-0.057824461139100336,0,70,255.0,255.0,255.0
326,16.3,10.75605062844459,2.527321093216988,-9.310375873020803,0.05721288738660912,-0.10774002973684813,-0.7469880797337053,0.007478132614957799,-0.00691148314730183,-0.05932492848927675,0,70,255.0,255.0,255.0
327,16.35,10.758919952220719,2.5219249077261066,-9.347800058362829,0.05754669847903466,-0.10811828290046836,-0.7499918378419235,0.0058743110820637535,-0.008218643397507656,-0.060825395839453164,0,70,255.0,255.0,255.0
328,16.400000000000002,10.761803961774548,2.516508175626732,-9.385376307194456,0.0578003184948155,-0.1085618940765989,-0.7530706193176506,0.004270489549169708,-0.009525803647713483,-0.06232586318962958,0,70,255.0,255.0,255.0
329,16.45,10.764698647552253,2.5110676290182385,-9.42310837068405,0.05797374743395163,-0.10907086326523968,-0.7562244241608863,0.0026666680162757755,-0.010832963897919216,-0.06382633053980588,0,70,255.0,255.0,255.0
330,16.5,10.7676,2.5056,-9.461,0.058066985296443066,-0.10964519046639079,-0.7594532523716312,0.0010628464833816187,-0.012140124148124265,-0.06532679788998141,0,70,255.0,255.0,255.0
331,16.55,10.770505078140712,2.5001032907334646,-9.49905348291173,0.05814414668778812,-0.11020867195560817,-0.7626693000131842,0.0020236091704206507,-0.010399135420570735,-0.06331510777214093,0,70,255.0,255.0,255.0
332,16.6,10.773415215304352,2.4945805836283785,-9.537265253592889,0.05826934621348514,-0.11068510400844789,-0.7657847631488454,0.0029843718574596827,-0.008658146693017205,-0.06130341765430044,0,70,255.0,255.0,255.0
333,16.650000000000002,10.776332813397634,2.4890362311565597,-9.575630282818183,0.0584425838735341,-0.1110744866249099,-0.7687996417786145,0.003945134544498715,-0.006917157965463675,-0.05929172753645995,0,70,255.0,255.0,255.0
334,16.7,10.779260274327276,2.4834745857898275,-9.614143541362317,0.058663859667935,-0.11137681980499424,-0.7717139359024913,0.004905897231537679,-0.005176169237910269,-0.0572800374186196,0,70,255.0,255.0,255.0
335,16.75,10.7822,2.4779,-9.6528,0.05893317359668786,-0.11159210354870092,-0.7745276455204763,0.005866659918576933,-0.003435180510356517,-0.055268347300780896,0,70,255.0,255.0,255.0
336,16.8,10.785153858992558,2.472315343849152,-9.691595795332283,0.0592185258622359,-0.1118092824407192,-0.777310720213547,0.0055474307033444425,-0.005251975170374238,-0.05605464042204798,0,70,255.0,255.0,255.0
337,16.85,10.788121586561878,2.466717557760378,-9.730531727265623,0.05948791666702231,-0.11211730106573835,-0.7801331095626812,0.005228201488111952,-0.007068769830391959,-0.05684093354331508,0,70,255.0,255.0,255.0
338,16.900000000000002,10.791102384634916,2.4611020997470283,-9.769609761532822,0.0597413460110471,-0.1125161594237584,-0.7829948135678786,0.004908972272879461,-0.00888556449040968,-0.057627226664582164,0,70,255.0,255.0,255.0
339,16.95,10.794095455138635,2.4554644278224522,-9.808831863866677,0.05997881389431024,-0.11300585751477929,-0.7858958322291393,0.004589743057646993,-0.010702359150427273,-0.0584135197858492,0,70,255.0,255.0,255.0
340,17.0,10.7971,2.4498,-9.8482,0.060200320316811794,-0.11358639533880112,-0.7888361655464634,0.004270513842414336,-0.012519153810445327,-0.05919981290711629,0,70,255.0,255.0,255.0
341,17.05,10.80011548588905,2.4441057338699275,-9.887715335759138,0.06042174986327893,-0.11417019828151066,-0.7917678191326368,0.004586668016271094,-0.010832963897935997,-0.05806633053981914,0,70,255.0,255.0,255.0
342,17.1,10.80314243844814,2.4383843853301097,-9.927375837344625,0.06065898711843891,-0.11466969172859473,-0.7946427986004454,0.004902822190127851,-0.009146773985426668,-0.05693284817252199,0,70,255.0,255.0,255.0
343,17.150000000000002,10.806181648062706,2.432640169855328,-9.967178671050544,0.06091203208229173,-0.11508487568005334,-0.7974611039498891,0.005218976363984609,-0.007460584072917337,-0.05579936580522484,0,70,255.0,255.0,255.0
344,17.2,10.809233905118178,2.426877302920365,-10.007121003170973,0.06118088475483736,-0.11541575013588645,-0.8002227351809678,0.005535130537841344,-0.005774394160408126,-0.05466588343792777,0,70,255.0,255.0,255.0
345,17.25,10.8123,2.4211,-10.0472,0.06146554513607585,-0.11566231509609413,-0.8029276922936818,0.0058512847116978794,-0.004088204247898575,-0.05353240107063062,0,70,255.0,255.0,255.0
346,17.3,10.815380197451244,2.4153113206711394,-10.08741326163117,0.06173447468465589,-0.11589392443323936,-0.8056020032559116,0.004905897231503606,-0.005176169237910016,-0.05344003741856102,0,70,255.0,255.0,255.0
347,17.35,10.818472659645566,2.4095097009191844,-10.127760123355882,0.061956134859226214,-0.11617993201988513,-0.808271696035538,0.003960509751309333,-0.006264134227921456,-0.05334767376649143,0,70,255.0,255.0,255.0
348,17.400000000000002,10.821575023114265,2.4036924208316592,-10.168240354265013,0.06213052565978683,-0.11652033785603151,-0.8109367706325609,0.00301512227111506,-0.0073520992179328965,-0.05325531011442183,0,70,255.0,255.0,255.0
349,17.45,10.824684924388645,2.397856760496089,-10.208853723449428,0.062257647086337714,-0.1169151419416784,-0.81359722704698,0.002069734790920854,-0.00844006420794426,-0.05316294646235225,0,70,255.0,255.0,255.0
350,17.5,10.8278,2.392,-10.2496,0.0623374991388789,-0.11736434427682593,-0.8162530652787958,0.0011243473107260815,-0.00952802919795559,-0.053070582810276434,0,70,255.0,255.0,255.0
351,17.55,10.830918924305978,2.386120183445514,-10.29047881771619,0.06243235139808919,-0.1178221039855352,-0.8188961678437001,0.002669743057685436,-0.008782359150414844,-0.05265351978589478,0,70,255.0,255.0,255.0
352,17.6,10.834044522969597,2.3802184109931526,-10.33148926923185,0.06260447344464744,-0.11824258019186744,-0.8215184172573854,0.00421513880464479,-0.008036689102874096,-0.052236456761513124,0,70,255.0,255.0,255.0
353,17.650000000000002,10.83718065948023,2.3742965468180337,-10.372630311889411,0.06285386527855368,-0.11862577289582263,-0.8241198135198515,0.0057605345516041455,-0.007291019055333349,-0.05181939373713147,0,70,255.0,255.0,255.0
354,17.7,10.840331197327243,2.368356455095277,-10.413900903031314,0.06318052689980784,-0.11897168209740075,-0.8267003566310984,0.007305930298563391,-0.006545349007792655,-0.05140233071274985,0,70,255.0,255.0,255.0
355,17.75,10.8435,2.3624,-10.4553,0.06358445830840999,-0.11928030779660187,-0.8292600465911264,0.008851326045522412,-0.005799678960251686,-0.05098526768836642,0,70,255.0,255.0,255.0
356,17.8,10.846689705324849,2.3564287455468023,-10.496826667504063,0.06399211972299397,-0.11956965962461859,-0.8318053253692841,0.0074551305378367985,-0.005774394160416474,-0.05082588343793723,0,70,255.0,255.0,255.0
357,17.85,10.849898048476044,2.3504430551082045,-10.538480399716722,0.06432997136219368,-0.11985774721264351,-0.8343426349349202,0.006058935030151185,-0.005749109360581261,-0.05066649918750805,0,70,255.0,255.0,255.0
358,17.900000000000002,10.853121538964814,2.3444429918962046,-10.580260798177346,0.0645980132260091,-0.1201445705606767,-0.8368719752880349,0.004662739522465572,-0.005723824560746048,-0.05050711493707886,0,70,255.0,255.0,255.0
359,17.95,10.856356686302389,2.3384286191228036,-10.622167464425315,0.06479624531444023,-0.12043012966871812,-0.839393346428628,0.003266544014780057,-0.005698539760910837,-0.05034773068664969,0,70,255.0,255.0,255.0
360,18.0,10.8596,2.3324,-10.6642,0.0649246676274871,-0.12071442453676777,-0.8419067483566998,0.0018703485070944437,-0.005673254961075069,-0.050188346436222275,0,70,255.0,255.0,255.0
361,18.05,10.862848654394625,2.326356834367274,-10.706357712267558,0.06502316970993663,-0.12101925751599316,-0.8443945306791644,0.0020697347908865712,-0.006520064207940147,-0.04932294646235923,0,70,255.0,255.0,255.0
362,18.1,10.866102483126232,2.320297368574028,-10.748638731901272,0.06513164110657575,-0.12136643095756179,-0.8468390430029358,0.0022691210746786984,-0.007366873454805224,-0.04845754648849618,0,70,255.0,255.0,255.0
363,18.150000000000002,10.869361984660522,2.3142194855971447,-10.791040895401208,0.06525008181740449,-0.12175594486147369,-0.8492402853280141,0.002468507358470826,-0.008213682701670302,-0.04759214651463314,0,70,255.0,255.0,255.0
364,18.2,10.872627657463209,2.3081210684135085,-10.833562039267425,0.06537849184242284,-0.1221877992277288,-0.8515982576543989,0.002667893642262939,-0.00906049194853532,-0.04672674654077015,0,70,255.0,255.0,255.0
365,18.25,10.8759,2.302,-10.8762,0.06551687118163078,-0.1226619940563272,-0.8539129599820909,0.0028672799260550663,-0.009907301195400398,-0.04586134656690355,0,70,255.0,255.0,255.0
366,18.3,10.879179677096642,2.295855116984101,-10.918952883425709,0.06567520143724732,-0.12312131031140693,-0.8562005519140817,0.0034659302986062763,-0.008465349007788172,-0.04564233071272667,0,70,255.0,255.0,255.0
367,18.35,10.882468019019035,2.2896890705956823,-10.961819872678198,0.06586346421149142,-0.12350852895710603,-0.8584771930533637,0.004064580671157486,-0.007023396820175946,-0.04542331485854979,0,70,255.0,255.0,255.0
368,18.400000000000002,10.885766522393103,2.283505465715213,-11.004800420217835,0.06608165950436308,-0.12382364999342453,-0.8607428833999368,0.004663231043708697,-0.00558144463256372,-0.045204299004372915,0,70,255.0,255.0,255.0
369,18.45,10.889076683844781,2.277307907223163,-11.047893978504979,0.06632978731586227,-0.12406667342036239,-0.8629976229538009,0.005261881416259865,-0.004139492444951596,-0.04498528315019606,0,70,255.0,255.0,255.0
370,18.5,10.8924,2.2711,-11.0911,0.06660784764598904,-0.12423759923791967,-0.8652414117149563,0.005860531788810963,-0.0026975402573395924,-0.044766267296020956,0,70,255.0,255.0,255.0
371,18.55,10.895737437218797,2.2648842976963226,-11.134417954029615,0.06688402454107871,-0.12439950123837626,-0.8674752616645217,0.005186544014775575,-0.0037785397609236535,-0.04458773068659702,0,70,255.0,255.0,255.0
372,18.6,10.89908784079763,2.258659149043243,-11.177847377385946,0.0671265020474666,-0.12461545321401205,-0.869700184783616,0.004512556240740187,-0.004859539264507715,-0.04440919407717309,0,70,255.0,255.0,255.0
373,18.650000000000002,10.902449525767066,2.2524218515420014,-11.22138782372747,0.06733528016515274,-0.12488545516482703,-0.8719161810722391,0.0038385684667047995,-0.005940538768091776,-0.04423065746774916,0,70,255.0,255.0,255.0
374,18.7,10.905820807157667,2.2461697026938405,-11.265038846712661,0.06751035889413708,-0.1252095070908212,-0.8741232505303909,0.0031645806926694593,-0.00702153827167576,-0.044052120858325244,0,70,255.0,255.0,255.0
375,18.75,10.9092,2.2399,-11.3088,0.06765173823441965,-0.12558760899199461,-0.8763213931580714,0.0024905929186332942,-0.008102537775259933,-0.043873584248898645,0,70,255.0,255.0,255.0
376,18.8,10.912585774028171,2.2336108922306086,-11.352670500455837,0.06778070039844121,-0.1259686847350894,-0.8784904014278142,0.0026678936422286164,-0.0071404919485312,-0.04288674654081087,0,70,255.0,255.0,255.0
377,18.85,10.915978217790448,2.2273039332313465,-11.396648217778026,0.06791852759864252,-0.12630165818684774,-0.8806100678121526,0.002845194365823938,-0.006178446121802467,-0.04189990883272309,0,70,255.0,255.0,255.0
378,18.900000000000002,10.91937777453864,2.2209815281167797,-11.440730684872296,0.0680652198350236,-0.12658652934726966,-0.8826803923110865,0.0030224950894192602,-0.005216400295073734,-0.04091307112463532,0,70,255.0,255.0,255.0
379,18.95,10.922784887524552,2.2146460820014755,-11.484915434644376,0.06822077710758444,-0.1268232982163551,-0.8847013749246161,0.00319979581301457,-0.0042543544683450694,-0.03992623341654761,0,70,255.0,255.0,255.0
380,19.0,10.9262,2.2083,-11.5292,0.06838519941632507,-0.12701196479410415,-0.8866730156527411,0.0033770965366097805,-0.003292308641616337,-0.03893939570846072,0,70,255.0,255.0,255.0
381,19.05,10.929623466668518,2.2019449333812413,-11.573582444147041,0.06855317386514777,-0.12719775982126813,-0.8886271326242089,0.003341881416298386,-0.004139492444943128,-0.03922528315024572,0,70,255.0,255.0,255.0
382,19.1,10.933055288040581,2.1955795180313697,-11.618062951501956,0.0687193875579549,-0.1274259140385985,-0.8905955439677659,0.003306666295986992,-0.004986676248269918,-0.039511170592030714,0,70,255.0,255.0,255.0
383,19.150000000000002,10.936495376078382,2.1892016359908784,-11.662642236783354,0.06888384049474648,-0.12769642744609513,-0.892578249683412,0.0032714511756755976,-0.005833860051596709,-0.03979705803381572,0,70,255.0,255.0,255.0
384,19.200000000000003,10.939943642744124,2.1828091693002576,-11.707321014709834,0.06904653267552248,-0.12800930004375816,-0.8945752497711473,0.0032362360553642036,-0.006681043854923499,-0.04008294547560071,0,70,255.0,255.0,255.0
385,19.25,10.9434,2.1764,-11.7521,0.06920746410028289,-0.12836453183158744,-0.896586544230972,0.0032010209350523677,-0.007528227658248676,-0.04036883291738391,0,70,255.0,255.0,255.0
386,19.3,10.946864359297749,2.169972574244426,-11.796979722956005,0.06936660414097592,-0.12872827597983577,-0.8986010680753631,0.0031645806926689163,-0.0070215382716839175,-0.040212120858263485,0,70,255.0,255.0,255.0
387,19.35,10.950336630047229,2.163527594643172,-11.841959976214156,0.06952392216954979,-0.12906668565875584,-0.9006077563167983,0.003128140450285465,-0.006514848885119159,-0.040055408799143065,0,70,255.0,255.0,255.0
388,19.400000000000002,10.953816721147836,2.157066327919705,-11.887040367994302,0.06967941818600447,-0.12937976086834768,-0.9026066089552774,0.0030917002079020135,-0.0060081594985544,-0.03989869674002264,0,70,255.0,255.0,255.0
389,19.450000000000003,10.957304541498962,2.1505900407974927,-11.932220506516302,0.06983309219034,-0.1296675016086113,-0.9045976259908007,0.003055259965518562,-0.005501470111989641,-0.03974198468090221,0,70,255.0,255.0,255.0
390,19.5,10.9608,2.1441,-11.9775,0.06998494418255632,-0.12992990787954664,-0.9065808074233678,0.0030188197231348912,-0.004994780725425363,-0.03958527262177913,0,70,255.0,255.0,255.0
391,19.55,10.964303096140487,2.137597569641056,-12.022877864028942,0.07014040957095921,-0.1301611362593909,-0.908520595074326,0.0031997958129804907,-0.004254354468345534,-0.03800623341655063,0,70,255.0,255.0,255.0
392,19.6,10.967814191770504,2.1310845033959414,-12.06835074364143,0.07030492376385439,-0.1303553433263812,-0.9103814307650229,0.0033807719028260902,-0.003513928211265706,-0.03642719421132212,0,70,255.0,255.0,255.0
393,19.650000000000002,10.97133373933028,2.1245626523302987,-12.113914691239442,0.07047848676124183,-0.1305125290805175,-0.9121633144954583,0.00356174799267169,-0.002773501954185877,-0.03484815500609362,0,70,255.0,255.0,255.0
394,19.700000000000003,10.974862191260039,2.1180338675097703,-12.159565759224972,0.07066109856312154,-0.1306326935217998,-0.9138662462656324,0.0037427240825172892,-0.0020330756971060483,-0.03326911580086511,0,70,255.0,255.0,255.0
395,19.75,10.9784,2.1115,-12.2053,0.07085275916949355,-0.13071583665022812,-0.9154902260755448,0.003923700172362654,-0.0012926494400264943,-0.03169007659563672,0,70,255.0,255.0,255.0
396,19.8,10.981947256140309,2.1049619471913488,-12.251114420928221,0.07103175757518672,-0.13081917898260165,-0.917092551627327,0.003236236055363974,-0.0028410438549144818,-0.032402945475652534,0,70,255.0,255.0,255.0
397,19.85,10.985502602870755,2.0984167917730603,-12.297009849220133,0.07117638277502995,-0.13099994103571957,-0.9187305206231101,0.0025487719383652935,-0.004389438269802469,-0.03311581435566835,0,70,255.0,255.0,255.0
398,19.900000000000002,10.989064321531048,2.091860662759098,-12.342988067047935,0.07128663476902325,-0.1312581228095819,-0.9204041330628938,0.0018613078213666132,-0.005937832684690458,-0.033828683235684165,0,70,255.0,255.0,255.0
399,19.950000000000003,10.992630693460894,2.085289689163423,-12.389050856583824,0.0713625135571666,-0.13159372430418864,-0.9221133889466786,0.0011738437043679324,-0.007486227099578445,-0.034541552115699974,0,70,255.0,255.0,255.0
400,20.0,10.9962,2.0787,-12.4352,0.07140401913946004,-0.1320067455195397,-0.9238582882744638,0.00048637958736907905,-0.009034621514465657,-0.035254420995713964,0,70,255.0,255.0,255.0
401,20.05,10.999771079298283,2.0720890415935473,-12.481436452258171,0.07144456012828235,-0.1324181478102012,-0.9255891984163778,0.0011352599655229149,-0.007421470111993699,-0.03398198468084617,0,70,255.0,255.0,255.0
402,20.1,11.003344996746476,2.065459529511815,-12.527757859478044,0.07151754513601234,-0.13274889253073907,-0.9272564867425485,0.0017841403436767507,-0.0058083187095217415,-0.03270954836597838,0,70,255.0,255.0,255.0
403,20.150000000000002,11.006923374545531,2.0588154966333088,-12.57416104056883,0.07162297416265001,-0.13299897968115337,-0.9288601532529758,0.0024330207218305868,-0.004195167307049783,-0.031437112051110584,0,70,255.0,255.0,255.0
404,20.200000000000003,11.01050783489639,2.052160975836535,-12.620642814439748,0.0717608472081954,-0.13316840926144408,-0.9304001979476596,0.0030819010999844224,-0.002582015904577825,-0.03016467573624279,0,70,255.0,255.0,255.0
405,20.25,11.0141,2.0455,-12.6672,0.07193116427264847,-0.13325718127161118,-0.9318766208265998,0.003730781478138101,-0.0009688645021062037,-0.0288922394213742,0,70,255.0,255.0,255.0
406,20.3,11.017701226666563,2.0388354864344604,-12.713830170039099,0.0721180019116657,-0.13333222977659148,-0.933334654707156,0.00374272408255123,-0.0020330756971064165,-0.02942911580087469,0,70,255.0,255.0,255.0
407,20.35,11.021311810143336,2.032165890179678,-12.7605339128677,0.0723054366809036,-0.1334604888413218,-0.9348195324066872,0.003754666686964359,-0.003097286892106629,-0.029965992180375184,0,70,255.0,255.0,255.0
408,20.400000000000002,11.024931780286826,2.0254885507076654,-12.807312570676752,0.07249346858036214,-0.13364195846580218,-0.9363312539251937,0.003766609291377488,-0.004161498087106842,-0.030502868559875673,0,70,255.0,255.0,255.0
409,20.450000000000003,11.028561166953544,2.018800807490435,-12.854167485657202,0.07268209761004135,-0.13387663865003252,-0.937869819262675,0.003778551895790617,-0.005225709282107054,-0.031039744939376165,0,70,255.0,255.0,255.0
410,20.5,11.0322,2.0121,-12.9011,0.07287132376994118,-0.13416452939401288,-0.9394352284191313,0.003790494500203634,-0.0062899204771074135,-0.03157662131887218,0,70,255.0,255.0,255.0
411,20.55,11.035848014035457,2.00538421266861,-12.948110867585438,0.07304343222505537,-0.13446093308343024,-0.9409921827549966,0.0030938437043634428,-0.005566227099586597,-0.030701552115740136,0,70,255.0,255.0,255.0
412,20.6,11.039503762680177,1.9986545097694717,-12.995198489051164,0.07318070814037754,-0.13472115210397154,-0.9425053836307054,0.0023971929085232517,-0.00484253372206578,-0.029826482912608095,0,70,255.0,255.0,255.0
413,20.650000000000002,11.043165504307165,1.9919127005360278,-13.042360676724174,0.07328315151590768,-0.13494518645563683,-0.9439748310462575,0.0017005421126830601,-0.004118840344544963,-0.028951413709476057,0,70,255.0,255.0,255.0
414,20.700000000000003,11.046831497289437,1.9851605942017223,-13.089595242931455,0.07335076235164584,-0.13513303613842603,-0.9454005250016531,0.001003891316842869,-0.0033951469670241465,-0.028076344506344015,0,70,255.0,255.0,255.0
415,20.75,11.0505,1.9784,-13.1369,0.07338354064759199,-0.13528470115233923,-0.9467824654968917,0.0003072405210028384,-0.002671453589503381,-0.027201275303204042,0,70,255.0,255.0,255.0
416,20.8,11.054169917191604,1.971632462891098,-13.184272759619155,0.07342026918811594,-0.13541603788969117,-0.9481206142728763,0.0011619010999547885,-0.00258201590457383,-0.026324675736180924,0,70,255.0,255.0,255.0
417,20.85,11.05784273913596,1.9648584707424348,-13.231711330927652,0.07349973075758746,-0.13554290274279662,-0.9494149330705098,0.0020165616789067386,-0.002492578219644279,-0.025448076169157806,0,70,255.0,255.0,255.0
418,20.900000000000002,11.061520602484514,1.9580782471482223,-13.27921352242657,0.07362192535600662,-0.1356652957116556,-0.9506654218897922,0.0028712222578586885,-0.002403140534714728,-0.024571476602134684,0,70,255.0,255.0,255.0
419,20.950000000000003,11.065205643888712,1.951292015702673,-13.326777142616994,0.07378685298337334,-0.1357832167962681,-0.9518720807307234,0.003725882836810639,-0.002313702849785177,-0.023694877035111566,0,70,255.0,255.0,255.0
420,21.0,11.0689,1.9445,-13.3744,0.07399451363968766,-0.13589666599663414,-0.9530349095933032,0.004580543415762084,-0.0022242651648558542,-0.022818277468082293,0,70,255.0,255.0,255.0
421,21.05,11.07260511719812,1.9377019357669965,-13.422080493937946,0.07420349102247734,-0.1360349153578079,-0.95418936015349,0.0037785518958243997,-0.0033057092820946085,-0.023359744939392444,0,70,255.0,255.0,255.0
422,21.1,11.076319680775981,1.930895607260788,-13.469819387238243,0.0743723688292701,-0.13622723692484362,-0.9553708840872425,0.002976560375886716,-0.004387153399333363,-0.02390121241070259,0,70,255.0,255.0,255.0
423,21.150000000000002,11.08004168575478,1.924078310871081,-13.517618033569564,0.074501147060066,-0.13647363069774124,-0.9565794813945604,0.002174568855949032,-0.005468597516572117,-0.024442679882012742,0,70,255.0,255.0,255.0
424,21.200000000000003,11.08376912715572,1.9172473429875825,-13.565477786600592,0.07458982571486503,-0.1367740966765008,-0.9578151520754438,0.001372577336011348,-0.006550041633810871,-0.02498414735332289,0,70,255.0,255.0,255.0
425,21.25,11.0875,1.9104,-13.6134,0.07463840479366714,-0.1371286348611223,-0.9590778961298927,0.0005705858160734989,-0.007631485751049549,-0.025525614824630338,0,70,255.0,255.0,255.0
426,21.3,11.091232814015912,1.9035349940409152,-13.661385264629061,0.0746777667219892,-0.13745230067907446,-0.9603219451131672,0.0010038913168089198,-0.005315146967036688,-0.02423634450634891,0,70,255.0,255.0,255.0
427,21.35,11.094968137760118,1.8966567002144123,-13.709431120119387,0.07473879392534802,-0.137660149557826,-0.9615015305805277,0.0014371968175443408,-0.0029988081830238274,-0.022947074188067483,0,70,255.0,255.0,255.0
428,21.400000000000002,11.098707054496364,1.8897709093674522,-13.757534343295182,0.07482148640374364,-0.13775218149737686,-0.962616652531974,0.0018705023182797615,-0.0006824693990109664,-0.021657803869786052,0,70,255.0,255.0,255.0
429,21.450000000000003,11.102450647488409,1.8828834123469946,-13.805691710980653,0.07492584415717601,-0.13772839649772708,-0.9636673109675062,0.0023038078190151827,0.0016338693850018945,-0.020368533551504624,0,70,255.0,255.0,255.0
430,21.5,11.1062,1.876,-13.8539,0.07505186718564515,-0.13758879455887668,-0.9646535058871244,0.0027371133197503505,0.003950208169015479,-0.019079263233225063,0,70,255.0,255.0,255.0
431,21.55,11.10995562673823,1.869124488069343,-13.902156847545815,0.07516544208955928,-0.1374518819258959,-0.9656268593938331,0.0018058828368148296,0.0015262971502144939,-0.0198548770351188,0,70,255.0,255.0,255.0
432,21.6,11.113715768183551,1.862252791881561,-13.950463332284219,0.07523245546932664,-0.13743616484385524,-0.9666389935906362,0.0008746523538793085,-0.0008976138685864912,-0.020630490837012537,0,70,255.0,255.0,255.0
433,21.650000000000002,11.11747809625976,1.855378851659108,-13.998821393249715,0.07525290732494722,-0.1375416433127546,-0.9676899084775342,-5.65781290562126e-05,-0.003321524887387476,-0.021406104638906277,0,70,255.0,255.0,255.0
434,21.700000000000003,11.121240282890644,1.8484966076244365,-14.04723296947681,0.07522679765642101,-0.13776831733259398,-0.968779604054527,-0.0009878086119917335,-0.005745435906188461,-0.022181718440800014,0,70,255.0,255.0,255.0
435,21.75,11.125,1.8416,-14.0957,0.07515412646374803,-0.1381161869033734,-0.9699080803216142,-0.0019190390949277436,-0.008169346924989274,-0.022957332242693695,0,70,255.0,255.0,255.0
436,21.8,11.128755879031164,1.8346846536817127,-14.144223345187683,0.07509246491977607,-0.1384841716173432,-0.971010617311515,-0.0005474226639502061,-0.006550041633802439,-0.021144147353330898,0,70,255.0,255.0,255.0
437,21.85,11.13251038950567,1.8277529322593413,-14.192799550743747,0.075099384197353,-0.13877119106675365,-0.9720224950569473,0.0008241937670273314,-0.004930736342615603,-0.019330962463968097,0,70,255.0,255.0,255.0
438,21.900000000000002,11.136266960464594,1.8208088839961134,-14.24142408370597,0.07517488429647881,-0.13897724525160476,-0.9729437135579116,0.002195810198004869,-0.0033114310514287676,-0.0175177775746053,0,70,255.0,255.0,255.0
439,21.950000000000003,11.14002902094901,1.8138565571552567,-14.29009241111213,0.07531896521715349,-0.13910233417189655,-0.9737742728144079,0.0035674266289824064,-0.0016921257602419328,-0.015704592685242498,0,70,255.0,255.0,255.0
440,22.0,11.1438,1.8069,-14.3388,0.07553162695937705,-0.13914645782762894,-0.9745141728264359,0.004939043059959736,-7.282046905499051e-05,-0.013891407795872723,0,70,255.0,255.0,255.0
441,22.05,11.147582457137112,1.7999424972038045,-14.387543371703467,0.07576069823135045,-0.13915543160473035,-0.9752266713601189,0.004223807818976478,-0.00028613061500198125,-0.014608533551447788,0,70,255.0,255.0,255.0
442,22.1,11.151375473793768,1.7929842790810717,-14.43632326474081,0.07595400774127471,-0.13917507088912914,-0.9759750261815807,0.0035085725779932207,-0.000499440760948972,-0.015325659307022852,0,70,255.0,255.0,255.0
443,22.150000000000002,11.155177261881871,1.7860248123564366,-14.485141471926422,0.07611155548914979,-0.13920537568082525,-0.9767592372908213,0.002793337337009963,-0.0007127509068959628,-0.016042785062597917,0,70,255.0,255.0,255.0
444,22.200000000000003,11.158986033313317,1.779063563754534,-14.533999786074691,0.07623334147497571,-0.13924634597981875,-0.9775793046878406,0.0020781020960267053,-0.0009260610528429535,-0.01675991081817298,0,70,255.0,255.0,255.0
445,22.25,11.1628,1.7721,-14.5829,0.07631936569875244,-0.13929798178610955,-0.9784352283726385,0.0013628668550429435,-0.0011393711987908173,-0.017477036573739113,0,70,255.0,255.0,255.0
446,22.3,11.166617492420396,1.7651333575030679,-14.631843167998461,0.0763767421548286,-0.13937410196373404,-0.9792826972480022,0.0009321913880034166,-0.0019054359061891567,-0.016421718440811247,0,70,255.0,255.0,255.0
447,22.35,11.170437315319262,1.7581619514163702,-14.680827390293025,0.07641258483755278,-0.13948852537672848,-0.9800774002167197,0.0005015159209638897,-0.002671500613587496,-0.01536640030788338,0,70,255.0,255.0,255.0
448,22.400000000000002,11.174258392007928,1.7511838665781387,-14.729850028588357,0.07642689374692499,-0.1396412520250928,-0.9808193372787907,7.084045392436291e-05,-0.003437565320985835,-0.014311082174955513,0,70,255.0,255.0,255.0
449,22.450000000000003,11.17807964579773,1.7441971878266047,-14.778908444589128,0.07641966888294523,-0.13983228190882707,-0.9815085084342152,-0.0003598350131151641,-0.004203630028384175,-0.013255764042027647,0,70,255.0,255.0,255.0
450,22.5,11.1819,1.7372,-14.828,0.07639091024561347,-0.14006161502793124,-0.9821449136829934,-0.0007905104801552154,-0.0049696947357826815,-0.012200445909096302,0,70,255.0,255.0,255.0
451,22.55,11.18571877318131,1.7301912727839235,-14.877122356302692,0.07636433314933436,-0.14027616054033196,-0.9827465396478529,-0.0002725733710087368,-0.003612125760245613,-0.011864592685283165,0,70,255.0,255.0,255.0
452,22.6,11.189536864929192,1.7231735152534464,-14.9262743740871,0.0763636529085126,-0.1404228276039558,-0.9833313729515217,0.00024536373813774186,-0.0022545567847085447,-0.011528739461470029,0,70,255.0,255.0,255.0
453,22.650000000000002,11.19335557008642,1.7161501213310075,-14.97545521372016,0.07638886952314813,-0.14050161621880283,-0.9838994135939999,0.0007633008472842206,-0.0008969878091714765,-0.011192886237656893,0,70,255.0,255.0,255.0
454,22.700000000000003,11.197176183495763,1.7091244849390455,-15.024664035568815,0.076439982993241,-0.14051252638487297,-0.9844506615752874,0.0012812379564306991,0.00046058116636559215,-0.010857033013843756,0,70,255.0,255.0,255.0
455,22.75,11.201,1.7021,-15.0739,0.07651699331879121,-0.14045555810216626,-0.9849851168953841,0.001799175065576919,0.0018181501419034518,-0.010521179790027979,0,70,255.0,255.0,255.0
456,22.8,11.204828214854368,1.6950791513612378,-15.123162606790768,0.07661392524783128,-0.14038525587493964,-0.9855231441605886,0.0020781020960264837,0.0009939389471611431,-0.01099991081814889,0,70,255.0,255.0,255.0
457,22.85,11.208661624963975,1.6880607875698435,-15.172452713358584,0.07672480352839386,-0.14035616420745015,-0.9860851079771991,0.002357029126476048,0.00016972775241883443,-0.011478641846269802,0,70,255.0,255.0,255.0
458,22.900000000000002,11.2125009276464,1.6810428480978303,-15.221771516531012,0.0768496281604789,-0.14036828309969776,-0.9866710083452156,0.0026359561569256123,-0.0006544834423234743,-0.011957372874390713,0,70,255.0,255.0,255.0
459,22.950000000000003,11.216346820219217,1.6740232724172113,-15.271120213135632,0.07698839914408642,-0.1404216125516825,-0.9872808452646381,0.002914883187375177,-0.001478694637065783,-0.012436103902511625,0,70,255.0,255.0,255.0
460,23.0,11.2202,1.667,-15.3205,0.07714111647921641,-0.1405161525634043,-0.9879146187354668,0.003193810217824722,-0.002302905831807367,-0.012914834930629837,0,70,255.0,255.0,255.0
461,23.05,11.22406036740122,1.6599713217711247,-15.369911216534232,0.07725996585933403,-0.14063081595990912,-0.9885208837097833,0.0015601649868801184,-0.0022836300283846085,-0.011335764042029673,0,70,255.0,255.0,255.0
462,23.1,11.227924635214908,1.6529369344671785,-15.419350772478571,0.07729713297790443,-0.14074451556624276,-0.9890481951396698,-7.34802440644851e-05,-0.0022643542249618505,-0.009756693153429507,0,70,255.0,255.0,255.0
463,23.150000000000002,11.231788719327986,1.64589688627767,-15.468814720155795,0.07725261783492758,-0.1408572513824053,-0.9894965530251263,-0.0017071254750090888,-0.002245078421539092,-0.008177622264829341,0,70,255.0,255.0,255.0
464,23.200000000000003,11.235648535627375,1.6388512253921073,-15.518299111888679,0.07712642043040352,-0.14096902340839668,-0.9898659573661528,-0.003340770705953692,-0.0022258026181163335,-0.006598551376229177,0,70,255.0,255.0,255.0
465,23.25,11.2395,1.6318,-15.5678,0.07691854076433223,-0.14107983164421692,-0.9901564081627492,-0.004974415936898402,-0.0022065268146931327,-0.005019480487632677,0,70,255.0,255.0,255.0
466,23.3,11.24334071554075,1.6247435615542625,-15.6173141270723,0.07673021131482076,-0.1411714802854251,-0.9904093210002864,-0.002558762043560524,-0.0014594188336338636,-0.005097033013857556,0,70,255.0,255.0,255.0
467,23.35,11.247175034176394,1.6176834745614415,-15.666840996727135,0.07666266455997617,-0.1412257735275803,-0.990666111464135,-0.00014310815022264625,-0.0007123108525745945,-0.005174585540082435,0,70,255.0,255.0,255.0
468,23.400000000000002,11.25100899504166,1.6106216067914887,-15.716380802845821,0.0767159004997985,-0.14124271137068256,-0.9909267795542948,0.0022725457431152316,3.479712848467433e-05,-0.005252138066307314,0,70,255.0,255.0,255.0
469,23.450000000000003,11.254848637271282,1.603559826014357,-15.76593373930967,0.0768899191342877,-0.14122229381473184,-0.9911913252707657,0.0046881996364531095,0.0007819051095439436,-0.005329690592532192,0,70,255.0,255.0,255.0
470,23.5,11.2587,1.5965,-15.8155,0.07718472046344378,-0.14116452085972814,-0.991459748613548,0.007103853529791038,0.0015290130906042698,-0.005407243118756178,0,70,255.0,255.0,255.0
471,23.55,11.262567170435775,1.5894432320118235,-15.86507947517657,0.07748318888137369,-0.14111526289838966,-0.9917138322890793,0.004834883187404894,0.0004413053629346588,-0.004756103902493249,0,70,255.0,255.0,255.0
472,23.6,11.266446428079519,1.5823875672870542,-15.914670840612896,0.07766820878218428,-0.14112039032343468,-0.9919353590037973,0.0025659128450187495,-0.0006464023647349522,-0.004104964686230321,0,70,255.0,255.0,255.0
473,23.650000000000002,11.270332100505374,1.5753302865563736,-15.964272468460939,0.07773978016587557,-0.14117990313486317,-0.9921243287577023,0.00029694250263260537,-0.0017341100924045637,-0.003453825469967392,0,70,255.0,255.0,255.0
474,23.700000000000003,11.274218515287487,1.5682686705504616,-16.013882730872652,0.07769790303244753,-0.14129380133267513,-0.9922807415507942,-0.0019720278397535387,-0.0028218178200741743,-0.0028026862537044637,0,70,255.0,255.0,255.0
475,23.75,11.2781,1.5612,-16.0635,0.07754257738190024,-0.14146208491687054,-0.9924045973830729,-0.0042409981821394105,-0.003909525547743042,-0.0021515470374424694,0,70,255.0,255.0,255.0
476,23.8,11.28197220271615,1.5541227103984423,-16.113123172221428,0.07735303315969705,-0.14161546812101702,-0.9925273498434133,-0.0033407707059878483,-0.002225802618116222,-0.002758551376171434,0,70,255.0,255.0,255.0
477,23.85,11.285836053505534,1.5470398562903394,-16.162753240821292,0.07720850031130144,-0.14168466517868217,-0.9926804525206899,-0.002440543229836286,-0.0005420796884894018,-0.0033655557149003985,0,70,255.0,255.0,255.0
478,23.900000000000002,11.289693802936842,1.5399556469830153,-16.212391723310446,0.07710897883671343,-0.14166967608986594,-0.9928639054149032,-0.001540315753684724,0.0011416432411374185,-0.003972560053629363,0,70,255.0,255.0,255.0
479,23.950000000000003,11.293547701578769,1.532874291783794,-16.262040137199733,0.07705446873593297,-0.14157050085456843,-0.9930777085260529,-0.0006400882775331618,0.002825366170764239,-0.004579564392358328,0,70,255.0,255.0,255.0
480,24.0,11.2974,1.5258,-16.3117,0.07704497000896011,-0.14138713947278952,-0.9933218618541391,0.0002601391986184476,0.004509089100391606,-0.0051865687310854725,0,70,255.0,255.0,255.0
481,24.05,11.301252818699629,1.5187355263944065,-16.361371835937728,0.07707267847983712,-0.14120686461754112,-0.9935367683372305,0.0008481996364619743,0.0027019051095442414,-0.003409690592570033,0,70,255.0,255.0,255.0
482,24.1,11.305107757898348,1.5116778075515869,-16.411052196101938,0.07712978997260632,-0.1411169489618351,-0.9936628309133961,0.001436260074305501,0.0008947211186968772,-0.0016328124540545934,0,70,255.0,255.0,255.0
483,24.150000000000002,11.308966287747255,1.5046223255115636,-16.460736638297288,0.07721630448726768,-0.14111739250567143,-0.9937000495826359,0.0020243205121490276,-0.0009124628721504874,0.00014406568446084615,0,70,255.0,255.0,255.0
484,24.200000000000003,11.312829878397439,1.4975645623143603,-16.510420720328426,0.07733222202382121,-0.14120819524905015,-0.9936484243449499,0.0026123809499925543,-0.002719646862997851,0.0019209438229762857,0,70,255.0,255.0,255.0
485,24.25,11.3167,1.4905,-16.5601,0.07747754258226693,-0.1413893571919712,-0.9935079552003383,0.0032004413878358173,-0.004526830853844199,0.0036978219614915986,0,70,255.0,255.0,255.0
486,24.3,11.320577322485338,1.4834255840239314,-16.609771084027656,0.07760425292096876,-0.14157307340881917,-0.9933415768076457,0.0018679721602376219,-0.002821817820073467,0.002957313746212609,0,70,255.0,255.0,255.0
487,24.35,11.324459314901075,1.4763441135033126,-16.659434774770943,0.0776643397982907,-0.14167153897397858,-0.993212223825717,0.0005355029326394264,-0.0011168047863027346,0.0022168055309336196,0,70,255.0,255.0,255.0
488,24.400000000000002,11.328342646074145,1.469259850970728,-16.709092923500407,0.07765780321423271,-0.14168475388744944,-0.9931198962545523,-0.0007969662949587689,0.0005882082474679981,0.0014762973156546306,0,70,255.0,255.0,255.0
489,24.450000000000003,11.332223984831474,1.4621770589587622,-16.75874738148658,0.07758464316879482,-0.14161271814923176,-0.9930645940941516,-0.0021294355225569645,0.00229322128123873,0.0007357891003756411,0,70,255.0,255.0,255.0
490,24.5,11.3361,1.4551,-16.8084,0.07744485966197702,-0.14145543175932557,-0.9930463173445148,-0.003461904750155065,0.0039982343150102295,-4.7191149050718195e-06,0,70,255.0,255.0,255.0
491,24.55,11.339968291359027,1.4480317375098672,-16.858051827951652,0.07729430983628406,-0.1412848417471812,-0.993016924432195,-0.002560088277562676,0.0028253661707647038,0.001180435607696512,0,70,255.0,255.0,255.0
492,24.6,11.343830182497356,1.4409705384351614,-16.907700704814285,0.07718885083422075,-0.1411728951422491,-0.9929282737837452,-0.001658271804970287,0.001652498026519178,0.0023655903302980956,0,70,255.0,255.0,255.0
493,24.650000000000002,11.347687927956175,1.4339134706055219,-16.957343667701092,0.07712848265578703,-0.14111959194452928,-0.9927803653991651,-0.0007564553323778983,0.0004796298822736522,0.003550745052899679,0,70,255.0,255.0,255.0
494,24.700000000000003,11.35154378227666,1.426857601850588,-17.006977753725266,0.07711320530098296,-0.14112493215402175,-0.9925731992784551,0.00014536114021449073,-0.0006932382619718735,0.004735899775501263,0,70,255.0,255.0,255.0
495,24.75,11.3554,1.4198,-17.0566,0.0771430187698085,-0.14118891577072645,-0.9923067754216149,0.0010471776128067045,-0.001866106406216872,0.005921054498105427,0,70,255.0,255.0,255.0
496,24.8,11.359258312078563,1.4127386659365986,-17.10620800416574,0.0771865077338803,-0.1412555596024568,-0.992014725463588,0.0006923809500650029,-0.0007996468629975898,0.005760943822968121,0,70,255.0,255.0,255.0
497,24.85,11.363118355109501,1.40567533275604,-17.155801605971924,0.077212256864815,-0.1412688804570262,-0.991730681039318,0.00033758428732330137,0.0002668126802216923,0.005600833147830815,0,70,255.0,255.0,255.0
498,24.900000000000002,11.36697924210116,1.3986126666071819,-17.205381205695232,0.07722026616261263,-0.14122887833443465,-0.991454642148805,-1.72123754184001e-05,0.0013332722234409744,0.005440722472693509,0,70,255.0,255.0,255.0
499,24.950000000000003,11.370840086061879,1.3915533336388826,-17.254947203612367,0.07721053562727317,-0.1411355532346821,-0.9911866087920488,-0.0003720090381601018,0.0023997317666602565,0.005280611797556203,0,70,255.0,255.0,255.0
500,25.0,11.3747,1.3845,-17.3045,0.07718306525879662,-0.14098890515776866,-0.9909265809690494,-0.0007268057009020001,0.003466191309879685,0.005120501122420684,0,70,255.0,255.0,255.0
501,25.05,11.378558460326722,1.3774543987437367,-17.354039355385392,0.07715965922820918,-0.1408449198429907,-0.9906361737134782,-0.00020943552259552838,0.002293221281239105,0.006495789100429958,0,70,255.0,255.0,255.0
502,25.1,11.382416397064636,1.370414530540677,-17.403562471298034,0.07716212170653707,-0.14075958302964475,-0.9902770020590064,0.0003079346557109434,0.0011202512525985255,0.007871077078439231,0,70,255.0,255.0,255.0
503,25.150000000000002,11.386275103639191,1.3633774629657482,-17.45306590951798,0.07719045269378028,-0.14073289471773084,-0.9898490660056343,0.000825304834017415,-5.271877604205461e-05,0.009246365056448505,0,70,255.0,255.0,255.0
504,25.200000000000003,11.390135873475831,1.3563402635938797,-17.50254623182528,0.0772446521899388,-0.14076485490724894,-0.9893523655533615,0.001342675012323887,-0.0012256888046826338,0.010621653034457779,0,70,255.0,255.0,255.0
505,25.25,11.394,1.3493,-17.552,0.07732472019501264,-0.1408554635981991,-0.9887869007021883,0.0018600451906299886,-0.0023986588333226866,0.011996941012471396,0,70,255.0,255.0,255.0
506,25.3,11.397867846614552,1.3422549390884528,-17.601424974292694,0.07737485535328291,-0.14093276102558144,-0.9882245796824893,0.00014536114018030909,-0.0006932382619714717,0.010495899775490238,0,70,255.0,255.0,255.0
507,25.35,11.401736056631954,1.335208145081251,-17.650823708835947,0.07733925630903069,-0.14092478742439624,-0.9877373107246392,-0.0015693229102693705,0.001012182309379743,0.008994858538509079,0,70,255.0,255.0,255.0
508,25.400000000000002,11.40560034334208,1.3281638815298227,-17.700199956232854,0.07721792306225597,-0.14083154279464347,-0.9873250938286383,-0.0032840069607190502,0.0027176028807309573,0.007493817301527919,0,70,255.0,255.0,255.0
509,25.450000000000003,11.409456420034804,1.321126411985596,-17.74955746908651,0.07701085561295877,-0.14065302713632313,-0.9869879289944865,-0.0049986910111687296,0.004423023452082173,0.00599277606454676,0,70,255.0,255.0,255.0
510,25.5,11.4133,1.3141,-17.7989,0.07671805396113912,-0.14038924044943527,-0.9867258162221836,-0.006713375061617954,0.00612844402343371,0.004491734827571925,0,70,255.0,255.0,255.0
511,25.55,11.417128553215072,1.3070874449024503,-17.848229547443836,0.07644491935864575,-0.1401280360546829,-0.9864335075565571,-0.004212009038116946,0.004319731766660003,0.00720061179748534,0,70,255.0,255.0,255.0
512,25.6,11.420946576407552,1.3000856891343175,-17.897541093358182,0.07629685305732742,-0.13995726727276925,-0.986005755042435,-0.0017106430146159382,0.002511019509886296,0.009909488767398755,0,70,255.0,255.0,255.0
513,25.650000000000002,11.424760322992492,1.2930902109149593,-17.946827865550606,0.07627385505718415,-0.13987693410369428,-0.9854425586798172,0.0007907230088850708,0.0007023072531125892,0.012618365737312169,0,70,255.0,255.0,255.0
514,25.700000000000003,11.428576046384956,1.2860964884637338,-17.996083091828687,0.07637592535821593,-0.139887036547458,-0.9847439184687038,0.003292089032386078,-0.0011064050036611178,0.015327242707225585,0,70,255.0,255.0,255.0
515,25.75,11.4324,1.2791,-18.0453,0.07660306396042274,-0.13998757460406042,-0.9839098344090949,0.005793455055887131,-0.0029151172604349185,0.01803611967714147,0,70,255.0,255.0,255.0
516,25.8,11.436236340525156,1.2720976813017444,-18.09447363593196,0.0768294672121279,-0.14009109475568834,-0.9830493900913033,0.003262675012319169,-0.0012256888046824103,0.01638165303451513,0,70,255.0,255.0,255.0
517,25.85,11.440080837737842,1.2650922983814774,-18.143606317731336,0.07692933146165466,-0.14011014348452866,-0.9822716691056433,0.0007318949687512072,0.0004637396510700979,0.014727186391888789,0,70,255.0,255.0,255.0
518,25.900000000000002,11.443927164687953,1.258088074810338,-18.19270218156473,0.07690265670900302,-0.14004472079058133,-0.9815766714521145,-0.0017988850748167553,0.002153168106822606,0.013072719749262447,0,70,255.0,255.0,255.0
519,25.950000000000003,11.447768994425372,1.2510892341594655,-18.241765363598752,0.07674944295417298,-0.1398948266738464,-0.980964397130717,-0.004329665118384717,0.0038425965625751143,0.011418253106636106,0,70,255.0,255.0,255.0
520,26.0,11.4516,1.2441,-18.2908,0.07646969019716458,-0.13966046113432382,-0.9804348461414509,-0.006860445161952389,0.005532025018327724,0.009763786464013435,0,70,255.0,255.0,255.0
521,26.05,11.455415684684302,1.2371234298905707,-18.33980870882833,0.07617321179283655,-0.13941158492256345,-0.9798969320782354,-0.004998691011168473,0.004423023452086501,0.01175277606460557,0,70,255.0,255.0,255.0
522,26.1,11.459218872641076,1.2301579173397716,-18.38878803571649,0.07596982109604773,-0.13921815878911517,-0.9792595685349904,-0.0031369368603845565,0.0033140218858452772,0.013741765665197704,0,70,255.0,255.0,255.0
523,26.150000000000002,11.463014218255697,1.2232006898436871,-18.437733008190495,0.0758595181067981,-0.13908018273397893,-0.9785227555117156,-0.00127518270960064,0.0022050203196040535,0.015730755265789837,0,70,255.0,255.0,255.0
524,26.200000000000003,11.466806375913547,1.2162489748984018,-18.486638653776332,0.07584230282508767,-0.13899765675715473,-0.9776864930084113,0.0005865714411832758,0.0010960187533628303,0.017719744866381972,0,70,255.0,255.0,255.0
525,26.25,11.4706,1.2093,-18.5355,0.07591817525091642,-0.13897058085864264,-0.9767507810250776,0.002448325591967504,-1.298281287875902e-05,0.019708734466974853,0,70,255.0,255.0,255.0
526,26.3,11.474398520737635,1.2023517991359722,-18.584313128754737,0.07601368561652537,-0.13895056555405624,-0.9757788815957246,0.00137208903239064,0.0008135949963340778,0.019167242707148972,0,70,255.0,255.0,255.0
527,26.35,11.478200471697853,1.1954056322594353,-18.633078339402708,0.07605538415415548,-0.13888922135900922,-0.9748340567543626,0.00029585247281377607,0.0016401728055469146,0.01862575094732309,0,70,255.0,255.0,255.0
528,26.400000000000002,11.482003162289251,1.1884635658149123,-18.681796985673305,0.07604327086380674,-0.13878654827350156,-0.9739163065009921,-0.0007803840867630879,0.0024667506147597515,0.018084259187497207,0,70,255.0,255.0,255.0
529,26.450000000000003,11.485803901920432,1.1815276662469258,-18.73047042129594,0.07597734574547917,-0.13864254629753325,-0.973025630835613,-0.0018566206463399518,0.0032933284239725883,0.017542767427671326,0,70,255.0,255.0,255.0
530,26.5,11.4896,1.1746,-18.7791,0.07585760879917278,-0.1384572154311043,-0.9721620297582251,-0.002932857205916184,0.004119906233185366,0.01700127566784726,0,70,255.0,255.0,255.0
531,26.55,11.493389432365154,1.1676821735655403,-18.827686776152724,0.07572404574106516,-0.1382581528612104,-0.9713075415388632,-0.002409665118388863,0.0038425965625710616,0.017178253106624734,0,70,255.0,255.0,255.0
532,26.6,11.497172840567513,1.1607739536224866,-18.87623060667269,0.07561664228733389,-0.1380729557748472,-0.9704442044475626,-0.0018864730308615425,0.003565286891956757,0.017355230545402205,0,70,255.0,255.0,255.0
533,26.650000000000002,11.500951532587294,1.153874646896663,-18.92473104911629,0.075535398437979,-0.13790162417201474,-0.9695720184843231,-0.0013632809433342219,0.0032879772213424523,0.01753220798417968,0,70,255.0,255.0,255.0
534,26.700000000000003,11.504726816404716,1.146983560113893,-18.973187661039923,0.07548031419300046,-0.13774415805271295,-0.9686909836491446,-0.0008400888558069012,0.003010667550728148,0.01770918542295715,0,70,255.0,255.0,255.0
535,26.75,11.5085,1.1401,-19.0216,0.0754513895523983,-0.13760055741694188,-0.9678010999420273,-0.0003168967682793955,0.0027333578801145286,0.01788616286173994,0,70,255.0,255.0,255.0
536,26.8,11.512271749801748,1.1332235066018668,-19.069966966634357,0.07541013141922101,-0.13745682300110484,-0.9668629522488227,-0.0013334285588122142,0.003016018753366904,0.01963974486644722,0,70,255.0,255.0,255.0
537,26.85,11.516040166032097,1.126354553250617,-19.118284833906543,0.07531804669651708,-0.1372989555416052,-0.9658371254553826,-0.002349960349345033,0.00329867962661928,0.0213933268711545,0,70,255.0,255.0,255.0
538,26.900000000000002,11.519802707361572,1.1194938465984337,-19.166549217861558,0.07517513538428651,-0.1371269550384429,-0.9647236195617072,-0.0033664921398778515,0.003581340499871656,0.02314690887586178,0,70,255.0,255.0,255.0
539,26.950000000000003,11.523556832460699,1.1126420932975,-19.214755734544383,0.07498139748252929,-0.13694082149161801,-0.9635224345677964,-0.00438302393041067,0.0038640013731240314,0.02490049088056906,0,70,255.0,255.0,255.0
540,27.0,11.5273,1.1058,-19.2629,0.07473683299124545,-0.13674055490113052,-0.9622335704736502,-0.0053995557209436384,0.004146662246377275,0.026654072885280655,0,70,255.0,255.0,255.0
541,27.05,11.53103076842786,1.098967800026992,-19.310978957309846,0.07450742858206262,-0.13655455513437154,-0.9609366494658285,-0.003776620646369343,0.003293328423981278,0.025222767427586116,0,70,255.0,255.0,255.0
542,27.1,11.534752095304102,1.0921438333750437,-19.358994857701134,0.07435917092660851,-0.13641122205873238,-0.9597112937308915,-0.002153685571795048,0.0024399946015852807,0.023791461969891573,0,70,255.0,255.0,255.0
543,27.150000000000002,11.538468037966416,1.0853259667096,-19.40695127943749,0.07429206002488312,-0.13631055567421302,-0.9585575032688394,-0.0005307504972207533,0.0015866607791892831,0.022360156512197034,0,70,255.0,255.0,255.0
544,27.200000000000003,11.542182653752487,1.0785120666961037,-19.454851800782563,0.07430609587688643,-0.13625255598081346,-0.9574752780796718,0.001092184577353542,0.000733326956793286,0.02092885105450249,0,70,255.0,255.0,255.0
545,27.25,11.5459,1.0717,-19.5027,0.07440127848261845,-0.1362372229785337,-0.956464618163389,0.002715119651927389,-0.00012000686560220686,0.019497545596807164,0,70,255.0,255.0,255.0
546,27.3,11.549622776486817,1.0648884932901648,-19.55049800412625,0.07449615425252219,-0.13621295646140574,-0.9554384498878934,0.0010799111442227438,0.0010906675507202652,0.021549185423016787,0,70,255.0,255.0,255.0
547,27.35,11.553348252751496,1.0580797132492064,-19.598242135288935,0.07450926959704073,-0.13612815622346164,-0.9543096996210874,-0.0005552973634819014,0.0023013419670427373,0.023600825249226413,0,70,255.0,255.0,255.0
548,27.400000000000002,11.557072340772766,1.0512766865631653,-19.645927264388504,0.074440624516174,-0.13598282226470146,-0.9530783673629708,-0.0021905058711865462,0.003512016383365209,0.025652465075436035,0,70,255.0,255.0,255.0
549,27.450000000000003,11.560790952529356,1.0444824399180828,-19.69354826232538,0.07429021900992205,-0.13577695458512515,-0.9517444531135436,-0.003825714378891192,0.004722690799687681,0.02770410490164566,0,70,255.0,255.0,255.0
550,27.5,11.5645,1.0377,-19.7411,0.0740580530782849,-0.1355105531847327,-0.9503079568728061,-0.005460922886595498,0.005933365216010067,0.029755744727856026,0,70,255.0,255.0,255.0
551,27.55,11.568196525624872,1.0309318268123489,-19.788578626185164,0.07381195440785975,-0.13521761902000445,-0.9488455509825939,-0.0043830239304105305,0.005784001373119805,0.028740490880630517,0,70,255.0,255.0,255.0
552,27.6,11.571882093689917,1.0241781136281303,-19.835985401143134,0.07361975068524385,-0.13493215304742073,-0.947433907784743,-0.003305124974225562,0.005634637530229543,0.027725237033405008,0,70,255.0,255.0,255.0
553,27.650000000000002,11.575559398942527,1.0174384870377375,-19.883322863008512,0.07348144191043719,-0.1346541552669815,-0.9460730272792534,-0.002227226018040594,0.005485273687339281,0.0267099831861795,0,70,255.0,255.0,255.0
554,27.700000000000003,11.57923113613009,1.010712573631563,-19.930593549915933,0.07339702808343979,-0.13438362567868678,-0.9447629094661251,-0.001149327061855626,0.005335909844449018,0.02569472933895399,0,70,255.0,255.0,255.0
555,27.75,11.5829,1.004,-19.9778,0.07336650920425163,-0.13412056428253658,-0.9435035543453579,-7.142810567073443e-05,0.005186546001559433,0.02467947549173477,0,70,255.0,255.0,255.0
556,27.8,11.5865679210137,0.9973001994604397,-20.024943491133083,0.07334402811604294,-0.1338765674585776,-0.9422193461817057,-0.0008278154226764364,0.004573326956799608,0.026688851054354708,0,70,255.0,255.0,255.0
557,27.85,11.59023377248884,0.9906118322382714,-20.072020260138533,0.07328372766198397,-0.1336632315868566,-0.9408346692399223,-0.0015842027396821383,0.003960107912039783,0.028698226616974645,0,70,255.0,255.0,255.0
558,27.900000000000002,11.593895663457133,0.9839333652858833,-20.119025283577443,0.07318560784207473,-0.1334805566673736,-0.9393495235200082,-0.0023405900566878402,0.0033468888672799585,0.030707602179594583,0,70,255.0,255.0,255.0
559,27.950000000000003,11.597551702950286,0.9772632655556633,-20.165953538010903,0.0730496686563152,-0.13332854270012862,-0.9377639090219629,-0.003096977373693542,0.0027336698225201334,0.03271697774221452,0,70,255.0,255.0,255.0
560,28.0,11.6012,0.9706,-20.2128,0.07287591010470539,-0.13320718968512163,-0.9360778257457869,-0.0038533646906991903,0.002120450777759686,0.03472635330483165,0,70,255.0,255.0,255.0
561,28.05,11.604838990320337,0.9639425753458918,-20.259561009282493,0.07268393312796648,-0.13308411114568547,-0.9343730642906218,-0.0038257143788569033,0.002802690799687567,0.033464104901767634,0,70,255.0,255.0,255.0
562,28.1,11.608468416354723,0.9572921574187829,-20.306238358302732,0.07249333866681969,-0.13292692060515288,-0.9327314152556101,-0.0037980640670146164,0.003484930821615448,0.03220185649870363,0,70,255.0,255.0,255.0
563,28.150000000000002,11.612088347228944,0.950650451818728,-20.352835202681725,0.07230412672126502,-0.1327356180635239,-0.9311528786407516,-0.0037704137551723294,0.0041671708435433285,0.030939608095639615,0,70,255.0,255.0,255.0
564,28.200000000000003,11.615698852068777,0.9440191641457819,-20.39935469804048,0.07211629729130245,-0.13251020352079854,-0.9296374544460462,-0.0037427634433300425,0.00484941086547121,0.029677359692575605,0,70,255.0,255.0,255.0
565,28.25,11.6193,0.9374,-20.4458,0.07192985037693203,-0.1322506769769768,-0.928185142671494,-0.003715113131487646,0.005531650887398598,0.02841511128950991,0,70,255.0,255.0,255.0
