idx,t,px,py,pz,vx,vy,vz,ax,ay,az,yaw,mode,ledr,ledg,ledb
0,0.0,10.5,0.0,0.0,-2.702182895289211e-19,-1.1111703098738782e-90,0.019030436776039605,3.242619474347053e-18,1.3334043718486539e-89,-0.5155652413124753,0,70,255.0,255.0,255.0
1,0.05,10.5,-4.000213115545962e-92,0.0003090957239374257,-1.2430041318330368e-19,-5.111383425419839e-91,-0.006625999083021784,2.5940955794776424e-18,1.0667234974789232e-89,-0.5106921930499801,0,70,255.0,255.0,255.0
2,0.1,10.5,-5.333617487394616e-92,-0.0006585390347500995,-1.0808731581156823e-20,-4.4446812394955044e-92,-0.03203878252895842,1.9455716846082317e-18,8.000426231091924e-90,-0.5058191447874851,0,70,255.0,255.0,255.0
3,0.15000000000000002,10.5,-4.666915301470285e-92,-0.0028907216554063375,7.025675527751949e-20,2.889042805672084e-91,-0.0572079135617703,1.297047789738821e-18,5.333617487394615e-90,-0.50094609652499,0,70,255.0,255.0,255.0
4,0.2,10.5,-2.6668087436973065e-92,-0.006375269517375051,1.188960473927253e-19,4.8891493634450647e-91,-0.08213339218145743,6.485238948694103e-19,2.6668087436973075e-90,-0.49607304826249493,0,70,255.0,255.0,255.0
5,0.25,10.5,0.0,-0.0111,1.3510914476446055e-19,5.555851549369391e-91,-0.1068152183880198,0.0,0.0,-0.49119999999999986,0,70,255.0,255.0,255.0
6,0.30000000000000004,10.5,2.6668087436973095e-92,-0.017052730482624956,1.1889604739272524e-19,4.8891493634450625e-91,-0.13125339218145746,-6.485238948694112e-19,-2.66680874369731e-90,-0.48632695173750495,0,70,255.0,255.0,255.0
7,0.35000000000000003,10.5,4.666915301470289e-92,-0.02422127834459367,7.025675527751944e-20,2.889042805672081e-91,-0.15544791356177032,-1.2970477897388216e-18,-5.3336174873946175e-90,-0.4814539034750101,0,70,255.0,255.0,255.0
8,0.4,10.5,5.333617487394615e-92,-0.032593460965249905,-1.0808731581156895e-20,-4.444681239495537e-92,-0.17939878252895844,-1.945571684608232e-18,-8.000426231091924e-90,-0.4765808552125152,0,70,255.0,255.0,255.0
9,0.45,10.5,4.000213115545961e-92,-0.04215709572393743,-1.2430041318330377e-19,-5.111383425419842e-91,-0.20310599908302182,-2.5940955794776428e-18,-1.0667234974789232e-89,-0.47170780695002035,0,70,255.0,255.0,255.0
10,0.5,10.5,0.0,-0.0529,-2.702182895289211e-19,-1.1111703098738782e-90,-0.22656956322396044,-3.2426194743470527e-18,-1.3334043718486537e-89,-0.4668347586875261,0,70,255.0,255.0,255.0
11,0.55,10.5,-6.667021859243274e-92,-0.06480937379343764,-3.512837763875974e-19,-1.4445214028360416e-90,-0.24975243219114862,3.0814879110195774e-33,1.220842245327137e-104,-0.46048000000000017,0,70,255.0,255.0,255.0
12,0.6000000000000001,10.5,-1.333404371848655e-91,-0.07786994758687528,-2.7021828952892076e-19,-1.1111703098738769e-90,-0.27261756322396047,3.242619474347059e-18,1.3334043718486562e-89,-0.4541252413124742,0,70,255.0,255.0,255.0
13,0.65,10.5,-1.6667554648108174e-91,-0.09206583448359407,-2.7021828952891984e-20,-1.1111703098738701e-91,-0.29516495632239603,6.4852389486941086e-18,2.6668087436973078e-89,-0.44777048262494834,0,70,255.0,255.0,255.0
14,0.7000000000000001,10.5,-1.3334043718486524e-91,-0.10738114758687527,3.783056053404903e-19,1.555638433823433e-90,-0.3173946114864553,9.727858423041164e-18,4.000213115545963e-89,-0.4414157239374224,0,70,255.0,255.0,255.0
15,0.75,10.5,0.0,-0.1238,9.457640133512238e-19,3.8890960845585737e-90,-0.3393065287161383,1.2970477897388211e-17,5.3336174873946156e-89,-0.4350609652498987,0,70,255.0,255.0,255.0
16,0.8,10.5,2.4001278693275788e-91,-0.14130657434362454,1.2862390581576643e-18,5.28917067499966e-90,-0.3609048790539482,6.485238948693991e-19,2.6668087436972604e-90,-0.42887304826249545,0,70,255.0,255.0,255.0
17,0.8500000000000001,10.5,4.8669259572475904e-91,-0.15988533130790536,1.0106164028381638e-18,4.155776958928301e-90,-0.3821938335423879,-1.1673430107649413e-17,-4.8002557386551635e-89,-0.42268513127509216,0,70,255.0,255.0,255.0
18,0.9,10.5,6.133660110503808e-91,-0.17952080110037383,1.18896047392725e-19,4.889149363445032e-91,-0.40317339218145737,-2.3995384110168197e-17,-9.867192351680043e-89,-0.41649721428768893,0,70,255.0,255.0,255.0
19,0.9500000000000001,10.5,4.933596175840013e-91,-0.20019751392856158,-1.3889220081786568e-18,-5.711415392751744e-90,-0.4238435549711568,-3.6317338112687005e-17,-1.4934128964704932e-88,-0.4103092973002857,0,70,255.0,255.0,255.0
20,1.0,10.5,0.0,-0.2219,-3.512837763875974e-18,-1.4445214028360418e-89,-0.444204321911486,-4.8639292115205796e-17,-2.000106557772981e-88,-0.4041213803128847,0,70,255.0,255.0,255.0
21,1.05,10.5,-8.93380929138599e-91,-0.24461232883206424,-4.793672456243061e-18,-1.9712161297162602e-89,-0.4642280515930587,-2.594095579477609e-18,-1.066723497478907e-89,-0.3968278069500214,0,70,255.0,255.0,255.0
22,1.1,10.5,-1.8134299457141707e-90,-0.2683167271815035,-3.772247321823736e-18,-1.5511937525839328e-89,-0.4838871026064882,4.345110095625058e-17,1.7867618582771995e-88,-0.38953423358715816,0,70,255.0,255.0,255.0
23,1.1500000000000001,10.5,-2.2867884977204418e-90,-0.29299496111491063,-4.485623606179969e-19,-1.8445427143905848e-90,-0.5031814749517745,8.949629749197876e-17,3.6801960663022903e-88,-0.38224066022429487,0,70,255.0,255.0,255.0
24,1.2000000000000002,10.5,-1.8400980331511399e-90,-0.3186287966988786,5.177382427374149e-18,2.1290023137183606e-89,-0.5221111686289177,1.3554149402770695e-16,5.57363027432738e-88,-0.3749470868614316,0,70,255.0,255.0,255.0
25,1.25,10.5,0.0,-0.3452,1.3105587042152672e-17,5.38917600288831e-89,-0.5406761836379177,1.81586690563435e-16,7.467064482352462e-88,-0.36765351349857234,0,70,255.0,255.0,255.0
26,1.3,10.5,3.3335109296216382e-90,-0.37269131032811864,1.7888450766814577e-17,7.355947451365074e-89,-0.5589349145738176,9.727858423041021e-18,4.00021311554589e-89,-0.3626957239374235,0,70,255.0,255.0,255.0
27,1.35,10.5,6.767027187131925e-90,-0.40108935996608086,1.4078372884456776e-17,5.7891973144429e-89,-0.5769457560316601,-1.6213097371735295e-16,-6.667021859243284e-88,-0.35773793437627466,0,70,255.0,255.0,255.0
28,1.4000000000000001,10.5,8.533787979831388e-90,-0.4303817544399837,1.6753533950792655e-18,6.889255921217857e-90,-0.5947087080114452,-3.3398980585774697e-16,-1.3734065030041156e-87,-0.3527801448151258,0,70,255.0,255.0,255.0
29,1.4500000000000002,10.5,6.8670325150205555e-90,-0.46055609927592445,-1.9320607701317944e-17,-7.944867715598267e-89,-0.6122237705131727,-5.058486379981409e-16,-2.080110820083903e-87,-0.347822355253977,0,70,255.0,255.0,255.0
30,1.5,10.5,0.0,-0.4916,-4.890951040473472e-17,-2.0112182608717198e-88,-0.6294909435368428,-6.777074701385341e-16,-2.786815137163687e-87,-0.34286456569283175,0,70,255.0,255.0,255.0
31,1.55,10.5,-1.2440662789347954e-89,-0.5235000298554613,-6.676013061101525e-17,-2.745257367574404e-88,-0.6464482901116708,-3.6317338112686426e-17,-1.4934128964704697e-88,-0.33542929730028775,0,70,255.0,255.0,255.0
32,1.6,10.5,-2.525467880281353e-89,-0.5562386329541733,-5.2541244216003356e-17,-2.1605595505187672e-88,-0.6630338732668716,6.050727939131613e-16,2.488132557869593e-87,-0.3279940289077437,0,70,255.0,255.0,255.0
33,1.6500000000000001,10.5,-3.1848363421605106e-89,-0.5897972211251548,-6.252851219699071e-18,-2.5712480970480815e-89,-0.6792476930024453,1.2464629259390092e-15,5.125606405386233e-87,-0.3205587605151997,0,70,255.0,255.0,255.0
34,1.7000000000000002,10.5,-2.562803202693109e-89,-0.624157206197424,7.210504837789762e-17,2.965046854867471e-88,-0.6950897493183915,1.8878530579648567e-15,7.763080252902873e-87,-0.3131234921226557,0,70,255.0,255.0,255.0
35,1.75,10.5,0.0,-0.6593,1.8253245457678621e-16,7.505955443198049e-88,-0.7105600422147107,2.5292431899907008e-15,1.0400554100419503e-86,-0.30568822373011173,0,70,255.0,255.0,255.0
36,1.8,10.5,4.6429140227770185e-89,-0.6952077702500362,2.491520716772464e-16,1.0245434725161109e-87,-0.7257039249794993,1.3554149402770444e-16,5.573630274327299e-88,-0.30006708686143246,0,70,255.0,255.0,255.0
37,1.85,10.5,9.425168802412218e-89,-0.7318657082172262,1.9608660397955667e-16,8.063318470630779e-88,-0.740566750900854,-2.258160201935292e-15,-9.285828045554043e-87,-0.29444594999275325,0,70,255.0,255.0,255.0
38,1.9000000000000001,10.5,1.1885966570658903e-88,-0.7692597610593978,2.3336051483716926e-17,9.59606679607054e-89,-0.7551485199787746,-4.651861897898289e-15,-1.912901911854082e-86,-0.288824813124074,0,70,255.0,255.0,255.0
39,1.9500000000000002,10.5,9.564509559270377e-89,-0.8073758759343796,-2.690995858102726e-16,-1.1065700647910056e-87,-0.7694492322132613,-7.045563593861284e-15,-2.897221019152759e-86,-0.2832036762553947,0,70,255.0,255.0,255.0
40,2.0,10.5,0.0,-0.8462,-6.812203079024101e-16,-2.8012603511920476e-87,-0.7834688876043141,-9.43926528982427e-15,-3.881540126451433e-86,-0.2775825393867155,0,70,255.0,255.0,255.0
41,2.0500000000000003,10.5,-1.7327589812173363e-88,-0.885717689144394,-9.298481560979704e-16,-3.823648153307004e-87,-0.7971840099703315,-5.058486379980923e-16,-2.080110820083709e-87,-0.2710223552539794,0,70,255.0,255.0,255.0
42,2.1,10.5,-3.517520732936753e-88,-0.9259129341769227,-7.31805171702223e-16,-3.009271433200435e-87,-0.8105711231297121,8.427568013828007e-15,3.465517962434658e-86,-0.2644621711212434,0,70,255.0,255.0,255.0
43,2.15,10.5,-4.43590299404751e-88,-0.9667693346372542,-8.709135471517246e-17,-3.5813019087235743e-88,-0.8236302270824558,1.7360984665654108e-14,7.139047006877688e-86,-0.2579019869885073,0,70,255.0,255.0,255.0
44,2.2,10.5,-3.56952350343884e-88,-1.0082704900650574,1.0042932948631932e-15,4.129775573677274e-87,-0.8363613218285628,2.6294401317480284e-14,1.081257605132075e-85,-0.25134180285577123,0,70,255.0,255.0,255.0
45,2.25,10.5,0.0,-1.0504,2.542348777032854e-15,1.0454445860448387e-86,-0.8487644073680329,3.522781796930639e-14,1.448610509576378e-85,-0.2447816187230405,0,70,255.0,255.0,255.0
46,2.3000000000000003,10.5,6.466744522591641e-88,-1.093141473172389,3.470240552714636e-15,1.4270049140711908e-86,-0.8608400351391755,1.8878530579646792e-15,7.763080252902132e-87,-0.2382434921226586,0,70,255.0,255.0,255.0
47,2.35,10.5,1.312756605150579e-87,-1.136478555075084,2.7311340828293375e-15,1.1230753885738662e-86,-0.8725887565802989,-3.145211185337674e-14,-1.2933489045183235e-85,-0.2317053655222768,0,70,255.0,255.0,255.0
48,2.4000000000000004,10.5,1.6555015319124157e-87,-1.1803949003915852,3.25029367376945e-16,1.336560095528601e-87,-0.8840105716914032,-6.479207676471845e-14,-2.66432861156568e-85,-0.2251672389218949,0,70,255.0,255.0,255.0
49,2.45,10.499999999999998,1.3321643057828326e-87,-1.2248741638053908,-3.7480735936424985e-15,-1.5412532229918105e-86,-0.8951054804724883,-9.813204167605987e-14,-4.035308318613025e-85,-0.2186291123215131,0,70,255.0,255.0,255.0
50,2.5,10.5,0.0,-1.2699,-9.488174800229006e-15,-3.90165230906015e-86,-0.9058734829235545,-1.3147200658740128e-13,-5.406288025660369e-85,-0.2120909857211375,0,70,255.0,255.0,255.0
51,2.5500000000000003,10.5,-2.413421910914923e-87,-1.3154564181660522,-1.2951114054760571e-14,-5.325654840954062e-86,-0.9163358494729678,-7.045563593860626e-15,-2.8972210191524796e-86,-0.20640367625539127,0,70,255.0,255.0,255.0
52,2.6,10.499999999999998,-4.899274347308641e-87,-1.3615288455227421,-1.0192731159615122e-14,-4.19137441097542e-86,-0.9265138505490936,1.1738087939967891e-13,4.826843821829827e-85,-0.2007163667896451,0,70,255.0,255.0,255.0
53,2.6500000000000004,10.499999999999998,-6.178415828244912e-87,-1.4081030637964067,-1.2130261147926154e-15,-4.988110191242072e-87,-0.9364074861519323,2.418073223932196e-13,9.943409745574948e-85,-0.1950290573238989,0,70,255.0,255.0,255.0
54,2.7,10.5,-4.971704872787448e-87,-1.4551648547133804,1.3988001079706802e-14,5.752035334599514e-86,-0.9460167562814836,3.662337653867591e-13,1.5059975669320023e-84,-0.18934174785815275,0,70,255.0,255.0,255.0
55,2.75,10.5,0.0,-1.5027,3.541035042388317e-14,1.456116465019576e-85,-0.9553416609377475,4.906602083802986e-13,2.0176541593065097e-84,-0.18365443839240836,0,70,255.0,255.0,255.0
56,2.8000000000000003,10.500000000000002,9.00701319140053e-87,-1.5506936541634044,4.8334215666327645e-14,1.9875614449745054e-85,-0.9643445669689521,2.6294401317477782e-14,1.08125760513197e-85,-0.17646180285577465,0,70,255.0,255.0,255.0
57,2.85,10.500000000000004,1.828434078408398e-86,-1.599128462833948,3.8039790555631163e-14,1.5642422255327813e-85,-0.972987841223325,-4.38071405745339e-13,-1.8014026382800988e-84,-0.169269167319141,0,70,255.0,255.0,255.0
58,2.9000000000000004,10.500000000000005,2.3058161781067236e-86,-1.6479864444227899,4.5270750917935055e-15,1.861588066943968e-86,-0.9812714837008663,-9.024372128081599e-13,-3.710931037073412e-84,-0.16207653178250728,0,70,255.0,255.0,255.0
59,2.95,10.500000000000005,1.855465518536696e-86,-1.6972496173410876,-5.220393072518469e-14,-2.1466888115406252e-85,-0.9891954944015757,-1.3668030198709767e-12,-5.620459435866707e-84,-0.15488389624587365,0,70,255.0,255.0,255.0
60,3.0,10.5,0.0,-1.7469,-1.3215322689530367e-13,-5.434300629172289e-85,-0.9967598733254536,-1.8311688269337935e-12,-7.529987834660003e-84,-0.14769126070924177,0,70,255.0,255.0,255.0
61,3.0500000000000003,10.499999999999991,-3.361463085468719e-86,-1.7969201651803313,-1.8038574861055005e-13,-7.417680295802617e-85,-1.0039978826512228,-9.813204167605048e-14,-4.035308318612643e-85,-0.14182911232152065,0,70,255.0,255.0,255.0
62,3.1,10.499999999999984,-6.823808878902728e-86,-1.8472949031414658,-1.4196643106290952e-13,-5.837831461033586e-85,-1.0109427845576058,1.6349047435816772e-12,6.72292617093741e-84,-0.1359669639337996,0,70,255.0,255.0,255.0
63,3.1500000000000004,10.499999999999979,-8.605423129602403e-86,-1.8980095585124355,-1.6895274252381407e-14,-6.947541248651699e-86,-1.0175945790446026,3.3679415288394198e-12,1.3849383173736152e-83,-0.1301048155460785,0,70,255.0,255.0,255.0
64,3.2,10.499999999999982,-6.924691586868036e-86,-1.9490494759222696,1.94827721821032e-13,8.011551712702544e-85,-1.0239532661122137,5.100978314097148e-12,2.0975840176534825e-83,-0.12424266715835744,0,70,255.0,255.0,255.0
65,3.25,10.5,0.0,-2.0004,4.932025571573315e-13,2.0281086051669583e-84,-1.0300188457604385,6.834015099354875e-12,2.81022971793335e-83,-0.11838051877063727,0,70,255.0,255.0,255.0
66,3.3000000000000003,10.50000000000003,1.2545151022734823e-85,-2.052046485115272,6.732087787758724e-13,2.7683159738235965e-84,-1.0357919024261582,3.662337653867241e-13,1.5059975669318622e-84,-0.11254174785814858,0,70,255.0,255.0,255.0
67,3.35,10.500000000000062,2.546680143720252e-85,-2.1039743246001885,5.298259336960069e-13,2.1787083618601565e-84,-1.0412730205462533,-6.101547568581369e-12,-2.5090302045469543e-83,-0.10670297694565994,0,70,255.0,255.0,255.0
68,3.4000000000000004,10.500000000000078,3.211587634030289e-85,-2.15616892152747,6.30540219177323e-14,2.5928576927662736e-85,-1.046462200120724,-1.2569328902549521e-11,-5.168660165787118e-83,-0.10086420603317126,0,70,255.0,255.0,255.0
69,3.45,10.500000000000064,2.584330082893545e-85,-2.208615678969834,-7.271069565589433e-13,-2.989951803926954e-84,-1.0513594411495706,-1.9037110236517612e-11,-7.828290127027258e-83,-0.09502543512068262,0,70,255.0,255.0,255.0
70,3.5,10.5,0.0,-2.2613,-1.8406570017340224e-12,-7.569004357750605e-84,-1.0559647436327924,-2.5504891570485713e-11,-1.0487920088267404e-82,-0.08918666420819044,0,70,255.0,255.0,255.0
71,3.5500000000000003,10.499999999999886,-4.6819141005470587e-85,-2.314206694358582,-2.5124493664929405e-12,-1.0331495865714125e-83,-1.060242507644144,-1.3668030198708529e-12,-5.620459435866189e-84,-0.08192389624587225,0,70,255.0,255.0,255.0
72,3.6,10.499999999999767,-9.504339686990736e-85,-2.3673181984577787,-1.9773373037211186e-12,-8.13105030133727e-84,-1.0641571332573796,2.2771285530743794e-11,9.363828201094076e-83,-0.07466112828355412,0,70,255.0,255.0,255.0
73,3.6500000000000004,10.499999999999709,-1.1985808223160917e-84,-2.4206163553776854,-2.3532081341854723e-13,-9.676676646199984e-85,-1.0677086204724995,4.690937408135865e-11,1.9289702345774863e-82,-0.06739836032123593,0,70,255.0,255.0,255.0
74,3.7,10.499999999999766,-9.644851172887378e-85,-2.4740830081983938,2.7136001044147414e-12,1.1158652044437566e-83,-1.0708969692895032,7.10474626319733e-11,2.9215576490455556e-82,-0.06013559235891781,0,70,255.0,255.0,255.0
75,3.75,10.5,0.0,-2.5277,6.869425449778759e-12,2.8247908825835463e-83,-1.073722179708391,9.518555118258795e-11,3.914145063513625e-82,-0.052872824396597906,0,70,255.0,255.0,255.0
76,3.8000000000000003,10.500000000000425,1.7473141299914752e-84,-2.5814499374503996,9.37658868719589e-12,3.85576674890329e-83,-1.0762300669972649,5.100978314096657e-12,2.0975840176532784e-83,-0.04744266715836357,0,70,255.0,255.0,255.0
77,3.85,10.500000000000863,3.5470678604242687e-84,-2.635318481568694,7.379523281188464e-12,3.034549284348891e-83,-1.078466446424227,-8.498359455439384e-11,-3.4946282599829365e-82,-0.042012509920129296,0,70,255.0,255.0,255.0
78,3.9000000000000004,10.500000000001087,4.473164525861336e-84,-2.6892920569617904,8.782292317564556e-13,3.611384889203337e-84,-1.080431317989278,-1.7506816742288516e-10,-7.199014921731234e-82,-0.03658235268189496,0,70,255.0,255.0,255.0
79,3.95,10.500000000000876,3.599507460865595e-84,-2.7433570882365905,-1.0127293461100025e-11,-4.1644656373823325e-83,-1.0821246816924168,-2.6515274029137563e-10,-1.0903401583479498e-81,-0.03115219544366068,0,70,255.0,255.0,255.0
80,4.0,10.5,0.0,-2.7975,-2.5637044797381012e-11,-1.0542263094559124e-82,-1.0835465375336442,-3.552373131598661e-10,-1.4607788245227764e-81,-0.025722038205424624,0,70,255.0,255.0,255.0
81,4.05,10.499999999998414,-6.52106510991113e-84,-2.85170635583982,-3.49939053822906e-11,-1.4389917409041746e-82,-1.0846452243667968,-1.903711023651877e-11,-7.82829012702776e-83,-0.01822543512067976,0,70,255.0,255.0,255.0
82,4.1000000000000005,10.499999999996781,-1.3237837472998054e-83,-2.905958275267443,-2.7540755821032605e-11,-1.1325092107261782e-82,-1.0853690810457122,3.1716309268683455e-10,1.304213021982246e-81,-0.010728832035934763,0,70,255.0,255.0,255.0
83,4.15,10.49999999999594,-1.669407728112926e-83,-2.9602370167751544,-3.2775961136072817e-12,-1.3477871892193375e-83,-1.0857181075703903,6.53363295610182e-10,2.686708945234745e-81,-0.003232228951189898,0,70,255.0,255.0,255.0
84,4.2,10.499999999996733,-1.3433544726173648e-83,-3.0145238388552444,3.7795573739985344e-11,1.5541997345085567e-82,-1.085692303940831,9.895634985335293e-10,4.0692048684872435e-81,0.0042643741335549636,0,70,255.0,255.0,255.0
85,4.25,10.5,0.0,-3.0688,9.567875373974529e-11,3.934426149565295e-82,-1.0852916701570348,1.3257637014568767e-09,5.451700791739741e-81,0.011760977218306934,0,70,255.0,255.0,255.0
86,4.3,10.500000000005919,2.4336946309653064e-83,-3.123047839190319,1.3059903284196652e-10,5.370390288726368e-82,-1.0845810355355499,7.10474626319778e-11,2.921557649045725e-82,0.01666440764108648,0,70,255.0,255.0,255.0
87,4.3500000000000005,10.500000000012015,4.9404282031567934e-83,-3.1772540173615367,1.0278350000294201e-10,4.226581914469824e-82,-1.083625229392926,-1.1836687761929435e-09,-4.867389261930688e-81,0.021567838063866113,0,70,255.0,255.0,255.0
88,4.4,10.50000000001515,6.230314459865569e-83,-3.231406275937593,1.2232155222672681e-11,5.030010267956993e-83,-1.0824242517291633,-2.4383850150178424e-09,-1.0026934288765856e-80,0.02647126848664566,0,70,255.0,255.0,255.0
89,4.45,10.500000000012191,5.013467144382897e-83,-3.2854923563424334,-1.4105500149884133e-10,-5.800352374295997e-82,-1.0809781025442615,-3.6931012538427415e-09,-1.5186479315601023e-80,0.03137469890942521,0,70,255.0,255.0,255.0
90,4.5,10.5,0.0,-3.3395,-3.5707797016160015e-10,-1.4683478288805267e-81,-1.0792867818382208,-4.94781749266764e-09,-2.034602434243619e-80,0.036278129332204756,0,70,255.0,255.0,255.0
91,4.55,10.499999999977911,-9.082672012870111e-83,-3.393415887398902,-4.874022259855754e-10,-2.0042569414001298e-81,-1.0772866334910072,-2.6515274029139284e-10,-1.0903401583480149e-81,0.04372780455634204,0,70,255.0,255.0,255.0
92,4.6000000000000005,10.499999999955161,-1.8437929065327365e-82,-3.4472224552864144,-3.835932441907353e-10,-1.5773818447153117e-81,-1.0749140013825864,4.4175120120849386e-09,1.8165344025740504e-80,0.05117747978047946,0,70,255.0,255.0,255.0
93,4.65,10.499999999943455,-2.325185011134935e-82,-3.500901079474475,-4.5651024777083364e-11,-1.8772253882608722e-82,-1.0721688855129592,9.100176764461186e-09,3.742102820982868e-80,0.05862715500461674,0,70,255.0,255.0,255.0
94,4.7,10.4999999999545,-1.871051410491423e-82,-3.5544331357750236,5.264244322553801e-10,2.164720976267542e-81,-1.069051285882125,1.3782841516837434e-08,5.667671239391685e-80,0.06607683022875402,0,70,255.0,255.0,255.0
95,4.75,10.5,0.0,-3.6078,1.3326331269066552e-09,5.479948700565577e-81,-1.0655612024900838,1.8465506269213682e-08,7.593239657800499e-80,0.07352650545289485,0,70,255.0,255.0,255.0
96,4.800000000000001,10.500000000082432,3.38969934205158e-82,-3.660983811214072,1.8190098711003359e-09,7.479988736727886e-81,-1.0617444305004222,9.895634985332821e-10,4.0692048684862117e-81,0.07914437413356383,0,70,255.0,255.0,255.0
97,4.8500000000000005,10.500000000167338,6.881128805815265e-82,-3.713969761492809,1.4315894767599993e-09,5.886869187414265e-81,-1.0576467650767274,-1.6486379272146813e-08,-6.779398684103131e-80,0.0847622428142327,0,70,255.0,255.0,255.0
98,4.9,10.50000000021103,8.677708598553183e-82,-3.7667438061645107,1.7037194388566072e-10,7.005900526247808e-82,-1.053268206218999,-3.39623220428269e-08,-1.396571785505488e-79,0.09038011149490156,0,70,255.0,255.0,255.0
99,4.95,10.50000000016981,6.982858927527397e-82,-3.8192919005574746,-1.9646427275226788e-09,-8.078848667640567e-81,-1.0486087539272373,-5.143826481350699e-08,-2.115203702600663e-79,0.09599798017557044,0,70,255.0,255.0,255.0
100,5.0,10.5,0.0,-3.8716,-4.97345453746502e-09,-2.045144697338178e-80,-1.0436684082014422,-6.891420758418707e-08,-2.833835619695838e-79,0.10161584885623398,0,70,255.0,255.0,255.0
101,5.050000000000001,10.49999999969236,-1.265053016691929e-81,-3.923653667744814,-6.7886372584157684e-09,-2.791569800551141e-80,-1.0384236445073007,-3.6931012538417994e-09,-1.5186479315597139e-80,0.10817469890942358,0,70,255.0,255.0,255.0
102,5.1000000000000005,10.499999999375486,-2.5680722316728324e-81,-3.9754368987423527,-5.3427646628492595e-09,-2.1970094904941742e-80,-1.0328509383105,6.152800507650231e-08,2.5301060333838472e-79,0.11473354896261305,0,70,255.0,255.0,255.0
103,5.15,10.499999999212433,-3.238564938307779e-81,-4.026933295867485,-6.358367507655589e-10,-2.614637671673026e-81,-1.0269502896110394,1.267491114068464e-07,5.212076859923666e-79,0.12129239901580254,0,70,255.0,255.0,255.0
104,5.2,10.499999999366254,-2.606038429961817e-81,-4.07812646199508,7.332146477835336e-09,3.0150673694294736e-80,-1.0207216984089198,1.9197021773719052e-07,7.894047686463486e-79,0.127851249068992,0,70,255.0,255.0,255.0
105,5.25,10.5,0.0,-4.129,1.8561185022953424e-08,7.632583919296154e-80,-1.0141651647041403,2.571913240675346e-07,1.0576018513003304e-78,0.1344100991221815,0,70,255.0,255.0,255.0
106,5.300000000000001,10.500000001148129,4.721242132562559e-81,-4.179537517806677,2.5335539162562733e-08,1.0418280328531775e-79,-1.0072809914703673,1.3782841516833925e-08,5.667671239390257e-80,0.14095683022873554,0,70,255.0,255.0,255.0
107,5.3500000000000005,10.500000002330713,9.584176046109804e-81,-4.229722643537781,1.9939469174637042e-08,8.199351043235273e-80,-1.0000694816812667,-2.296256410338624e-07,-9.442484265125075e-79,0.14750356133528947,0,70,255.0,255.0,255.0
108,5.4,10.500000002939236,1.2086488893375798e-80,-4.279539010365547,2.3729750591765733e-09,9.757960634067345e-81,-0.9925306353368384,-4.730341235845588e-07,-1.9451735654189176e-78,0.15405029244184337,0,70,255.0,255.0,255.0
109,5.45,10.500000002365171,9.725867827094532e-81,-4.328970251462209,-2.7363943183818668e-08,-1.1252384610953835e-79,-0.9846644524370824,-7.164426061352552e-07,-2.9460987043253277e-78,0.1605970235483973,0,70,255.0,255.0,255.0
110,5.5,10.5,0.0,-4.378,-6.927128555434868e-08,-2.848519097984644e-79,-0.9764709329819987,-9.598510886859514e-07,-3.947023843231737e-78,0.16714375465495124,0,70,255.0,255.0,255.0
111,5.550000000000001,10.499999995715129,-1.76199155135583e-80,-4.426612261028482,-9.455351939183518e-08,-3.888155151357596e-79,-0.9679723896112354,-5.1438264813493876e-08,-2.115203702600124e-79,0.1727979801755759,0,70,255.0,255.0,255.0
112,5.6000000000000005,10.499999991301658,-3.5768631952766385e-80,-4.474792527106524,-7.441511203569892e-08,-3.06003946824469e-79,-0.959191134964441,8.569745590589475e-07,3.523983102711646e-78,0.17845220569620046,0,70,255.0,255.0,255.0
113,5.65,10.499999989030627,-4.510739063519541e-80,-4.522526662670325,-8.856063485940737e-09,-3.6417204864596256e-80,-0.9501271690416154,1.7653873829313888e-06,7.259486575683304e-78,0.18410643121682502,0,70,255.0,255.0,255.0
114,5.7,10.499999991173063,-3.629743287841632e-80,-4.569800532156084,1.021236262574393e-07,4.1994471074385886e-79,-0.9407804918427586,2.67380020680383e-06,1.0994990048654963e-77,0.18976065673744957,0,70,255.0,255.0,255.0
115,5.75,10.5,0.0,-4.6166,2.585239571944413e-07,1.0630818000008959e-78,-0.9311511033678704,3.5822130306762705e-06,1.4730493521626618e-77,0.19541488225807324,0,70,255.0,255.0,255.0
116,5.800000000000001,10.500000015991361,6.575841992167065e-80,-4.6629102380794,3.528785384047779e-07,1.4510792572577205e-78,-0.9211974500846933,1.9197021773714174e-07,7.894047686461489e-79,0.20273124906900428,0,70,255.0,255.0,255.0
117,5.8500000000000005,10.500000032462651,1.3349035176495572e-79,-4.708713648036127,2.7772097896815863e-07,1.1420222768655236e-78,-0.9108779784609699,-3.198272595201927e-06,-1.315168398433407e-77,0.21004761587993517,0,70,255.0,255.0,255.0
118,5.9,10.500000040938257,1.6834307364740577e-79,-4.753991938953154,3.305127888458639e-08,1.3591085882431858e-79,-0.9001926884966999,-6.588515408140995e-06,-2.709277273731429e-77,0.2173639826908661,0,70,255.0,255.0,255.0
119,5.95,10.500000032942577,1.3546386368657065e-79,-4.798726819913455,-3.8113056184593863e-07,-1.567254996865896e-78,-0.8891415801918834,-9.978758221080065e-06,-4.1033861490294514e-77,0.224680349501797,0,70,255.0,255.0,255.0
120,6.0,10.5,0.0,-4.8429,-9.648245432234164e-07,-3.9674752902051192e-78,-0.8777246535465202,-1.3369001034019135e-05,-5.497495024327473e-77,0.23199671631273233,0,70,255.0,255.0,255.0
121,6.050000000000001,10.49999994031942,-2.4541376417312428e-79,-4.886493986653922,-1.3169606342272767e-06,-5.415501513895122e-78,-0.865989810049992,-7.164426061350749e-07,-2.9460987043245765e-78,0.23739702354839032,0,70,255.0,255.0,255.0
122,6.1000000000000005,10.499999878847735,-4.981927751070564e-79,-4.9294944807489705,-1.0364688038369356e-06,-4.262085160637625e-78,-0.853984951191681,1.1936115821748758e-05,4.908275283462466e-77,0.24279733078404822,0,70,255.0,255.0,255.0
123,6.15,10.499999847216339,-6.282649039544278e-79,-4.97188798151706,-1.233490520524053e-07,-5.0722623043267386e-79,-0.8417100769715872,2.458867424963259e-05,1.0111160437357389e-76,0.24819763801970612,0,70,255.0,255.0,255.0
124,6.2,10.499999877056629,-5.0555802186786646e-79,-5.013660988190098,1.4223986211263147e-06,5.849075276719726e-78,-0.8291651873897106,3.7241232677516426e-05,1.531404559125231e-76,0.25359794525536405,0,70,255.0,255.0,255.0
125,6.25,10.5,0.0,-5.0548,3.6007742156992245e-06,1.480681936081958e-77,-0.8163502824460509,4.989379110540025e-05,2.051693074514723e-76,0.25899825249102015,0,70,255.0,255.0,255.0
126,6.300000000000001,10.500000222730954,9.158966367708266e-79,-5.09529061530492,4.914963998504328e-06,2.021092679832277e-77,-0.8032113097153388,2.6738002068031497e-06,1.0994990048652167e-77,0.2665606567374568,0,70,255.0,255.0,255.0
127,6.3500000000000005,10.500000452146407,1.8592807486632704e-78,-5.135114828967995,3.868154236379583e-06,1.5906318365684978e-77,-0.7896942167723051,-4.454619069179311e-05,-1.8317932735416454e-76,0.2741230609838934,0,70,255.0,255.0,255.0
128,6.4,10.500000570196386,2.3447165421703057e-78,-5.174253734978612,4.6034492932503396e-07,1.8929940629063836e-78,-0.7757990036169495,-9.176618159038936e-05,-3.773536447569812e-76,0.28168546523032995,0,70,255.0,255.0,255.0
129,6.45,10.500000458830907,1.8867682237848955e-78,-5.212688427326151,-5.308463922659319e-06,-2.1829046110013006e-77,-0.7615256702492722,-0.00013898617248898562,-5.71527962159798e-76,0.28924786947676645,0,70,255.0,255.0,255.0
130,6.5,10.5,0.0,-5.2504,-1.3438272319573481e-05,-5.52598021530732e-77,-0.746874216669273,-0.00018620616338758185,-7.657022795626145e-76,0.296810273723203,0,70,255.0,255.0,255.0
131,6.550000000000001,10.499999168756764,-3.4181727829101816e-78,-5.287371552126402,-1.8342895359790034e-05,-7.542820567939595e-77,-0.7319649510886478,-9.978758221077509e-06,-4.103386149028413e-77,0.29956034950179566,0,70,255.0,255.0,255.0
132,6.6000000000000005,10.499998312566634,-6.938930219546024e-78,-5.32359420337905,-1.4436148141681395e-05,-5.936318830210229e-77,-0.7169181817190933,0.0001662486469454237,6.836345565820332e-76,0.3023104252803883,0,70,255.0,255.0,255.0
133,6.65,10.499997871998122,-8.750601264726795e-78,-5.359061078568495,-1.718030665247725e-06,-7.064750021192864e-78,-0.701733908560609,0.0003424760521119249,1.4083029746543508e-75,0.3050605010589809,0,70,255.0,255.0,255.0
134,6.7,10.49999828761974,-7.041514873271718e-78,-5.393765302505295,1.981145706951096e-05,8.146710916333226e-77,-0.6864121316131954,0.0005187034572784261,2.1329713927266681e-75,0.30781057683757357,0,70,255.0,255.0,255.0
135,6.75,10.5,0.0,-5.4277,5.01523150625947e-05,2.062323892514732e-76,-0.6709528508768519,0.0006949308624449272,2.8576398107989857e-75,0.31056065261616794,0,70,255.0,255.0,255.0
136,6.800000000000001,10.500003102241985,1.2756794494869898e-77,-5.460851176189474,6.845661744065581e-05,2.81501895919261e-76,-0.6549288859300636,3.724123267750707e-05,1.531404559124844e-76,0.3303979452553558,0,70,255.0,255.0,255.0
137,6.8500000000000005,10.500006297587053,2.5896440129520823e-77,-5.493176357515806,5.3876438330346016e-05,2.2154643484272415e-76,-0.6379130563513161,-0.0006204483970899015,-2.551358898973969e-75,0.35023523789454336,0,70,255.0,255.0,255.0
138,6.9,10.500007941811127,3.265768851673687e-77,-5.524625950747405,6.41177773166591e-06,2.636600602186502e-77,-0.6199053621406093,-0.0012781380268573098,-5.255858253860422e-75,0.3700725305337309,0,70,255.0,255.0,255.0
139,6.95,10.500006390690135,2.6279291269301955e-77,-5.555150362652668,-7.393736435538451e-05,-3.040393905433161e-76,-0.6009058032979432,-0.0019358276566247186,-7.960357608746874e-75,0.38990982317291845,0,70,255.0,255.0,255.0
140,7.0,10.5,0.0,-5.5847,-0.0001871709879308053,-7.696697548528196e-76,-0.5809143798233177,-0.002593517286392127,-1.0664856963633326e-74,0.4097471158121069,0,70,255.0,255.0,255.0
141,7.050000000000001,10.499987622275293,-4.760900519656942e-77,-5.613222143115707,-0.0003034835744027227,-1.050579377997648e-75,-0.5597435051910956,-0.0020589861724845033,-5.71527962159653e-76,0.43708786947676387,0,70,255.0,255.0,255.0
142,7.1000000000000005,10.499970097085153,-9.664683029853727e-77,-5.6406515665577235,-0.00039306960517925714,-8.268225510687941e-76,-0.5372055928756412,-0.0015244550585768889,9.521801039313844e-75,0.46442862314142036,0,70,255.0,255.0,255.0
143,7.15,10.49994876075737,-1.2188015280222067e-76,-5.666919918441884,-0.00045592908026041105,-9.839927406626706e-77,-0.5133006428769539,-0.0009899239446692746,1.961513004078734e-74,0.4917693768060769,0,70,255.0,255.0,255.0
144,7.2,10.499924949619725,-9.807565020393612e-77,-5.69195884688403,-0.0004920619996461842,1.1346904530099324e-75,-0.48802865519503363,-0.0004553928307616602,2.9708459042260833e-74,0.5191101304707334,0,70,255.0,255.0,255.0
145,7.25,10.4999,0.0,-5.7157,-0.0005014683633365769,2.872446630159805e-75,-0.46138962982988063,7.913828314595316e-05,3.980178804373431e-74,0.5464508841353917,0,70,255.0,255.0,255.0
146,7.300000000000001,10.499875208656844,1.7767922629140775e-76,-5.738097851347699,-0.000486522319825967,3.9208156160713304e-75,-0.434753093305556,0.0005187034572784313,2.1329713927261178e-75,0.5190105768375767,0,70,255.0,255.0,255.0
147,7.3500000000000005,10.49985171407233,3.606908810646282e-76,-5.759198176253304,-0.0004495980176087339,3.085743769432451e-75,-0.40948857214612266,0.0009582686314109016,-3.55358452582814e-74,0.49157026953976224,0,70,255.0,255.0,255.0
148,7.4,10.499830615159395,4.548629226921458e-76,-5.7790695754850585,-0.0003906954566848773,3.672310902432026e-76,-0.38559606635158,0.001397833805543372,-7.320466190928892e-74,0.46412996224194775,0,70,255.0,255.0,255.0
149,7.45,10.499813010830971,3.6602330954644247e-76,-5.79778064981121,-0.0003098146370543972,-4.2347224214964146e-75,-0.3630755759219281,0.0018373989796758423,-1.1087347856029644e-73,0.4366896549441333,0,70,255.0,255.0,255.0
150,7.5,10.4998,0.0,-5.8154,-0.00020695555871729366,-1.07201167657864e-74,-0.3419271008571668,0.0022769641538083127,-1.4854229521130393e-73,0.4092493476463197,0,70,255.0,255.0,255.0
151,7.550000000000001,10.499792343097335,-6.631078999690615e-76,-5.831990451493498,-0.00010242714628792612,-1.4632683086287675e-74,-0.3218041215866851,0.0019041723433663293,-7.960357608744848e-75,0.3956698231729387,0,70,255.0,255.0,255.0
152,7.6000000000000005,10.499789446625531,-1.3461166939599756e-75,-5.847591728429063,-1.6538324380659388e-05,-1.1516152526661015e-74,-0.3023601185398727,0.0015313805329243524,1.3262157999381176e-73,0.3820902986995579,0,70,255.0,255.0,255.0
153,7.65,10.499790378605056,-1.697571537966363e-75,-5.86223777961788,5.071090700450855e-05,-1.3705250869065468e-75,-0.2835950917167294,0.0011585887224823755,2.7320351759636835e-73,0.3685107742261772,0,70,255.0,255.0,255.0
154,7.7,10.49979420705639,-1.3660175879818335e-75,-5.8759625538711315,9.932054786757777e-05,1.5804199232975724e-74,-0.26550904111725515,0.0007857969120403988,4.1378545519892494e-73,0.3549312497527964,0,70,255.0,255.0,255.0
155,7.75,10.4998,0.0,-5.8888,0.0001292905982085482,4.000802043298579e-74,-0.24810196674144994,0.0004130051015984234,5.543673928014815e-73,0.3413517252794154,0,70,255.0,255.0,255.0
156,7.800000000000001,10.499807418953816,2.4747523735848383e-75,-5.90078514267831,0.0001762309049793564,5.460991672907937e-74,-0.23143842034769618,0.0014646071692338781,2.970845904225336e-74,0.32519013047072515,0,70,255.0,255.0,255.0
157,7.8500000000000005,10.499818499425556,5.023775894775274e-75,-5.911957310030443,0.00027575131513193587,4.297886633721163e-74,-0.21558295369437724,0.002516209236869314,-4.949504747169654e-73,0.3090285356620352,0,70,255.0,255.0,255.0
158,7.9,10.499835870420386,6.335423229173303e-75,-5.922356906043422,0.00042785182866628694,5.11486925738301e-75,-0.20053556678149279,0.00356781130450475,-1.0196094084761843e-72,0.2928669408533453,0,70,255.0,255.0,255.0
159,7.95,10.499862160943477,5.09804704238089e-75,-5.932024334704267,0.0006325324455824096,-5.8982074510406446e-74,-0.1862962596090428,0.004619413372140186,-1.544268342235403e-72,0.27670534604465535,0,70,255.0,255.0,255.0
160,8.0,10.4999,0.0,-5.941,0.000889793165880304,-1.4931196496615677e-73,-0.17286503217702734,0.0056710154397756245,-2.0689272759946222e-72,0.2605437512359654,0,70,255.0,255.0,255.0
161,8.05,10.499951581087402,-9.235901594370292e-75,-5.949324977793261,0.001173503526366371,-2.0380698383002982e-73,-0.1602821970225253,0.005677398979666892,-1.108734785602686e-73,0.242769654944108,0,70,255.0,255.0,255.0
162,8.1,10.500017355672254,-1.874898688514098e-74,-5.957043031449162,0.0014575330638469913,-1.603993128221871e-73,-0.1485880666826166,0.005683782519558159,1.847180318874015e-72,0.2249955586522512,0,70,255.0,255.0,255.0
163,8.15,10.500097339713404,-2.3644121378726858e-74,-5.9641985962084325,0.0017418817783221847,-1.9088951942625518e-74,-0.13778264115730032,0.005690166059449426,3.805234116308368e-72,0.20722146236039382,0,70,255.0,255.0,255.0
164,8.200000000000001,10.5001915491697,-1.9026170581541554e-74,-5.970836107311802,0.002026549669791942,2.2012409880865507e-73,-0.1278659204465769,0.005696549599340694,5.763287913742721e-72,0.1894473660685364,0,70,255.0,255.0,255.0
165,8.25,10.5003,0.0,-5.977,0.002311536738256252,5.572398394316413e-73,-0.11883790455044674,0.005702933139231956,7.721341711177006e-72,0.17167326977667896,0,70,255.0,255.0,255.0
166,8.3,10.500423056696574,3.446885400389633e-74,-5.982733346148645,0.0026177549895385825,7.606180185910398e-73,-0.11061679156220931,0.006545796912061093,4.137854551988191e-73,0.15717124975281338,0,70,255.0,255.0,255.0
167,8.35,10.50056247788543,6.997217164578868e-74,-5.988073764172907,0.0029661164294623576,5.986183849515362e-73,-0.10312077957516544,0.0073886606848902,-6.893770800779108e-72,0.1426692297289483,0,70,255.0,255.0,255.0
168,8.4,10.500720370725999,8.82410622857341e-74,-5.993057509122848,0.003356621058027601,7.124093851311834e-74,-0.09634986858931456,0.008231524457719337,-1.4201327056757296e-71,0.12816720970508272,0,70,255.0,255.0,255.0
169,8.450000000000001,10.500898842377712,7.100663528378536e-74,-5.997720836048526,0.003789268875234303,-8.215143207242134e-73,-0.09030405860465698,0.009074388230548474,-2.150888331273548e-71,0.11366518968121714,0,70,255.0,255.0,255.0
170,8.5,10.5011,0.0,-6.0021,0.004264059881082444,-2.0796473927604084e-72,-0.08498334962119285,0.009917252003377577,-2.88164395687134e-71,0.09916316965735217,0,70,255.0,255.0,255.0
171,8.55,10.501325792126295,-1.28639514421215e-73,-6.006232837612161,0.004771476515470912,-2.83866509053413e-72,-0.08048263672864227,0.010379413372160874,-1.5442683422350116e-72,0.08086534604466829,0,70,255.0,255.0,255.0
172,8.6,10.50157753278602,-2.6113969969801366e-73,-6.010163511859208,0.005302001218298527,-2.234074226983957e-72,-0.07689681501672602,0.010841574740944153,2.572790288424241e-71,0.06256752243198507,0,70,255.0,255.0,255.0
173,8.65,10.501856377382598,-3.293201277642097e-73,-6.013937767300177,0.0058556339895653245,-2.6587480210984965e-73,-0.07422588448544382,0.011303736109727451,5.300007411072079e-71,0.044269698819301186,0,70,255.0,255.0,255.0
174,8.700000000000001,10.50216348131945,-2.6500037055359985e-73,-6.017601348494097,0.006432374829271287,3.0659331840881964e-72,-0.07246984513479583,0.011765897478510746,8.027224533719919e-71,0.025971875206617312,0,70,255.0,255.0,255.0
175,8.75,10.5025,0.0,-6.0212,0.007032223737416394,7.761349731609992e-72,-0.07162869696478207,0.012228058847294013,1.0754441656367658e-70,0.007674051593934528,0,70,255.0,255.0,255.0
176,8.8,10.502866574798242,4.800892036809637e-73,-6.024777703402716,0.007624338948581934,1.0594042343545476e-71,-0.07159666152322039,0.011456549599327251,5.763287913741222e-72,-0.006392633931467672,0,70,255.0,255.0,255.0
177,8.85,10.503261790970486,9.74586627146266e-73,-6.02837138839026,0.008177878697349115,8.33767852298429e-72,-0.0722679603579288,0.010685040351360517,-9.60178407361905e-71,-0.020459319456869372,0,70,255.0,255.0,255.0
178,8.9,10.503683719743604,1.229039448771104e-72,-6.032016221676447,0.008692842983717981,9.922582699262815e-73,-0.07364259346890735,0.009913531103393755,-1.9779896938612588e-70,-0.034526004982271576,0,70,255.0,255.0,255.0
179,8.950000000000001,10.504130432344482,9.889948469306135e-73,-6.0357473699750885,0.009169231807688505,-1.1442218415628575e-71,-0.07572056085615601,0.009142021855426993,-2.995800980360613e-70,-0.04859269050767377,0,70,255.0,255.0,255.0
180,9.0,10.5046,0.0,-6.0396,0.009607045169260678,-2.8965751533679556e-71,-0.07850186251967467,0.008370512607460287,-4.01361226685993e-70,-0.06265937603307492,0,70,255.0,255.0,255.0
181,9.05,10.505091908680733,-1.7917173003026397e-72,-6.043611548776978,0.010091167690210793,-3.953750428364779e-71,-0.08212271717847125,0.010994388230544029,-2.1508883312729983e-71,-0.08217481031878668,0,70,255.0,255.0,255.0
182,9.1,10.505611303332039,-3.637206808887051e-72,-6.047828534579751,0.010706483992315073,-3.1116639864953217e-71,-0.08671934355155328,0.013618263853627677,3.5834346006051965e-70,-0.10169024460449773,0,70,255.0,255.0,255.0
183,9.15,10.506164743642984,-4.586837667320208e-72,-6.052299745994038,0.01145299407557356,-3.7031582775952644e-72,-0.09229174163892102,0.01624213947671142,7.381958034337826e-70,-0.12120567889020949,0,70,255.0,255.0,255.0
184,9.200000000000001,10.506758789302618,-3.690979017168854e-72,-6.057073971605549,0.012330697939986238,4.27029404784261e-71,-0.0988399114405744,0.01886601509979516,1.1180481468070457e-69,-0.14072111317592123,0,70,255.0,255.0,255.0
185,9.25,10.5074,0.0,-6.0622,0.013339595585553067,1.0810165640310823e-70,-0.10636385295651309,0.02148989072287888,1.4979004901802954e-69,-0.16023654746163263,0,70,255.0,255.0,255.0
186,9.3,10.50809299047883,6.686779997529595e-72,-6.067722501489374,0.014362990290587374,1.475559747910456e-70,-0.11461646976288868,0.01944589747849282,8.02722453371785e-71,-0.16986812479338645,0,70,255.0,255.0,255.0
187,9.35,10.508834595701355,1.3574240608401936e-71,-6.073669673290731,0.015284185333402346,1.1612888093682859e-70,-0.12335066543585164,0.017401904234106827,-1.337355999505888e-69,-0.17949970212513994,0,70,255.0,255.0,255.0
188,9.4,10.509619705684468,1.7118311220509726e-71,-6.080065594347402,0.016103180713998046,1.3820374840454845e-71,-0.13256643997540263,0.015357910989720766,-2.7549842443490046e-69,-0.18913127945689373,0,70,255.0,255.0,255.0
189,9.450000000000001,10.51044321044505,1.3774921221744816e-71,-6.0869343436027155,0.016819976432374442,-1.5936954349807583e-70,-0.1422637933815413,0.013313917745334703,-4.1726124891921217e-69,-0.19876285678864758,0,70,255.0,255.0,255.0
190,9.5,10.5113,0.0,-6.0943,0.017434572488531516,-4.0344087407875335e-70,-0.1524427256542673,0.011269924500948603,-5.590240734035189e-69,-0.20839443412040115,0,70,255.0,255.0,255.0
191,9.55,10.51218652940395,-2.4955402689815747e-71,-6.102174445265525,0.01804087114744069,-5.5068639488053477e-70,-0.16237140376996967,0.012982021855418038,-2.9958009803598485e-70,-0.18875269050768723,0,70,255.0,255.0,255.0
192,9.600000000000001,10.51310551386254,-5.0659755624721466e-71,-6.11052077225732,0.018732774674073336,-4.3339888388235225e-70,-0.1713179947050363,0.014694119209887472,4.99108053796322e-69,-0.1691109468949733,0,70,255.0,255.0,255.0
193,9.65,10.514061233619154,-6.3886407214718686e-71,-6.11928987661635,0.01951028306842943,-5.157834108422387e-71,-0.17928249845946698,0.016406216564356847,1.0281741173962238e-68,-0.14946920328226007,0,70,255.0,255.0,255.0
194,9.700000000000001,10.515057968917178,-5.14087058698104e-71,-6.128432653983589,0.02037339633050902,5.947752335138771e-70,-0.1862649150332622,0.018118313918826283,1.5572401809961444e-68,-0.12982745966954615,0,70,255.0,255.0,255.0
195,9.75,10.5161,0.0,-6.1379,0.02132211446031205,1.5056618399119053e-69,-0.1922652444264216,0.019830411273295545,2.0863062445960456e-68,-0.11018571605683314,0,70,255.0,255.0,255.0
196,9.8,10.517190491905367,9.313483076173338e-71,-6.147652517448526,0.02228952511964018,2.0551896047310933e-69,-0.1978659151572404,0.01886601509982921,1.1180481468067529e-69,-0.11384111317591544,0,70,255.0,255.0,255.0
197,9.850000000000001,10.518328148848486,1.890647818904837e-70,-6.157689637679991,0.023208715970294995,1.6174666545925821e-69,-0.2036493557440133,0.017901618926362876,-1.862696615234695e-68,-0.11749651029499775,0,70,255.0,255.0,255.0
198,9.9,10.51951055983892,2.3842731763836503e-70,-6.168020499187191,0.024079687012276463,1.9249298949644052e-70,-0.2096155661867401,0.01693722275289658,-3.837198045149995e-68,-0.12115190741407991,0,70,255.0,255.0,255.0
199,9.950000000000001,10.520735313886236,1.9185990225749663e-70,-6.178654240462931,0.024902438245584645,-2.2197313905574322e-69,-0.21576454648542126,0.015972826579430246,-5.811699475065365e-68,-0.12480730453316222,0,70,255.0,255.0,255.0
200,10.0,10.522,0.0,-6.1896,0.025676969670219485,-5.619206485568867e-69,-0.22209629664005628,0.01500843040596389,-7.786200904980663e-68,-0.1284627016522435,0,70,255.0,255.0,255.0
201,10.05,10.523302702974577,-3.475839203571177e-70,-6.200865084940376,0.026433028374001848,-7.670072024043838e-69,-0.2285009356010781,0.015233917745330231,-4.17261248919104e-69,-0.12772285678862505,0,70,255.0,255.0,255.0
202,10.100000000000001,10.524643490743516,-7.055993719372133e-70,-6.212449477022722,0.02720036144475253,-6.036467734487977e-69,-0.23486858231891897,0.015459405084696572,6.951678407142455e-68,-0.12698301192500658,0,70,255.0,255.0,255.0
203,10.15,10.526022927025169,-8.898228633387415e-70,-6.224351326634881,0.027978968882471502,-7.183936169015392e-70,-0.24119923679357871,0.015684892424062902,1.432061806320375e-67,-0.12624316706138816,0,70,255.0,255.0,255.0
204,10.200000000000001,10.527441575537878,-7.160309031601768e-70,-6.236568784164693,0.028768850687158815,8.284150328715851e-69,-0.24749289902505775,0.015910379763429242,2.168955771926531e-67,-0.1255033221977697,0,70,255.0,255.0,255.0
205,10.25,10.5289,0.0,-6.2491,0.029570006858814415,2.0971164102363564e-68,-0.25374956901335566,0.016135867102795715,2.9058497375326608e-67,-0.1247634773341515,0,70,255.0,255.0,255.0
206,10.3,10.530398696196325,1.2972008506667376e-69,-6.261943142789976,0.030378361384354235,2.862509849144426e-68,-0.25997034243844813,0.016198313918796652,1.5572401809957445e-68,-0.12406745966954327,0,70,255.0,255.0,255.0
207,10.350000000000001,10.53193788817745,2.6333327058583693e-69,-6.275096454229125,0.031189838250694105,2.2528404283359334e-68,-0.26615631498031017,0.016260760734797593,-2.594401701333512e-67,-0.12337144200493506,0,70,255.0,255.0,255.0
208,10.4,10.53351773206041,3.3208641357165997e-69,-6.288558194273286,0.03200443745783399,2.6810814781097313e-69,-0.27230748663894155,0.01632320755079853,-5.344527420766501e-67,-0.12267542434032687,0,70,255.0,255.0,255.0
209,10.450000000000001,10.535138383962247,2.6722637103832094e-69,-6.302326622878299,0.03282215900577395,-3.0916869924305966e-68,-0.2784238574143428,0.01638565436679947,-8.094653140199587e-67,-0.12197940667571866,0,70,255.0,255.0,255.0
210,10.5,10.5368,0.0,-6.3164,0.03364300289451393,-7.826544992388538e-68,-0.28450542730651346,0.016448101182800434,-1.0844778859632575e-66,-0.1212833890111118,0,70,255.0,255.0,255.0
211,10.55,10.538502512240118,-4.841219482309832e-69,-6.330776743899723,0.03445352608857056,-1.068303219417332e-67,-0.290561694645121,0.01597282657946431,-5.811699475063867e-68,-0.12096730453318799,0,70,255.0,255.0,255.0
212,10.600000000000001,10.540244956546688,-9.827731451496264e-69,-6.345455906060781,0.03524028555246039,-8.407714939894931e-68,-0.29660215775983245,0.015497551976128185,9.682438964619802e-67,-0.1206512200552642,0,70,255.0,255.0,255.0
213,10.65,10.542026144733196,-1.239363367952766e-68,-6.360436696271975,0.03600328128618338,-1.0005932295537363e-68,-0.3026268166506474,0.015022277372792077,1.9946047876745625e-66,-0.12033513557734041,0,70,255.0,255.0,255.0
214,10.700000000000001,10.543844888613137,-9.973023938372657e-69,-6.375718324322113,0.03674251328973959,1.1538332936850799e-67,-0.3086356713175664,0.014547002769455954,3.0209656788871816e-66,-0.12001905109941662,0,70,255.0,255.0,255.0
215,10.75,10.5457,0.0,-6.3913,0.03745798156312896,2.9209063559317797e-67,-0.3146287217605891,0.01407172816611979,4.047326570099764e-66,-0.11970296662149327,0,70,255.0,255.0,255.0
216,10.8,10.547590454843197,1.8067677078572589e-68,-6.40718108161113,0.03815953426136781,3.9869618927548846e-67,-0.32061487898107066,0.013990379763433756,2.168955771925972e-67,-0.11974332219776596,0,70,255.0,255.0,255.0
217,10.850000000000001,10.5495158856358,3.6677593100126685e-68,-6.423361521527755,0.038857019539472355,3.1378019331243795e-67,-0.3266030539803659,0.013909031360747724,-3.6135354157145695e-66,-0.11978367777403864,0,70,255.0,255.0,255.0
218,10.9,10.551476089006808,4.625367058239404e-68,-6.439841420638813,0.03955043739744258,3.734264770403963e-68,-0.3325932467584745,0.013827682958061693,-7.443966408621601e-66,-0.11982403335031133,0,70,255.0,255.0,255.0
219,10.950000000000001,10.55347086158521,3.721983204310741e-68,-6.45662087983325,0.040239787835278526,-4.30616447549726e-67,-0.3385854573153969,0.01374633455537566,-1.1274397401528768e-65,-0.11986438892658402,0,70,255.0,255.0,255.0
220,11.0,10.5555,0.0,-6.4737,0.04092507085298013,-1.0900970924488264e-66,-0.3445796856511329,0.013664986152689462,-1.51048283944358e-65,-0.11990474450285626,0,70,255.0,255.0,255.0
221,11.05,10.557563668387095,-6.742948883198053e-68,-6.491078129655757,0.04162833686596663,-1.487954435160221e-66,-0.3505307894305971,0.014465654366769854,-8.094653140197499e-67,-0.11813940667571081,0,70,255.0,255.0,255.0
222,11.100000000000001,10.559663500910109,-1.368826409490105e-67,-6.508751607828205,0.04237163628965714,-1.1710436238508025e-66,-0.35639362631870414,0.015266322580850245,1.34858977663963e-65,-0.11637406884856535,0,70,255.0,255.0,255.0
223,11.15,10.561801499239573,-1.726210486500485e-67,-6.526716021172772,0.043154969124051645,-1.3936465852062073e-67,-0.36216819631545366,0.016066990794930607,2.778126084681184e-65,-0.11460873102141997,0,70,255.0,255.0,255.0
224,11.200000000000001,10.563979665046025,-1.38906304234057e-67,-6.544966956344894,0.0439783353691502,1.6070824608303964e-66,-0.36785449942084614,0.016867659009011,4.20766239272279e-65,-0.1128433931942745,0,70,255.0,255.0,255.0
225,11.25,10.5662,0.0,-6.5635,0.04484173502495273,4.0682977342021276e-66,-0.37345253563488107,0.017668327223091085,5.637198700764341e-65,-0.11107805536712734,0,70,255.0,255.0,255.0
226,11.3,10.56846367160842,2.5165027824934946e-67,-6.582311999765842,0.04569511827476631,5.553121551365393e-66,-0.37903796329654477,0.016467002769451372,3.0209656788863904e-66,-0.1123390510994173,0,70,255.0,255.0,255.0
227,11.350000000000001,10.570768510723765,5.1085297069591515e-67,-6.601404847159433,0.04648843530189789,4.3703943020907707e-66,-0.38468644074482294,0.01526567831581166,-5.033005564987063e-65,-0.11360004683170727,0,70,255.0,255.0,255.0
228,11.4,10.573111514034899,6.442305240177998e-67,-6.620781694670101,0.047221686106347464,5.201159863784442e-67,-0.39039796797971543,0.014064353862171988,-1.0368107697862574e-64,-0.11486104256399719,0,70,255.0,255.0,255.0
229,11.450000000000001,10.575489678230689,5.1840538489312065e-67,-6.64044569478718,0.04789487068811508,-5.997713395771858e-66,-0.3961725450012226,0.012863029408532275,-1.5703209830738278e-64,-0.11612203829628716,0,70,255.0,255.0,255.0
230,11.5,10.5779,0.0,-6.6604,0.04850798904720069,-1.5183093844359683e-65,-0.4020101718093441,0.011661704954892604,-2.103831196361379e-64,-0.11738303402857708,0,70,255.0,255.0,255.0
231,11.55,10.580340045179218,-9.391716241654174e-67,-6.680646671280877,0.04909519003495837,-2.072453177030135e-65,-0.40784535738322303,0.0118263345554142,-1.1274397401525835e-65,-0.11602438892657634,0,70,255.0,255.0,255.0
232,11.600000000000001,10.58280965619483,-1.9065292418346503e-66,-6.7011834035340705,0.04969062250274212,-1.6310533584512281e-65,-0.4136126107020019,0.011990964155935795,1.8783432483308623e-64,-0.1146657438245756,0,70,255.0,255.0,255.0
233,11.65,10.585309244620827,-2.4043010474211506e-66,-6.722006800146826,0.050294286450551944,-1.9410992869931525e-66,-0.4193119317656806,0.012155593756457386,3.869430470676912e-64,-0.11330709872257491,0,70,255.0,255.0,255.0
234,11.700000000000001,10.587839222031219,-1.9347152353384266e-66,-6.743113464506388,0.05090618187838786,2.238377112225705e-65,-0.4249433205742594,0.01232022335697898,5.860517693023032e-64,-0.11194845362057416,0,70,255.0,255.0,255.0
235,11.75,10.5904,0.0,-6.7645,0.051526308786249836,5.66640776432366e-65,-0.430506777127738,0.012484852957500348,7.851604915369079e-64,-0.11058980851857392,0,70,255.0,255.0,255.0
236,11.8,10.5929921476747,3.5050362184123197e-66,-6.78616371511065,0.052164121585412,7.734500552984001e-65,-0.4360446071705598,0.013027659008985601,4.207662392721693e-65,-0.11092339319429528,0,70,255.0,255.0,255.0
237,11.850000000000001,10.595616864496916,7.115263996642684e-66,-6.808104738704286,0.05282907468714841,6.087174003595834e-65,-0.44159911644716765,0.013570465060470853,-7.01007243682474e-64,-0.11125697787001664,0,70,255.0,255.0,255.0
238,11.9,10.598275507481791,8.972973665666803e-66,-6.830323904742596,0.05352116809145908,7.244281161594159e-66,-0.44717030495756144,0.014113271111956087,-1.4440911112921387e-63,-0.11159056254573799,0,70,255.0,255.0,255.0
239,11.950000000000001,10.60096943364444,7.220455556460578e-66,-6.852822047187272,0.05424040179834402,-8.35373710932563e-65,-0.4527581727017414,0.01465607716344134,-2.18717497890183e-63,-0.11192414722145934,0,70,255.0,255.0,255.0
240,12.0,10.6037,0.0,-6.8756,0.054986775807803194,-2.114732167285867e-64,-0.45836271967970726,0.015198883214926517,-2.930258846511494e-63,-0.11225773189717936,0,70,255.0,255.0,255.0
241,12.05,10.60646816412199,-1.3080973249483862e-65,-6.898657668276524,0.055736323623389566,-2.886554903490587e-64,-0.4639282139345435,0.014783029408527876,-1.5703209830734196e-64,-0.11036203829626606,0,70,255.0,255.0,255.0
242,12.100000000000001,10.6092732858175,-2.655452674473609e-65,-6.921991241648787,0.056465078748656,-2.2717642655932115e-64,-0.469398923509334,0.014367175602129233,2.61619464989681e-63,-0.10846634469535278,0,70,255.0,255.0,255.0
243,12.15,10.612114325452016,-3.3487593615246055e-65,-6.945595980882789,0.05717304118360248,-2.7036025359383637e-65,-0.47477484840407874,0.013951321795730606,5.389421398100863e-63,-0.10657065109443956,0,70,255.0,255.0,255.0
244,12.200000000000001,10.614990243391022,-2.694710699050389e-65,-6.9694671467445275,0.05786021092822906,3.117657132507682e-64,-0.4800559886187779,0.013535467989331964,8.162648146305015e-63,-0.10467495749352627,0,70,255.0,255.0,255.0
245,12.25,10.6179,0.0,-6.9936,0.058526587982535676,7.892287892711102e-64,-0.48524234415343137,0.013119614182933226,1.093587489450907e-62,-0.1027792638926126,0,70,255.0,255.0,255.0
246,12.3,10.620842395837345,4.881885677952313e-65,-7.017991211783258,0.05916258392103349,1.0772769558663949e-63,-0.49041853709126115,0.012320223356978842,5.860517693021513e-64,-0.10426845362057532,0,70,255.0,255.0,255.0
247,12.350000000000001,10.623815592233083,9.910284298230167e-65,-7.0426430947005665,0.059758610318233575,8.47833966201326e-64,-0.49566918951548905,0.01152083253102446,-9.763771355904767e-63,-0.10575764334853806,0,70,255.0,255.0,255.0
248,12.4,10.626817590710147,1.2497740079531742e-64,-7.067559371726246,0.06031466717413593,1.0089982027593975e-64,-0.500994301426115,0.010721441705070106,-2.0113594481111316e-62,-0.10724683307650072,0,70,255.0,255.0,255.0
249,12.450000000000001,10.629846392791475,1.00567972405555e-64,-7.092743765834618,0.060830754488740583,-1.1635254819098166e-63,-0.5063938728231391,0.009922050879115723,-3.046341760631823e-62,-0.10873602280446346,0,70,255.0,255.0,255.0
250,12.5,10.6329,0.0,-7.1182,0.0613068722620475,-2.945441940355854e-63,-0.5118679037065612,0.009122660053161147,-4.0813240731524785e-62,-0.11022521253242701,0,70,255.0,255.0,255.0
251,12.55,10.63597745252863,-1.8219445386860866e-64,-7.143930284590447,0.06180534069246279,-4.0204523331165206e-63,-0.5173256377004091,0.010816077163450179,-2.1871749789012698e-63,-0.10808414722148495,0,70,255.0,255.0,255.0
252,12.600000000000001,10.639081945250172,-3.698568451844706e-64,-7.169930779548949,0.06238847997839253,-3.164159438245984e-63,-0.5226763184287099,0.012509494273739211,3.6438890773722245e-62,-0.1059430819105429,0,70,255.0,255.0,255.0
253,12.65,10.642217711707396,-4.6642200956602366e-64,-7.196196132212226,0.06305629011983671,-3.765632557443783e-64,-0.5279199458914633,0.014202911384028183,7.506495652634439e-62,-0.10380201659960092,0,70,255.0,255.0,255.0
254,12.700000000000001,10.645388985443079,-3.753247826317162e-64,-7.222720989917002,0.06380877111679535,4.342336214388496e-63,-0.5330565200886699,0.015896328494317217,1.1369102227896791e-61,-0.10166095128865886,0,70,255.0,255.0,255.0
255,12.75,10.6486,0.0,-7.2495,0.06464592296926842,1.0992538972152305e-62,-0.5380860410203292,0.017589745604606022,1.5231708803159002e-61,-0.0995198859777151,0,70,255.0,255.0,255.0
256,12.8,10.651853394048128,6.799589586949113e-64,-7.2765292498549545,0.06547205330911762,1.5004532376599683e-62,-0.5430949121071097,0.015455467989361473,8.162648146302891e-63,-0.10083495749350037,0,70,255.0,255.0,255.0
257,12.850000000000001,10.655145426766232,1.3803245377555805e-63,-7.303810587103642,0.0661914697682046,1.1808803786782604e-62,-0.5481695367696794,0.013321190374116925,-1.3599179173898424e-61,-0.10215002900928564,0,70,255.0,255.0,255.0
258,12.9,10.65847076246027,1.7407106374687773e-63,-7.331347299424852,0.06680417234652931,1.4053532027015673e-63,-0.5533099150080382,0.011186912758872455,-2.8014623162426623e-61,-0.10346510052507087,0,70,255.0,255.0,255.0
259,12.950000000000001,10.661824065436207,1.400731158121309e-63,-7.359142674497376,0.06731016104409183,-1.6205819375644174e-62,-0.5585160468221865,0.009052635143627906,-4.243006715095534e-61,-0.10478017204085613,0,70,255.0,255.0,255.0
260,13.0,10.6652,0.0,-7.3872,0.06770943586089209,-4.1024713948253364e-62,-0.5637879322121238,0.006918357528383101,-5.684551113948354e-61,-0.10609524355663957,0,70,255.0,255.0,255.0
261,13.05,10.668594571278852,-2.537641380911036e-63,-7.415520715989739,0.06808244607107797,-5.599767717328222e-62,-0.5690147138711513,0.008002050879051896,-3.0463417606310304e-62,-0.10297602280445975,0,70,255.0,255.0,255.0
262,13.100000000000001,10.6720091476849,-5.151441305837851e-63,-7.444098872036489,0.0685096409487973,-4.4071055708884445e-62,-0.5740855344925698,0.00908574422972069,5.075282761822148e-61,-0.09985680205227991,0,70,255.0,255.0,255.0
263,13.15,10.675446438451523,-6.496420540309085e-63,-7.472926670088369,0.06899102049405004,-5.244849555061886e-63,-0.5790003940763794,0.010169437580389448,1.0455199699707208e-60,-0.0967375813001002,0,70,255.0,255.0,255.0
264,13.200000000000001,10.678909152812098,-5.227599849853522e-63,-7.5019963120935,0.06952658470683623,6.04809412881882e-62,-0.5837592926225799,0.011253130931058243,1.5835116637592458e-60,-0.09361836054792036,0,70,255.0,255.0,255.0
265,13.25,10.6824,0.0,-7.5313,0.07011633358715585,1.5310631682086115e-61,-0.5883622301311712,0.012336824281726777,2.1215033575477512e-60,-0.09049913979573798,0,70,255.0,255.0,255.0
266,13.3,10.685921120836463,9.470606564949235e-63,-7.560831886186093,0.07072616240655805,2.089861763165292e-61,-0.5929262324082817,0.012056328494360176,1.1369102227893872e-61,-0.09206095128868041,0,70,255.0,255.0,255.0
267,13.350000000000001,10.689472382494166,1.9225440685595825e-62,-7.590593924750406,0.07132196643659189,1.6447541904875518e-61,-0.5975683252600393,0.011775832706993575,-1.8941213129898738e-60,-0.09362276278162285,0,70,255.0,255.0,255.0
268,13.4,10.693053083733634,2.424497152376756e-62,-7.620590020221673,0.07190374567725738,1.9574045017546044e-62,-0.6022885086864439,0.011495336919626984,-3.901933648258615e-60,-0.09518457427456523,0,70,255.0,255.0,255.0
269,13.450000000000001,10.696662523315402,1.9509668241292777e-62,-7.650824077128628,0.07247150012855458,-2.2571794577710845e-61,-0.6070867826874958,0.011214841132260383,-5.909745983527427e-60,-0.09674638576750766,0,70,255.0,255.0,255.0
270,13.5,10.7003,0.0,-7.6813,0.07302522979048341,-5.714005533351912e-61,-0.6119631472631946,0.010934345344893459,-7.91755831879617e-60,-0.09830819726044737,0,70,255.0,255.0,255.0
271,13.55,10.703964945375288,-3.5344784878885902e-62,-7.712020539265895,0.07357290430269635,-7.799470280928344e-61,-0.6168483564957268,0.010972635143623255,-4.243006715094431e-61,-0.09710017204083916,0,70,255.0,255.0,255.0
272,13.600000000000001,10.707657322338434,-7.175032143654544e-62,-7.742983828961891,0.07412249330484576,-6.138306204861361e-61,-0.6216731644672786,0.011010924942353052,7.068956975777283e-60,-0.09589214682123096,0,70,255.0,255.0,255.0
273,13.65,10.711377226613939,-9.048346555476116e-62,-7.7741868490249395,0.07467399679693164,-7.3051330515121946e-62,-0.6264375711778498,0.011049214741082848,1.4562214623063744e-59,-0.0946841216016228,0,70,255.0,255.0,255.0
274,13.700000000000001,10.715124753926295,-7.281107311531755e-62,-7.805626579391992,0.07522741477895403,8.423908418202463e-61,-0.6311415766274409,0.011087504539812644,2.2055472270350473e-59,-0.0934760963820146,0,70,255.0,255.0,255.0
275,13.75,10.7189,0.0,-7.8373,0.07578274725091289,2.1324958965199037e-60,-0.6357851808160513,0.011125794338542327,2.9548729917636934e-59,-0.09226807116240643,0,70,255.0,255.0,255.0
276,13.8,10.722703097662382,1.3190853295059438e-61,-7.869204356750333,0.07634222038265291,2.910801936054809e-60,-0.6403843416088095,0.011253130931058222,1.5835116637588435e-60,-0.09169836054792384,0,70,255.0,255.0,255.0
277,13.850000000000001,10.726534328152091,2.67775845060586e-61,-7.901337959402037,0.07690806034401872,2.29084706289579e-60,-0.6449550168708438,0.011380467523574115,-2.6381706590119247e-59,-0.09112864993344123,0,70,255.0,255.0,255.0
278,13.9,10.73039400981061,3.3768889069527716e-61,-7.933699383678572,0.07748026713501031,2.726312770429425e-61,-0.6494972066021537,0.011507804116090004,-5.434692484399634e-59,-0.09055893931895866,0,70,255.0,255.0,255.0
279,13.950000000000001,10.73428246097942,2.7173462421997756e-61,-7.966287205303406,0.07805884075562772,-3.143845421503874e-60,-0.6540109108027397,0.011635140708605898,-8.231214309787445e-59,-0.08998922870447607,0,70,255.0,255.0,255.0
280,14.0,10.7382,0.0,-7.9991,0.07864378120587091,-7.958583032744424e-60,-0.6584961294726013,0.01176247730112212,-1.1027736135175153e-58,-0.08941951808999349,0,70,255.0,255.0,255.0
281,14.05,10.742146663975184,-4.922893469234915e-61,-8.032136433732775,0.07921821416670549,-1.08632607161264e-59,-0.6629582770690384,0.01121484113226027,-5.909745983525889e-60,-0.08906638576748982,0,70,255.0,255.0,255.0
282,14.100000000000001,10.746121365053197,-9.993530588057981e-61,-8.065395533429971,0.07976526531909696,-8.54955763109702e-60,-0.6674027680493504,0.01066720496339842,9.845786938469976e-59,-0.08871325344498614,0,70,255.0,255.0,255.0
283,14.15,10.75012273414362,-1.260272097226347e-60,-8.098876416260774,0.08028493466304532,-1.0174737776566447e-60,-0.671829602413537,0.010119568794536588,2.028254847529217e-58,-0.08836012112248248,0,70,255.0,255.0,255.0
284,14.200000000000001,10.754149402156028,-1.0141274237645922e-60,-8.132578199394386,0.08077722219855062,1.1732990844195257e-59,-0.6762387801615986,0.00957193262567474,3.071931001211473e-58,-0.0880069887999788,0,70,255.0,255.0,255.0
285,14.25,10.7582,0.0,-8.1665,0.08124212792561278,2.970183623445779e-59,-0.6806303012935349,0.009024296456812797,4.115607154893694e-58,-0.08765385647747159,0,70,255.0,255.0,255.0
286,14.3,10.762273446436888,1.8372488547433722e-60,-8.200641108318566,0.08169692295052768,4.05422409284508e-59,-0.6850145501150223,0.009167504539782857,2.2055472270344866e-59,-0.08771609638202663,0,70,255.0,255.0,255.0
287,14.350000000000001,10.766369811635121,3.729636390162607e-60,-8.235001506878088,0.08215887837959109,3.1907383461492303e-59,-0.6894019109317376,0.00931071262275292,-3.674497709486796e-58,-0.08777833628658165,0,70,255.0,255.0,255.0
288,14.4,10.770489453614916,4.703399498210112e-60,-8.269581351278326,0.08262799421280295,3.797263833583661e-60,-0.6937923837436806,0.009453920705722974,-7.569550141676903e-58,-0.08784057619113668,0,70,255.0,255.0,255.0
289,14.450000000000001,10.77463273039647,3.784775070838392e-60,-8.304380797119045,0.08310427045016337,-4.378811795527716e-59,-0.6981859685508512,0.009597128788693036,-1.146460257386715e-57,-0.0879028160956917,0,70,255.0,255.0,255.0
290,14.5,10.7788,0.0,-8.3394,0.08358770709167228,-1.1084876190508674e-58,-0.7025826653532496,0.00974033687166298,-1.5359655006057256e-57,-0.08796505600024318,0,70,255.0,255.0,255.0
291,14.55,10.782991550277274,-6.856706072049997e-60,-8.374638332992957,0.08407409403117998,-1.5130570299767677e-58,-0.7069355224708683,0.009715140708644586,-8.231214309785333e-59,-0.08614922870450134,0,70,255.0,255.0,255.0
292,14.600000000000001,10.787207388406316,-1.3919192501844632e-59,-8.410092039057673,0.08455922116253675,-1.1907997621487215e-58,-0.7111975882236999,0.009689944545626194,1.371341214410019e-57,-0.0843334014087595,0,70,255.0,255.0,255.0
293,14.65,10.791447451396724,-1.75533258956141e-59,-8.445756578625913,0.08504308848574259,-1.4171581556677994e-59,-0.7153688626117443,0.009664748382607802,2.82499457191784e-57,-0.08251757411301773,0,70,255.0,255.0,255.0
294,14.700000000000001,10.795711676258087,-1.4124972859588985e-59,-8.481627412129436,0.08552569600079753,1.6341948097691335e-58,-0.7194493456350016,0.009639552219589408,4.2786479294257126e-57,-0.08070174681727589,0,70,255.0,255.0,255.0
295,14.75,10.8,0.0,-8.5177,0.08600704370770151,4.136932113858892e-58,-0.7234390372934718,0.009614356056570461,5.732301286933533e-57,-0.07888591952153234,0,70,255.0,255.0,255.0
296,14.8,10.804312352454028,2.5589575433456612e-59,-8.553971159709608,0.0864867009247568,5.6468057106225635e-58,-0.7274193600015092,0.009571932625640399,3.0719310012106838e-58,-0.08032698879996121,0,70,255.0,255.0,255.0
297,14.850000000000001,10.808648634739617,5.194713361721592e-59,-8.590443136891215,0.08696423697026558,4.444125213979965e-58,-0.731471736173468,0.009529509194710338,-5.117915086691396e-57,-0.08176805807839006,0,70,255.0,255.0,255.0
298,14.9,10.813008740798194,6.550990408424629e-59,-8.627119534218021,0.08743965184422782,5.288906239312812e-59,-0.7355961658093482,0.009487085763780278,-1.0543023273503667e-56,-0.08320912735681887,0,70,255.0,255.0,255.0
299,14.950000000000001,10.81739256457118,5.271511636751751e-59,-8.664003954363217,0.08791294554664358,-6.0988980595237604e-58,-0.73979264890915,0.009444662332850217,-1.596813146031613e-56,-0.08465019663524774,0,70,255.0,255.0,255.0
300,15.0,10.8218,0.0,-8.7011,0.08838411807751285,-1.54392408363847e-57,-0.744061185472873,0.009402238901919602,-2.13932396471284e-56,-0.08609126591367744,0,70,255.0,255.0,255.0
301,15.05,10.826231039906622,-9.550159566177646e-59,-8.738409828168612,0.08885910226977903,-2.1074165812513485e-57,-0.7483150375231067,0.009597128788726986,-1.146460257386416e-57,-0.08406281609566528,0,70,255.0,255.0,255.0
302,15.100000000000001,10.830686072635215,-1.9386934196701904e-58,-8.775929813377463,0.08934383095638557,-1.6585701093771133e-57,-0.7524674670824396,0.00979201867553437,1.910031913235557e-56,-0.0820343662776531,0,70,255.0,255.0,255.0
303,15.15,10.8351655854105,-2.44486290441371e-58,-8.813654884502007,0.08983830413733246,-1.973846680158345e-58,-0.7565184741508719,0.009986908562341747,3.934709852209684e-56,-0.08000591645964102,0,70,255.0,255.0,255.0
304,15.200000000000001,10.83967006545719,-1.9673549261048107e-58,-8.851579970417703,0.09034252181261974,2.2761397428325922e-57,-0.7604680587284038,0.01018179844914913,5.959387791183883e-56,-0.07797746664162886,0,70,255.0,255.0,255.0
305,15.25,10.8442,0.0,-8.8897,0.09085648398224735,5.762003123167991e-57,-0.7643162208150348,0.010376688335955953,7.984065730158009e-56,-0.07594901682361677,0,70,255.0,255.0,255.0
306,15.3,10.848755487919485,3.564168072136493e-58,-8.928011127615944,0.09135688999613598,7.864985753943138e-57,-0.7681364899060573,0.009639552219589065,4.27864792942461e-57,-0.07686174681728401,0,70,255.0,255.0,255.0
307,15.350000000000001,10.853335074719517,7.235302342508602e-58,-8.966514409598933,0.09182043920420628,6.189867916110458e-57,-0.7720023954967633,0.008902416103222179,-7.128336144273087e-56,-0.07777447681095125,0,70,255.0,255.0,255.0
308,15.4,10.857936917559808,9.124352576812378e-58,-9.00521212777395,0.09224713160645821,7.366496096702117e-58,-0.7759139375871524,0.008165279986855317,-1.4684537081488366e-55,-0.07868720680461845,0,70,255.0,255.0,255.0
309,15.450000000000001,10.862559173600067,7.34226854074407e-58,-9.044106563965977,0.0926369672028918,-8.494669165377991e-57,-0.7798711161772252,0.00742814387048843,-2.224073801870391e-55,-0.0795999367982857,0,70,255.0,255.0,255.0
310,15.5,10.8672,0.0,-9.0832,0.09298994599350704,-2.1504088409033493e-56,-0.783873931266981,0.0066910077541213475,-2.9796938955919193e-55,-0.08051266679195113,0,70,255.0,255.0,255.0
311,15.55,10.871858208415443,-1.3301656331928205e-57,-9.122493661367606,0.0933453377456806,-2.9352526434521206e-56,-0.7878590028526614,0.007524662332820465,-1.5968131460311954e-56,-0.07889019663526128,0,70,255.0,255.0,255.0
312,15.600000000000001,10.876535228486718,-2.700251595036422e-57,-9.161984548226803,0.0937424122267891,-2.3100901555064714e-56,-0.7917629509305072,0.008358316911519583,2.6603312663856802e-55,-0.07726772647857146,0,70,255.0,255.0,255.0
313,15.65,10.88123314435027,-3.4052547402835807e-57,-9.201668604402194,0.09418116943683255,-2.7492137706649946e-57,-0.7955857755005185,0.009191971490218671,5.48034384737438e-55,-0.07564525632188167,0,70,255.0,255.0,255.0
314,15.700000000000001,10.885954040142549,-2.7401719236871455e-57,-9.24154177371839,0.09466160937581096,3.170253691867938e-56,-0.7993274765626954,0.010025626068917787,8.300356428363179e-55,-0.07402278616519184,0,70,255.0,255.0,255.0
315,15.75,10.8907,0.0,-9.2816,0.09518373204372432,8.025435051296598e-56,-0.8029880541170378,0.010859280647616654,1.1120369009351879e-54,-0.07240031600849939,0,70,255.0,255.0,255.0
316,15.8,10.895472478418746,4.964245725557633e-57,-9.321839826913626,0.09570975902114347,1.0954511998414169e-55,-0.8066034986832914,0.010181798449148783,5.959387791182354e-56,-0.07221746664164108,0,70,255.0,255.0,255.0
317,15.850000000000001,10.900270411333617,1.0077476145894829e-56,-9.362260197493855,0.09620191188863922,8.62137383041484e-56,-0.810209800781202,0.009504316250680914,-9.928491451115408e-55,-0.07203461727478278,0,70,255.0,255.0,255.0
318,15.9,10.905092105039111,1.270858370345308e-56,-9.402860654617275,0.09666019064621155,1.0260205472989814e-56,-0.8138069604107695,0.008826834052213068,-2.045292168134868e-54,-0.07185176790792447,0,70,255.0,255.0,255.0
319,15.950000000000001,10.909935865829738,1.0226460840674176e-56,-9.443640741160461,0.09708459529386052,-1.1831547850933952e-55,-0.8173949775719944,0.008149351853745199,-3.0977351911582325e-54,-0.07166891854106616,0,70,255.0,255.0,255.0
320,16.0,10.9148,0.0,-9.4846,0.09747512583158607,-2.9951331364283043e-55,-0.8209738522648761,0.007471869655276908,-4.150178214181559e-54,-0.07148606917420519,0,70,255.0,255.0,255.0
321,16.05,10.91968307790957,-1.852681726903771e-56,-9.52573823097789,0.09784762616973021,-4.088279535020455e-55,-0.824559002414188,0.007428143870488223,-2.2240738018698214e-55,-0.07191993679826876,0,70,255.0,255.0,255.0
322,16.1,10.92458472617882,-3.760965298854289e-56,-9.567056261797772,0.0982179402186349,-3.217540516615289e-55,-0.828165845944703,0.007384418085699539,3.7053634538075946e-54,-0.07235380442233233,0,70,255.0,255.0,255.0
323,16.150000000000002,10.92950483549328,-4.742908007352883e-56,-9.608555177128714,0.09858606797830018,-3.8291608121280707e-56,-0.8317943828564213,0.007340692300910854,7.633134287802172e-54,-0.07278767204639591,0,70,255.0,255.0,255.0
324,16.2,10.934443296538495,-3.816567143901033e-56,-9.650236061639768,0.09895200944872598,4.4155937711865804e-55,-0.8354446131493425,0.007296966516122173,1.156090512179647e-53,-0.07322153967045945,0,70,255.0,255.0,255.0
325,16.25,10.9394,0.0,-9.6921,0.09931576462991239,1.1177989040583556e-54,-0.8391165368234672,0.007253240731333377,1.5488675955791048e-53,-0.07365540729452213,0,70,255.0,255.0,255.0
326,16.3,10.944375209942967,6.91430233505932e-56,-9.734147249174821,0.09969973629991964,1.5257666940240403e-54,-0.8427604916599594,0.008105626068956252,8.300356428361031e-55,-0.07210278616516133,0,70,255.0,255.0,255.0
327,16.35,10.949370683951106,1.4036113580827673e-55,-9.776374755315056,0.10012632723680802,1.2008024683419672e-54,-0.8463268154399834,0.008958011406579126,-1.3828604670118842e-53,-0.07055016503580051,0,70,255.0,255.0,255.0
328,16.400000000000002,10.954388552987762,1.7700773659066213e-55,-9.818778636867881,0.10059553744057756,1.4290622701213649e-55,-0.8498155081635395,0.009810396744202001,-2.8487244983073785e-53,-0.06899754390643971,0,70,255.0,255.0,255.0
329,16.45,10.959430948016278,1.4243622491536696e-55,-9.861355012280468,0.1011073669112282,-1.6479220299652984e-54,-0.8532265698306273,0.010662782081824817,-4.314588529602769e-53,-0.067444922777079,0,70,255.0,255.0,255.0
330,16.5,10.9645,0.0,-9.9041,0.10166181564876002,-4.1716823025905923e-54,-0.8565600004412472,0.011515167419447692,-5.780452560898263e-53,-0.06589230164771642,0,70,255.0,255.0,255.0
331,16.55,10.969596882318559,-2.580452761333351e-55,-9.947010372322827,0.10220142863058973,-5.694238822594115e-54,-0.8598550309459679,0.010069351853740562,-3.09773519115743e-54,-0.06590891854111156,0,70,255.0,255.0,255.0
332,16.6,10.974718938016753,-5.238348902445641e-55,-9.99008551694201,0.1026687508341341,-4.4814558217063394e-54,-0.8631508922953585,0.008623536288033432,5.160905522666777e-53,-0.0659255354345067,0,70,255.0,255.0,255.0
333,16.650000000000002,10.979862552555668,-6.606018662891196e-55,-10.033325475399776,0.10306378225939308,-5.333332999272642e-55,-0.8664475844894187,0.007177720722326302,1.0631584564449297e-52,-0.06594215232790183,0,70,255.0,255.0,255.0
334,16.7,10.985024111396386,-5.315792282224573e-55,-10.076730289238359,0.10338652290636671,6.150128742742534e-54,-0.8697451075281486,0.0057319051566192755,1.6102263606231427e-52,-0.06595876922129698,0,70,255.0,255.0,255.0
335,16.75,10.9902,0.0,-10.1203,0.103636972775055,1.5568930306304014e-53,-0.8730434614115483,0.004286089590911923,2.157294264801395e-52,-0.06597538611469389,0,70,255.0,255.0,255.0
336,16.8,10.995387660782793,9.630380811827474e-55,-10.16403446153387,0.10387854917773011,2.1251188596352425e-53,-0.8763313845561768,0.0053769665160924894,1.1560905121793632e-53,-0.06554153967044449,0,70,255.0,255.0,255.0
337,16.85,11.000588763981877,1.9549784251699796e-54,-10.207932776916916,0.10417466942666426,1.6725020818483394e-53,-0.8795976153785928,0.0064678434412730555,-1.9260761623655224e-52,-0.06510769322619508,0,70,255.0,255.0,255.0
338,16.900000000000002,11.005806036789565,2.4653997285658174e-54,-10.251993861533027,0.10452533352185743,1.9904269726969176e-54,-0.8828421538787964,0.0075587203664536215,-3.9677613759489815e-52,-0.06467384678194568,0,70,255.0,255.0,255.0
339,16.95,11.011042206398168,1.9838806879744635e-54,-10.29621663076609,0.1049305414633096,-2.295259294100485e-53,-0.8860650000567873,0.008649597291634111,-6.0094465895322944e-52,-0.0642400003376963,0,70,255.0,255.0,255.0
340,17.0,11.0163,0.0,-10.3406,0.10539029325102083,-5.810403892262547e-53,-0.8892661539125659,0.009740474216814232,-8.051131803115752e-52,-0.06380615389344868,0,70,255.0,255.0,255.0
341,17.05,11.021581274550265,-3.594107048597654e-54,-10.385142981541698,0.10585237465848692,-7.931051556281557e-53,-0.8924514308293284,0.008742782081829156,-4.314588529601695e-53,-0.06360492277705347,0,70,255.0,255.0,255.0
342,17.1,11.026884406055736,-7.296078810435353e-54,-10.429844975390338,0.10626457145920375,-6.241862745222723e-53,-0.8956266461902713,0.00774508994684408,7.188214097195413e-52,-0.06340369166065826,0,70,255.0,255.0,255.0
343,17.150000000000002,11.032206900286074,-9.200997047974151e-54,-10.474705478468127,0.10662688365317133,-7.428374590860425e-54,-0.8987917999953944,0.006747397811859004,1.4807887047350996e-51,-0.06320246054426305,0,70,255.0,255.0,255.0
344,17.2,11.03754626301094,-7.403943523675394e-54,-10.519723987697278,0.10693931124038963,8.566024302127686e-53,-0.9019468922446976,0.005749705676873999,2.2427559997506038e-51,-0.06300122942786786,0,70,255.0,255.0,255.0
345,17.25,11.0429,0.0,-10.5649,0.10720185422085872,2.1684722538419783e-52,-0.905091922938181,0.004752013541889144,3.0047232947661615e-51,-0.06279999831146998,0,70,255.0,255.0,255.0
346,17.3,11.048266441016144,1.3413390113207866e-53,-10.610232812299344,0.10746395218832228,2.959908736549098e-52,-0.9082148921265013,0.0057319051566534635,1.610226360622745e-52,-0.062118769221339847,0,70,255.0,255.0,255.0
347,17.35,11.053647211795177,2.7229336816571434e-53,-10.655720921521743,0.10777504473652408,2.329494889904255e-52,-0.9113037998603151,0.006711796771417783,-2.6826780226416124e-51,-0.0614375401312097,0,70,255.0,255.0,255.0
348,17.400000000000002,11.059044762066142,3.4338588463330777e-53,-10.701362624594468,0.10813513186546407,2.7723071390744744e-53,-0.9143586461396223,0.007691688386182102,-5.5263786813455e-51,-0.060756311041079564,0,70,255.0,255.0,255.0
349,17.45,11.06446154155807,2.763189340672711e-53,-10.747156218444795,0.10854421357514227,-3.1968837914410264e-52,-0.9173794309644229,0.008671580000946352,-8.370079340049185e-51,-0.06007508195094947,0,70,255.0,255.0,255.0
350,17.5,11.0699,0.0,-10.7931,0.10900228986555871,-8.092848626141658e-52,-0.9203661543347172,0.009651471615710339,-1.1213779998753073e-50,-0.05939385286082022,0,70,255.0,255.0,255.0
351,17.55,11.075361761385164,-5.005945340423382e-53,-10.839192169260928,0.10945981658824146,-1.104652979056824e-51,-0.9233130006646797,0.008649597291599583,-6.0094465895308226e-52,-0.058480000337676676,0,70,255.0,255.0,255.0
352,17.6,11.080845146763554,-1.016212684558504e-52,-10.885430538522701,0.10986724959471868,-8.69379328509475e-52,-0.926214154368485,0.007647722967488829,1.0011890680846909e-50,-0.057566147814533127,0,70,255.0,255.0,255.0
353,17.650000000000002,11.086347651449366,-1.28153356805349e-52,-10.931812823154008,0.11022458888499036,-1.0346391097211848e-52,-0.9290696154461332,0.006645848643378073,2.0624726020646899e-50,-0.056652295291389584,0,70,255.0,255.0,255.0
354,17.7,11.091866770756782,-1.0312363010323311e-52,-10.978336738523543,0.11053183445905648,1.1930932735551332e-51,-0.9318793838976238,0.00564397431926739,3.1237561360446136e-50,-0.055738442768246105,0,70,255.0,255.0,255.0
355,17.75,11.0974,0.0,-11.025,0.1107889863169171,3.0202922250724656e-51,-0.9346434597229576,0.004642099995156523,4.185039670024613e-50,-0.054824590245099,0,70,255.0,255.0,255.0
356,17.8,11.102945713443207,1.868244235037274e-52,-11.071800910656949,0.11104878145871701,4.1226210425723855e-51,-0.9373971052147813,0.005749705676839938,2.2427559997500516e-51,-0.05532122942784846,0,70,255.0,255.0,255.0
357,17.85,11.108505801150606,3.792557370068301e-52,-11.118740124387465,0.1113639568846011,3.2445678250474746e-51,-0.9401755826657425,0.006857311358523353,-3.7364884700746025e-50,-0.05581786861059791,0,70,255.0,255.0,255.0
358,17.900000000000002,11.114083032136405,4.78274838758065e-52,-11.165818882789509,0.11173451259456936,3.8613257249773005e-52,-0.9429788920758412,0.007964917040206767,-7.697252540124209e-50,-0.05631450779334737,0,70,255.0,255.0,255.0
359,17.95,11.1196801754148,3.848626270062051e-52,-11.213038427461033,0.11216044858862176,-4.4526847150764305e-51,-0.9458070334450771,0.009072522721890103,-1.1658016610173534e-49,-0.05681114697609679,0,70,255.0,255.0,255.0
360,18.0,11.1253,0.0,-11.2604,0.11264176486675836,-1.1271884037675697e-50,-0.9486600067734507,0.010180128403573185,-1.5618780680223139e-49,-0.057307786158844465,0,70,255.0,255.0,255.0
361,18.05,11.130944184842008,-6.972382406106758e-52,-11.307904188111285,0.11311305757687305,-1.5385831191232716e-50,-0.9514985784761958,0.008671580001014312,-8.370079340047111e-51,-0.05623508195095928,0,70,255.0,255.0,255.0
362,18.1,11.136610048634019,-1.41540167957147e-51,-11.355548963927447,0.11350892286685982,-1.2108891971680419e-50,-0.9542835149685468,0.00716303159845544,1.3944764812213717e-49,-0.0551623777430741,0,70,255.0,255.0,255.0
363,18.150000000000002,11.142293820005024,-1.7849459982269113e-51,-11.403331645687969,0.11382936073671861,-1.4410663790188053e-51,-0.9570148162505033,0.005654483195896567,2.8726537558432142e-49,-0.05408967353518892,0,70,255.0,255.0,255.0
364,18.2,11.14799172758402,-1.436326877921587e-51,-11.451249551632324,0.11407437118644946,1.6617645586750583e-50,-0.9596924823220656,0.004145934793337801,4.350831030464952e-49,-0.05301696932730381,0,70,255.0,255.0,255.0
365,18.25,11.1537,0.0,-11.4993,0.11424395421605238,4.2067243925630316e-50,-0.9623165131832336,0.0026373863907789286,5.829008305086795e-49,-0.051944265119416855,0,70,255.0,255.0,255.0
366,18.3,11.159415947188762,2.602128538938976e-51,-11.547480736897915,0.1144029882338028,5.742070372235848e-50,-0.9649125808804254,0.003723974319237848,3.123756136043843e-50,-0.05189844276825326,0,70,255.0,255.0,255.0
367,18.35,11.16514120431332,5.28235098127905e-51,-11.59579121990275,0.11461635164797618,4.51910000616742e-50,-0.9675063574600591,0.004810562247696768,-5.204257077878026e-49,-0.05185262041708966,0,70,255.0,255.0,255.0
368,18.400000000000002,11.1708784878435,6.66150915414958e-51,-11.64423133445863,0.11488404445857249,5.378132943577484e-51,-0.9700978429221344,0.005897150176155688,-1.0720889769360435e-48,-0.05180679806592607,0,70,255.0,255.0,255.0
369,18.45,11.17663051424912,5.360444884680144e-51,-11.69280096600967,0.11520606666559173,-6.201789763192593e-50,-0.9726870372666516,0.0069837381046145295,-1.6237522460842456e-48,-0.05176097571476248,0,70,255.0,255.0,255.0
370,18.5,11.1824,0.0,-11.7415,0.11558241826903393,-1.5699709166484556e-49,-0.9752739404936106,0.008070326033073894,-2.1754155152324865e-48,-0.05171515336359356,0,70,255.0,255.0,255.0
371,18.55,11.188188826402948,-9.711275915145227e-51,-11.790328064297059,0.11596298948790729,-2.1429698369820122e-49,-0.9778430980021031,0.007152522721860586,-1.1658016610170667e-49,-0.05105114697610772,0,70,255.0,255.0,255.0
372,18.6,11.193995534112698,-1.971400224554473e-50,-11.839283756461557,0.11629767054121999,-1.686551082750164e-49,-0.9803790551912214,0.006234719410647279,1.942255183029073e-48,-0.050387140588621884,0,70,255.0,255.0,255.0
373,18.650000000000002,11.199817828620976,-2.486109061837141e-50,-11.888365416477527,0.11658646142897203,-2.0071465395291092e-50,-0.9828818120609654,0.005316916099433971,4.001090532159853e-48,-0.04972313420113605,0,70,255.0,255.0,255.0
374,18.7,11.205653415419501,-2.0005452660798984e-50,-11.937571384328994,0.1168293621511634,2.3145394494095313e-49,-0.985351368611335,0.004399112788220728,6.059925881290487e-48,-0.04905912781365026,0,70,255.0,255.0,255.0
375,18.75,11.2115,0.0,-11.9869,0.1170263727077941,5.859211227337519e-49,-0.9877877248423304,0.0034813094770075326,8.118761230421266e-48,-0.048395121426162646,0,70,255.0,255.0,255.0
376,18.8,11.21735594719945,3.624297512164192e-50,-12.036349405913858,0.11721705381455444,7.997672310704463e-49,-0.9901790271111666,0.00414593479340589,4.350831030463884e-49,-0.047256969327282745,0,70,255.0,255.0,255.0
377,18.85,11.223222259235886,7.357365800089986e-50,-12.085916954251035,0.11744096618713469,6.294294330383913e-49,-0.9925134217750587,0.004810560109804248,-7.24859502432849e-48,-0.046118817228402845,0,70,255.0,255.0,255.0
378,18.900000000000002,11.229100597672595,9.278285331933606e-50,-12.135599799631285,0.11769810982553489,7.490772863758692e-50,-0.9947909088340069,0.005475185426202607,-1.4932273151703368e-47,-0.044980665129522944,0,70,255.0,255.0,255.0
379,18.95,11.23499262407287,7.4661365758515835e-50,-12.185395096674352,0.11798848472975496,-8.637978821318864e-49,-0.9970114882880109,0.006139810742600917,-2.2615951279077703e-47,-0.04384251303064312,0,70,255.0,255.0,255.0
380,19.0,11.2409,0.0,-12.2353,0.11831209089979496,-2.186687399270162e-48,-0.9991751601370711,0.006804436058999053,-3.0299629406452577e-47,-0.04270436093176322,0,70,255.0,255.0,255.0
381,19.05,11.24682418479925,-1.3526062457142247e-49,-12.285312712047512,0.11865679525388445,-2.984771940583584e-48,-1.0013447935532338,0.006983738104580508,-1.6237522460838454e-48,-0.044080975714744515,0,70,255.0,255.0,255.0
382,19.1,11.25276582894376,-2.7458062975805472e-49,-12.335435626534311,0.11901046471025302,-2.349062623878548e-48,-1.0035832577085457,0.007163040150161964,2.7052124914284886e-47,-0.04545759049772581,0,70,255.0,255.0,255.0
383,19.150000000000002,11.258725380688647,-3.462703226589728e-49,-12.385672184997356,0.11937309926890066,-2.7955944915505683e-49,-1.0058905526030064,0.00734234219574342,5.572800207465362e-47,-0.046834205280707114,0,70,255.0,255.0,255.0
384,19.200000000000003,11.264703288289022,-2.7864001037325273e-49,-12.436025828973598,0.11974469892982738,3.223737583586894e-48,-1.0082666782366163,0.007521644241324875,8.440387923502235e-47,-0.04821082006368841,0,70,255.0,255.0,255.0
385,19.25,11.2707,0.0,-12.4865,0.12012526369303313,8.160828474346897e-48,-1.010711634609375,0.007700946286906318,1.1307975639538901e-46,-0.04958743484666428,0,70,255.0,255.0,255.0
386,19.3,11.276715313603553,5.0479952316404795e-49,-12.537096545896098,0.12047576516991121,1.1139320531263892e-47,-1.0131297986758838,0.006319112788216377,6.059925881288971e-48,-0.047139127813687016,0,70,255.0,255.0,255.0
387,19.35,11.282746424989076,1.0247488610313189e-48,-12.587810939611728,0.12075717497185477,8.766821062475805e-48,-1.0154255473907436,0.004937279289526435,-1.0095990463281107e-46,-0.04469082078070976,0,70,255.0,255.0,255.0
388,19.400000000000002,11.288789879572823,1.2922984373165549e-48,-12.638637060379313,0.12096949309886386,1.0433300679826413e-48,-1.0175988807539549,0.0035554457908364943,-2.079797351469111e-46,-0.042242513747732496,0,70,255.0,255.0,255.0
389,19.450000000000003,11.294842222771045,1.0398986757344989e-48,-12.689568787431265,0.12111271955093843,-1.2031152452215597e-47,-1.019649798765517,0.0021736122921465527,-3.1499956566101114e-46,-0.03979420671475524,0,70,255.0,255.0,255.0
390,19.5,11.3009,0.0,-12.7406,0.12118685432807849,-3.0456626498117423e-47,-1.0215783014254303,0.0007917787934557108,-4.220193961751036e-46,-0.0373458996817746,0,70,255.0,255.0,255.0
391,19.55,11.306960960786542,-1.8839374680847696e-48,-12.791725904368104,0.12126414406648013,-4.157251018447197e-47,-1.0234640117432403,0.002299810742609475,-2.261595127907219e-47,-0.03808251303062208,0,70,255.0,255.0,255.0
392,19.6,11.313027671099938,-3.8244148143672214e-48,-12.842947015018785,0.12141683540233944,-3.271822162602467e-47,-1.0253865527284927,0.0038078426917632397,3.767874936169592e-46,-0.038819126379469555,0,70,255.0,255.0,255.0
393,19.650000000000002,11.319103901020068,-4.8229234266072475e-48,-12.894265173485412,0.12164492833565645,-3.893760822775511e-48,-1.0273459243811873,0.005315874640917004,7.761909385129906e-46,-0.03955573972831704,0,70,255.0,255.0,255.0
394,19.700000000000003,11.325193420626798,-3.88095469256474e-48,-12.945682221301361,0.12194842286643115,4.49008722252755e-47,-1.0293421267013243,0.0068239065900707685,1.175594383409022e-45,-0.04029235307716452,0,70,255.0,255.0,255.0
395,19.75,11.3313,0.0,-12.9972,0.1223273189946635,1.1366567751812279e-46,-1.0313751596889034,0.008331938539223649,1.574997828305025e-45,-0.04102896642600662,0,70,255.0,255.0,255.0
396,19.8,11.337426443250283,7.030950349175028e-48,-13.048819836631495,0.12272365856417636,1.5515072020662399e-46,-1.0334141543511453,0.007521644241290704,8.440387923499944e-47,-0.040530820063668566,0,70,255.0,255.0,255.0
397,19.85,11.34357169061117,1.4272910396437563e-47,-13.100541000313145,0.12307948341879257,1.2210606544162284e-46,-1.0354282416952703,0.0067113499433577575,-1.4061900698350262e-45,-0.04003267370133051,0,70,255.0,255.0,255.0
398,19.900000000000002,11.349733716346915,1.7999395269112435e-47,-13.152362245679054,0.12339479355851214,1.4531713223119363e-47,-1.0374174217212784,0.005901055645424811,-2.896784018905052e-45,-0.03953452733899245,0,70,255.0,255.0,255.0
399,19.950000000000003,11.355910494721773,1.4483920094524465e-47,-13.204282327363307,0.12366958898333508,-1.6757233644888654e-46,-1.0393816944291696,0.005090761347491866,-4.3873779679750776e-45,-0.0390363809766544,0,70,255.0,255.0,255.0
400,20.0,11.3621,0.0,-13.2563,0.12390386969326131,-4.242060835743737e-46,-1.0413210598189437,0.004280467049558423,-5.877971917044995e-45,-0.03853823461431283,0,70,255.0,255.0,255.0
401,20.05,11.368300466212327,-2.6239863928615343e-47,-13.308413949105924,0.12411322167680468,-5.79030370642024e-46,-1.0432313708521714,0.004093612292175794,-3.1499956566092487e-46,-0.03787420671479217,0,70,255.0,255.0,255.0
402,20.1,11.374511166455383,-5.326722677138302e-47,-13.360622583728635,0.1243132309224789,-4.557060401404666e-46,-1.0451084804904232,0.003906757534793165,5.247972785723145e-45,-0.037210178815271513,0,70,255.0,255.0,255.0
403,20.150000000000002,11.380731633592275,-6.717465764984248e-47,-13.412924243798384,0.12450389743028399,-5.423309206970188e-47,-1.0469523887336987,0.0037199027774105363,1.0810945137107217e-44,-0.03654615091575086,0,70,255.0,255.0,255.0
404,20.200000000000003,11.386961400486113,-5.405472568553307e-47,-13.465317269245423,0.12468522120021995,6.253884735702704e-46,-1.0487630955819982,0.0035330480200279073,1.6373917488491285e-44,-0.0358821230162302,0,70,255.0,255.0,255.0
405,20.25,11.3932,0.0,-13.5178,0.12485720223228676,1.583158656779372e-45,-1.0505406010353218,0.0033461932626445146,2.193688983987496e-44,-0.035218095116707815,0,70,255.0,255.0,255.0
406,20.3,11.399446891900412,9.792850536528635e-47,-13.570370766944812,0.12501545472860487,2.1609707623614717e-45,-1.0522843622401679,0.0029839065900791164,1.1755943834087038e-45,-0.034532353077139526,0,70,255.0,255.0,255.0
407,20.35,11.4057012435673,1.987959966890945e-46,-13.623027864772318,0.1251555928912947,1.7007180951202435e-45,-1.053993836343036,0.0026216199175137186,-1.9585701073057553e-44,-0.03384661103757123,0,70,255.0,255.0,255.0
408,20.400000000000002,11.411962149283982,2.5069923533025748e-46,-13.675769579127417,0.12527761672035623,2.0240065505568875e-46,-1.0556690233439252,0.002259333244948321,-4.0346996529523813e-44,-0.03316086899800294,0,70,255.0,255.0,255.0
409,20.450000000000003,11.418228703333774,2.017349826476079e-46,-13.728594195655013,0.12538152621578952,-2.3339815578321945e-45,-1.057309923242836,0.0018970465723829226,-6.110829198599007e-44,-0.032475126958434644,0,70,255.0,255.0,255.0
410,20.5,11.4245,0.0,-13.7815,0.1254673213775945,-5.908428543543114e-45,-1.0589165360397685,0.0015347598998165513,-8.186958744245483e-44,-0.031789384918866403,0,70,255.0,255.0,255.0
411,20.55,11.430775966186026,-3.654741575325301e-46,-13.834485383114828,0.12558495940877648,-8.064852678803862e-45,-1.060495180187157,0.0031707613474618378,-4.387377967973879e-45,-0.031356380976671254,0,70,255.0,255.0,255.0
412,20.6,11.437059859275417,-7.41916759984995e-46,-13.887549157182098,0.1257843975123407,-6.347166340340508e-45,-1.0620521741374358,0.004806762795107124,7.309483150650707e-44,-0.030923377034476104,0,70,255.0,255.0,255.0
413,20.650000000000002,11.443355769271799,-9.356222836711875e-46,-13.940690239691955,0.1260656356882872,-7.55369528153051e-46,-1.0635875178906047,0.006442764242752411,1.5057704098098806e-43,-0.03049037309228096,0,70,255.0,255.0,255.0
414,20.700000000000003,11.449667786178786,-7.528852049048987e-46,-13.993907548134542,0.12642867393661594,8.710537757758511e-45,-1.0651012114466638,0.008078765690397697,2.2805925045546898e-43,-0.03005736915008581,0,70,255.0,255.0,255.0
415,20.75,11.456,0.0,-14.0472,0.12687351225732693,2.2050555517393083e-44,-1.0665932548056132,0.009714767138042424,3.0554145992994444e-43,-0.029624365207887138,0,70,255.0,255.0,255.0
416,20.8,11.46235484335549,1.3639681247648338e-45,-14.100566900595878,0.12730070763627932,3.009843995285398e-44,-1.0680869170112155,0.007373048020052686,1.637391748848687e-44,-0.030122123016208497,0,70,255.0,255.0,255.0
417,20.85,11.468728119331029,2.7688710432508855e-45,-14.154009106499297,0.12761081705933222,2.368794726624179e-44,-1.0696054671072341,0.0050313289020629485,-2.727936249529707e-43,-0.030619880824529856,0,70,255.0,255.0,255.0
418,20.900000000000002,11.475113973628824,3.4917898993544915e-45,-14.207527862104778,0.12780384052648563,2.8190774575565294e-45,-1.0711489050936684,0.00268960978407321,-5.619611673944283e-43,-0.03111763863285122,0,70,255.0,255.0,255.0
419,20.950000000000003,11.481506551951078,2.809805836971986e-45,-14.261124411806838,0.12787977803773953,-3.2508169473201846e-44,-1.0727172309705193,0.0003478906660834731,-8.511287098358859e-43,-0.031615396441172575,0,70,255.0,255.0,255.0
420,21.0,11.4879,0.0,-14.3148,0.127838629593094,-8.229379352602922e-44,-1.0743104447377858,-0.001993828451905433,-1.1402962522773226e-42,-0.03211315424949035,0,70,255.0,255.0,255.0
421,21.05,11.494290260392017,-5.090398341526805e-45,-14.368555014501665,0.12778821004610605,-1.1232890713261205e-43,-1.0758771517679842,-2.295342761279807e-05,-6.110829198597346e-44,-0.030555126958438428,0,70,255.0,255.0,255.0
422,21.1,11.500680463400464,-1.0333567413018547e-44,-14.422386416820723,0.12783633425033272,-8.840462272462663e-44,-1.0773659574336298,0.0019479215966798366,1.0180796683053757e-42,-0.028997099667386506,0,70,255.0,255.0,255.0
423,21.150000000000002,11.507075536212904,-1.3031537313746779e-44,-14.476290311888953,0.12798300220577402,-1.0520940302073024e-44,-1.0787768617347229,0.003918796620972471,2.0972676285967248e-42,-0.027439072376334583,0,70,255.0,255.0,255.0
424,21.200000000000003,11.513480406016896,-1.0486338142983049e-44,-14.530262804638122,0.12822821391242997,1.2132214013504882e-43,-1.0801098646712632,0.005889671645265106,3.1764555888880736e-42,-0.02588104508528266,0,70,255.0,255.0,255.0
425,21.25,11.5199,0.0,-14.5843,0.12857196937030052,3.0712461858672378e-43,-1.081364966243251,0.007860546669556268,4.2556435491793476e-42,-0.024323017794227297,0,70,255.0,255.0,255.0
426,21.3,11.526337715076444,1.8997625241342387e-44,-14.63839864139747,0.1289224521792986,4.192171885775942e-43,-1.082580475916858,0.006158765690367106,2.2805925045540812e-43,-0.02429736915006302,0,70,255.0,255.0,255.0
427,21.35,11.532790827067114,3.856539860882331e-44,-14.692558026217819,0.12918784593933724,3.299305436322649e-43,-1.0837947031582573,0.0044569847111779436,-3.7995250482685313e-42,-0.02427172050589874,0,70,255.0,255.0,255.0
428,21.400000000000002,11.539255081519563,4.863435935563262e-44,-14.74677809033943,0.1293681506504164,3.9264683750735657e-44,-1.085007647967448,0.0027552037319887807,-7.827109346992473e-42,-0.024246071861734463,0,70,255.0,255.0,255.0
429,21.450000000000003,11.54572622398134,3.9135546734960205e-44,-14.801058769640695,0.12946336631253613,-4.527803910669935e-43,-1.0862193103444309,0.0010534227527996187,-1.185469364571641e-41,-0.024220423217570185,0,70,255.0,255.0,255.0
430,21.5,11.5522,0.0,-14.8554,0.12947349292569635,-1.146204680820866e-42,-1.0874296902892053,-0.000648358226390533,-1.5882277944440067e-41,-0.024194774573404132,0,70,255.0,255.0,255.0
431,21.55,11.558673279302207,-7.090010262384275e-44,-14.909801619908455,0.12946598123668954,-1.564539847177765e-42,-1.0886329445645702,0.00034789066611808105,-8.511287098356574e-43,-0.02393539644118796,0,70,255.0,255.0,255.0
432,21.6,11.565147428331079,-1.4392802702227468e-43,-14.964263078308015,0.12950828199230816,-1.2313175518044327e-42,-1.0898232299333241,0.001344139558626695,1.4180020524768753e-41,-0.023676018308971782,0,70,255.0,255.0,255.0
433,21.650000000000002,11.571624937708847,-1.8150590010878375e-43,-15.018783726753345,0.1296003951925522,-1.4653779470086933e-43,-1.0910005463954675,0.0023403884511353093,2.9211169759373165e-41,-0.02341664017675561,0,70,255.0,255.0,255.0
434,21.700000000000003,11.578108298057744,-1.4605584879685776e-43,-15.07336291679912,0.12974232083742168,1.6897994241329254e-42,-1.0921648939509998,0.003336637343643923,4.424231899397757e-41,-0.023157262044539436,0,70,255.0,255.0,255.0
435,21.75,11.5846,0.0,-15.128,0.1299340589269166,4.27769410469674e-42,-1.093316272599921,0.004332886236152467,5.927346822858091e-41,-0.022897883912325057,0,70,255.0,255.0,255.0
436,21.8,11.59110196771473,2.6460278525402858e-43,-15.182694078968709,0.13014162287395212,5.838942200133466e-42,-1.0944397458248614,0.003969671645269152,3.1764555888872146e-42,-0.022041045085292397,0,70,255.0,255.0,255.0
437,21.85,11.59761385960857,5.371467094802754e-43,-15.237443260550132,0.1303310260914435,4.595339663585466e-42,-1.0955203771084503,0.0036064570543858374,-5.292055705080649e-41,-0.02118420625825974,0,70,255.0,255.0,255.0
438,21.900000000000002,11.604134767645048,6.7738924107950245e-43,-15.2922454026472,0.1305022685793907,5.4688649505274165e-43,-1.0965581664506874,0.0032432424635025223,-1.0901756969050018e-40,-0.02032736743122708,0,70,255.0,255.0,255.0
439,21.950000000000003,11.610663783787682,5.45087848452471e-43,-15.347098363162846,0.13065535033779377,-6.306417305464706e-42,-1.097553113851573,0.002880027872619208,-1.6511458233019388e-40,-0.01947052860419442,0,70,255.0,255.0,255.0
440,22.0,11.6172,0.0,-15.402,0.13079027136665267,-1.5964571737966094e-41,-1.098505219311107,0.002516813281736141,-2.2121159496988355e-40,-0.018613689777165376,0,70,255.0,255.0,255.0
441,22.05,11.623742849838882,-9.875110383922716e-43,-15.45694846421671,0.13092752726751508,-2.1791228953356096e-41,-1.099432072135975,0.002973422752760519,-1.1854693645713214e-41,-0.018460423217550922,0,70,255.0,255.0,255.0
442,22.1,11.630293133234645,-2.0046588108988272e-42,-15.511943079491465,0.13108761364192872,-1.7150041102537428e-41,-1.100351261632862,0.0034300322237848977,1.975022076784571e-40,-0.01830715665793647,0,70,255.0,255.0,255.0
443,22.150000000000002,11.636851991710968,-2.5280510642092257e-42,-15.566983462657866,0.1312705304898936,-2.0410081855100954e-42,-1.1012627878017685,0.003886641694809276,4.068591090026275e-40,-0.018153890098322016,0,70,255.0,255.0,255.0
444,22.200000000000003,11.643420566791526,-2.034295545013025e-42,-15.62206923054951,0.13147627781140966,2.35358697977259e-41,-1.1021666506426944,0.004343251165833654,6.162160103267978e-40,-0.018000623538707565,0,70,255.0,255.0,255.0
445,22.25,11.65,0.0,-15.6772,0.1317048556064769,5.958059284716763e-41,-1.1030628501556394,0.004799860636857778,8.255729116509534e-40,-0.017847356979091344,0,70,255.0,255.0,255.0
446,22.3,11.656590632929747,3.685441368315057e-42,-15.73237526416445,0.13190826805598943,8.132597361329091e-41,-1.1039439656312313,0.003336637343643846,4.42423189939656e-41,-0.01739726204458413,0,70,255.0,255.0,255.0
447,22.35,11.663189607452855,7.481488534115032e-42,-15.787594021484011,0.1320385193408413,6.400482474656425e-41,-1.104802576360098,0.001873414050429914,-7.370882736630222e-40,-0.01694716711007692,0,70,255.0,255.0,255.0
448,22.400000000000002,11.669793265511087,9.434815015757401e-42,-15.84285514672135,0.13209560946103244,7.617146246987645e-42,-1.105638682342239,0.00041019075721598214,-1.51841886632001e-39,-0.016497072175569706,0,70,255.0,255.0,255.0
449,22.450000000000003,11.676397949046216,7.592094331599628e-42,-15.898157514639124,0.1320795384165629,-8.783706188543891e-41,-1.106452283577655,-0.0010530325359979498,-2.2997494589769978e-39,-0.016046977241062497,0,70,255.0,255.0,255.0
450,22.5,11.683,0.0,-15.9535,0.13199030620743266,-2.2235779965070444e-40,-1.1072433800663453,-0.0025162558292122217,-3.08108005163393e-39,-0.015596882306555315,0,70,255.0,255.0,255.0
451,22.55,11.689597018442129,-1.375425443486796e-41,-16.008881679125494,0.13190340050851804,-3.0351266549980756e-40,-1.1080240653391125,-0.0009599721273717112,-1.6511458233014898e-40,-0.015630528604136985,0,70,255.0,255.0,255.0
452,22.6,11.696191636953937,-2.7921295325561297e-41,-16.064302434572493,0.13189430899469548,-2.3886925788371957e-40,-1.108806432926759,0.0005963115744687993,2.7508508869736318e-39,-0.015664174901718654,0,70,255.0,255.0,255.0
453,22.650000000000002,11.702787746244681,-3.5211208998820366e-41,-16.119762350456753,0.13196303166596493,-2.8427576802440484e-41,-1.1095904828292846,0.00215259527630931,5.666816356277413e-39,-0.015697821199300323,0,70,255.0,255.0,255.0
454,22.700000000000003,11.709389237023618,-2.833408178138549e-41,-16.175261510894007,0.13210956852232641,3.2781237774402995e-40,-1.110376215046689,0.0037088789781498203,8.582781825581193e-39,-0.015731467496881993,0,70,255.0,255.0,255.0
455,22.75,11.716,0.0,-16.2308,0.1323339195637799,8.298506057556501e-40,-1.1111636295789726,0.005265162679990221,1.1498747294884767e-38,-0.015765113794460106,0,70,255.0,255.0,255.0
456,22.8,11.722622893301741,5.133157637115677e-41,-16.286377219333588,0.13257412990992637,1.1327246883859393e-39,-1.111911773012303,0.004343251165867588,6.1621601032663066e-40,-0.014160623538749539,0,70,255.0,255.0,255.0
457,22.85,11.729256644731397,1.0420369276813017e-40,-16.341989840226017,0.13276824468036666,8.914722067883138e-40,-1.1125796919328477,0.003421339651744955,-1.0266315274231506e-38,-0.012556133283038971,0,70,255.0,255.0,255.0
458,22.900000000000002,11.735898949510183,1.3141002097952408e-40,-16.39763385145166,0.13291626387510086,1.0609316096277423e-40,-1.1131673863406069,0.002499428137622322,-2.1148846558789642e-38,-0.010951643027328404,0,70,255.0,255.0,255.0
459,22.950000000000003,11.742547502859312,1.0574423279394234e-40,-16.453305241784868,0.13301818749412891,-1.2234124490906804e-39,-1.1136748562355805,0.0015775166234996895,-3.203137784334778e-38,-0.009347152771617837,0,70,255.0,255.0,255.0
460,23.0,11.7492,0.0,-16.509,0.13307401553745085,-3.097044623371896e-39,-1.1141021016177686,0.0006556051093764559,-4.2913909127905124e-38,-0.007742662515907384,0,70,255.0,255.0,255.0
461,23.05,11.755854608350907,-1.9157205104975915e-40,-16.56471504354017,0.1331120798517852,-4.227386088043949e-39,-1.1145048426116932,0.0008669674639970844,-2.299749458976373e-39,-0.008366977241081139,0,70,255.0,255.0,255.0
462,23.1,11.762511384120476,-3.888934757469593e-40,-16.620451004523442,0.13316071228385057,-3.327019569269535e-39,-1.1149387993418767,0.001078329818617713,3.831441020995238e-38,-0.008991291966254896,0,70,255.0,255.0,255.0
463,23.150000000000002,11.769170855714586,-4.9042887491927585e-40,-16.67620944373663,0.13321991283364695,-3.959450670486555e-40,-1.1154039718083186,0.0012896921732383417,7.892856987888115e-38,-0.009615606691428651,0,70,255.0,255.0,255.0
464,23.200000000000003,11.775833551539135,-3.946428493943838e-40,-16.731991921966546,0.1332896815011744,4.5658374186186906e-39,-1.1159003600110196,0.0015010545278589702,1.1954272954780989e-37,-0.010239921416602406,0,70,255.0,255.0,255.0
465,23.25,11.7825,0.0,-16.7878,0.13337001828643283,1.1558327887731933e-38,-1.1164279639499792,0.0017124168824789177,1.6015688921673572e-37,-0.010864236141777894,0,70,255.0,255.0,255.0
466,23.3,11.789170673294631,7.149566278278798e-40,-16.84363460650574,0.13345755068294696,1.5776819663789857e-38,-1.1169488565409436,0.001788878978085996,8.582781825578852e-39,-0.009971467496791307,0,70,255.0,255.0,255.0
467,23.35,11.79584581878671,1.4513702102197072e-39,-16.899494141680226,0.13354890618424142,1.2416606070289827e-38,-1.1174251106996584,0.0018653410736930742,-1.4299132556557801e-37,-0.00907869885180472,0,70,255.0,255.0,255.0
468,23.400000000000002,11.80252562763147,1.8303054786975797e-39,-16.955376373601837,0.13364408479031625,1.4776871072318496e-39,-1.117856726426124,0.0019418031693001524,-2.945654329567349e-37,-0.008185930206818133,0,70,255.0,255.0,255.0
469,23.450000000000003,11.809210290984154,1.472827164783593e-39,-17.01127907034897,0.13374308650117145,-1.7039937225384074e-38,-1.11824370372034,0.0020182652649072307,-4.461395403478918e-37,-0.007293161561831545,0,70,255.0,255.0,255.0
470,23.5,11.8159,0.0,-17.0672,0.13384591131680695,-4.3136266927555834e-38,-1.1185860425823069,0.0020947273605140815,-5.977136477390379e-37,-0.006400392916846798,0,70,255.0,255.0,255.0
471,23.55,11.822594698470569,-2.6682544602617595e-39,-17.123136930436868,0.13393771741640817,-5.887989256711548e-38,-1.1188837312245206,0.0015775166235338848,-3.203137784333917e-38,-0.005507152771696498,0,70,255.0,255.0,255.0
472,23.6,11.829293340732692,-5.4165873651318694e-39,-17.179087628755664,0.13400366297916033,-4.63394047118898e-38,-1.1191367578594766,0.0010603058865536882,5.336508920523595e-37,-0.004613912626546198,0,70,255.0,255.0,255.0
473,23.650000000000002,11.835994633759537,-6.830793039871044e-39,-17.23504986185603,0.13404374800506352,-5.5148033618787466e-39,-1.1193451224871749,0.0005430951495734916,1.0993331619480585e-36,-0.003720672481395899,0,70,255.0,255.0,255.0
474,23.700000000000003,11.842697284524252,-5.4966658097399894e-39,-17.291021396637596,0.13405797249411772,6.359391148291762e-38,-1.119508825107616,2.5884412593294923e-05,1.665015431843757e-36,-0.002827432336245599,0,70,255.0,255.0,255.0
475,23.75,11.8494,0.0,-17.347,0.13404633644632286,1.609867398224914e-37,-1.1196278657207999,-0.0004913263243859767,2.230697701739416e-36,-0.001934192191090034,0,70,255.0,255.0,255.0
476,23.8,11.856101732823099,9.95806121321916e-39,-17.40298407174679,0.13402357965141065,2.197427506046721e-37,-1.1197402185609908,-0.00041894547210246,1.1954272954777744e-37,-0.0025599214165502905,0,70,255.0,255.0,255.0
477,23.85,11.862802418282518,2.021497925030777e-38,-17.458974543297124,0.1340044418991126,1.7294101277726934e-37,-1.119883857862455,-0.0003465646198189433,-1.991612242643861e-36,-0.003185650642010547,0,70,255.0,255.0,255.0
478,23.900000000000002,11.869502237330385,2.5492866680786583e-38,-17.51497297897406,0.13398892318942876,2.058152634028321e-38,-1.1200587836251918,-0.0002741837675354266,-4.102767214835499e-36,-0.0038113798674708032,0,70,255.0,255.0,255.0
479,23.950000000000003,11.876201370918837,2.0513836074176363e-38,-17.57098094310067,0.13397702352235907,-2.3733570870628654e-37,-1.120264995849202,-0.00020180291525190996,-6.213922187027139e-36,-0.00443710909293106,0,70,255.0,255.0,255.0
480,24.0,11.8829,0.0,-17.627,0.13396874289790356,-6.008106923624098e-37,-1.1205024945344848,-0.0001294220629692866,-8.325077159218627e-36,-0.005062838318389495,0,70,255.0,255.0,255.0
481,24.05,11.889598370237035,-3.716399039261488e-38,-17.683030782575976,0.13396796397795124,-8.200911098515727e-37,-1.1207153945314907,9.82652648768433e-05,-4.461395403477727e-37,-0.0034531615618415886,0,70,255.0,255.0,255.0
482,24.1,11.896296986137234,-7.544332963609921e-38,-17.739070198055853,0.13397856942439124,-6.454246463971874e-37,-1.120847810690669,0.0003259525927229732,7.432798078523081e-36,-0.0018434848052936814,0,70,255.0,255.0,255.0
483,24.150000000000002,11.902996416918914,-9.514067368327533e-38,-17.795114222247747,0.13400055923722357,-7.681130199925403e-38,-1.1208997430120198,0.0005536399205691031,1.5311735697393937e-35,-0.0002338080487457742,0,70,255.0,255.0,255.0
484,24.200000000000003,11.909697231800399,-7.655867848696551e-38,-17.851158830959758,0.13403393341644815,8.857489233422282e-37,-1.1208711914955436,0.000781327248415233,2.319067331626479e-35,0.0013758687078021326,0,70,255.0,255.0,255.0
485,24.25,11.9164,0.0,-17.9072,0.13407869196206504,2.2422560296271478e-36,-1.1207621561412398,0.0010090145762606806,3.106961093513508e-35,0.0029855454643499257,0,70,255.0,255.0,255.0
486,24.3,11.923104786228755,1.3869790035724036e-37,-17.963234397949314,0.13410456443678642,3.060621688801619e-36,-1.1206142033130393,2.5884412593710172e-05,1.6650154318433052e-36,0.0029325676636734236,0,70,255.0,255.0,255.0
487,24.35,11.929809637168544,2.815583392940891e-37,-18.01926146447947,0.1340812804033244,2.4087575728114802e-36,-1.1204688993748726,-0.0009572457510732602,-2.773958007144847e-35,0.0028795898629969214,0,70,255.0,255.0,255.0
488,24.400000000000002,11.936512094993951,3.550698280523147e-37,-18.075281332034972,0.13400883986167908,2.866636816567324e-37,-1.1203262443267394,-0.0019403759147402309,-5.714417557474024e-35,0.0028266120623204193,0,70,255.0,255.0,255.0
489,24.450000000000003,11.943209701879573,2.8572087787368556e-37,-18.131294133060315,0.1338872428118504,-3.305659984662626e-36,-1.1201862381686403,-0.002923506078407201,-8.654877107803202e-35,0.002773634261643917,0,70,255.0,255.0,255.0
490,24.5,11.9499,0.0,-18.1873,0.1337164892538384,-8.36821342614618e-36,-1.1200488809005749,-0.00390663624207388,-1.1595336658132174e-34,0.0027206564609691952,0,70,255.0,255.0,255.0
491,24.55,11.956581684847944,-5.176276110363464e-37,-18.24329882562677,0.13356577827490537,-1.1422395645354903e-35,-1.119899792216371,-0.0021218029152476805,-6.213922187025457e-36,0.00324289090718893,0,70,255.0,255.0,255.0
492,24.6,11.963258065188596,-1.0507900275402571e-36,-18.299289544026266,0.1335043089623136,-8.989605644848734e-36,-1.119724591809856,-0.00033696958842148114,1.0352552220727083e-34,0.003765125353408664,0,70,255.0,255.0,255.0
493,24.650000000000002,11.96993360310528,-1.3251386385259835e-36,-18.355270849612385,0.13353208131606317,-1.0698434246276746e-36,-1.11952327968103,0.0014478637384047182,2.132649666015671e-34,0.004287359799628398,0,70,255.0,255.0,255.0
494,24.700000000000003,11.976612760681308,-1.066324833007777e-36,-18.411241436799,0.1336490953361541,1.2336891015308278e-35,-1.119295855829893,0.0032326970652309175,3.230044109958634e-34,0.004809594245848133,0,70,255.0,255.0,255.0
495,24.75,11.9833,0.0,-18.4672,0.1338553510225863,3.1230597674957576e-35,-1.1190423202564455,0.005017530392057656,4.327438553901517e-34,0.005331828692055396,0,70,255.0,255.0,255.0
496,24.8,11.989998074379477,1.9318125437881457e-36,-18.523145499543617,0.13404832246359802,4.262896089261799e-35,-1.118778627821451,0.0027013272484104015,2.3190673316258584e-35,0.005215868707720615,0,70,255.0,255.0,255.0
497,24.85,11.996702902077073,3.92160177086694e-36,-18.579077959415464,0.13412548374742736,3.3549665006583454e-35,-1.1185207333856735,0.00038512410476314665,-3.863625087576346e-34,0.005099908723385834,0,70,255.0,255.0,255.0
498,24.900000000000002,12.003408692584934,4.9454847260516184e-36,-18.634997669515506,0.13408683487407433,3.992710016853973e-36,-1.1182686369491124,-0.0019310790388841082,-7.959156908315279e-34,0.004983948739051053,0,70,255.0,255.0,255.0
499,24.950000000000003,12.010109655395196,3.979578454157423e-36,-18.690904919743698,0.13393237584353893,-4.6041904076570476e-35,-1.1180223385117682,-0.004247282182531363,-1.2054688729054209e-33,0.004867988754716272,0,70,255.0,255.0,255.0
500,25.0,12.0168,0.0,-18.7468,0.13366210665582123,-1.1655417727368412e-34,-1.117781838073641,-0.006563485326178231,-1.6150220549792853e-33,0.004752028770372618,0,70,255.0,255.0,255.0
501,25.05,12.023475617634155,-7.209622564116237e-36,-18.802682376198767,0.1333769318707067,-1.5909344792511705e-34,-1.117497696497841,-0.004843506078402601,-8.654877107800873e-35,0.006613634261636773,0,70,255.0,255.0,255.0
502,25.1,12.03013912650311,-1.46356170559275e-35,-18.858548218311878,0.13317775604798096,-1.252090543814851e-34,-1.1171204746474774,-0.0031235268306269723,1.4419245128232679e-33,0.008475239752900928,0,70,255.0,255.0,255.0
503,25.150000000000002,12.036794826554992,-1.845680026568049e-35,-18.914392872325607,0.133064579187644,-1.4900996642788248e-35,-1.1166501725225506,-0.0014035475828513434,2.9703977967245443e-33,0.010336845244165085,0,70,255.0,255.0,255.0
504,25.200000000000003,12.043447017737915,-1.485198898362191e-35,-18.970211684226225,0.13303740128969585,1.718307252909736e-34,-1.116086790123061,0.00031643166492428647,4.498871080625821e-33,0.01219845073542924,0,70,255.0,255.0,255.0
505,25.25,12.0501,0.0,-19.026,0.13309622235413643,4.349861114197789e-34,-1.115430327449008,0.002036410912699793,6.027344364526989e-33,0.014060056226687934,0,70,255.0,255.0,255.0
506,25.3,12.056757055083914,2.69066777126768e-35,-19.081754595661327,0.13317995005358396,5.937448308078502e-34,-1.1147665861871936,0.0013126970652015298,3.2300441099577564e-34,0.012489594245893066,0,70,255.0,255.0,255.0
507,25.35,12.063417391910486,5.462086645284306e-35,-19.137477967337038,0.1332274920606566,4.672865525193569e-34,-1.1141813680244188,0.0005889832177032666,-5.381335542535438e-33,0.010919132265098197,0,70,255.0,255.0,255.0
508,25.400000000000002,12.070079201195105,6.888171633667036e-35,-19.19317404118209,0.1332388483753543,5.561127655429873e-35,-1.1136746729606837,-0.00013473062979499654,-1.1085675496066651e-32,0.009348670284303327,0,70,255.0,255.0,255.0
509,25.450000000000003,12.076740673653148,5.542837748033018e-35,-19.24884674335143,0.1332140189976771,-6.41280997087324e-34,-1.1132465009959884,-0.0008584444772932599,-1.6790015449597865e-32,0.00777820830350846,0,70,255.0,255.0,255.0
510,25.5,12.0834,0.0,-19.3045,0.13315300392762497,-1.6233902684054314e-33,-1.1128968521303328,-0.0015821583247914717,-2.249435540312867e-32,0.006207746322717256,0,70,255.0,255.0,255.0
511,25.55,12.090055362030201,-1.0041708828659095e-34,-19.360136041155936,0.13305526791494265,-2.215885875306284e-33,-1.1125239587533973,-0.0023272821825013885,-1.205468872905096e-33,0.008707988754705234,0,70,255.0,255.0,255.0
512,25.6,12.096704905854947,-2.038478487554447e-34,-19.41575031233998,0.1329202757093748,-1.7439371556959427e-33,-1.1120260532548623,-0.0030724060402113054,2.0083417657318477e-32,0.011208231186693212,0,70,255.0,255.0,255.0
513,25.650000000000002,12.10334676866459,-2.5707006508100084e-34,-19.47133656294606,0.1327480273109215,-2.0754410957440758e-34,-1.111403135634728,-0.003817529897921222,4.137230418754205e-32,0.013708473618681188,0,70,255.0,255.0,255.0
514,25.700000000000003,12.10997908764949,-2.068615209376988e-34,-19.526888542368095,0.13253852271958272,2.3932932630583213e-33,-1.1106552058929942,-0.004562653755631139,6.266119071776562e-32,0.016208716050669168,0,70,255.0,255.0,255.0
515,25.75,12.1166,0.0,-19.5824,0.1322917619353584,6.0585749622019465e-33,-1.109782264029661,-0.005307777613341003,8.395007724798768e-32,0.018708958482656968,0,70,255.0,255.0,255.0
516,25.8,12.123208696795285,3.74761675433687e-34,-19.637866039714943,0.1320709782866482,8.269798670417285e-33,-1.1088655787992094,-0.0035235683350668366,4.498871080624602e-33,0.01795845073541179,0,70,255.0,255.0,255.0
517,25.85,12.12980858466973,7.607705285689358e-34,-19.693287183303045,0.1319394051018517,6.508462070264415e-33,-1.1079864189561197,-0.001739359056792671,-7.495233508673848e-32,0.017207942988166615,0,70,255.0,255.0,255.0
518,25.900000000000002,12.136404124146535,9.593985439873332e-34,-19.74866530703368,0.13189704238096894,7.745651617433297e-34,-1.1071447845003926,4.485022148149453e-05,-1.5440354125410156e-31,0.01645743524092144,0,70,255.0,255.0,255.0
519,25.950000000000003,12.142999775748892,7.720177062704652e-34,-19.804002287176207,0.13194389012399987,-8.93189205514596e-33,-1.1063406754320277,0.0018290594997556605,-2.3385474742146465e-31,0.015706927493676262,0,70,255.0,255.0,255.0
520,26.0,12.1496,0.0,-19.8593,0.1320799483309445,-2.2610909580402354e-32,-1.105574091751025,0.003613268778029255,-3.133059535888221e-31,0.014956419746431138,0,70,255.0,255.0,255.0
521,26.05,12.156207450788663,-1.3986296134481571e-33,-19.914559799984303,0.13219681893846277,-3.086330880636285e-32,-1.104813726049777,0.0010615555227020926,-1.6790015449593286e-32,0.015458208303492078,0,70,255.0,255.0,255.0
522,26.1,12.162817555466134,-2.8392342655202986e-33,-19.96978095444785,0.13218610388321472,-2.42899111253617e-32,-1.104028270920676,-0.0014901577326250698,2.797259226896355e-31,0.01595999686055302,0,70,255.0,255.0,255.0
523,26.150000000000002,12.169423934749272,-3.5805241108683316e-33,-20.02496220891924,0.1320478031652003,-2.8907165373989037e-33,-1.1032177263637215,-0.004041870987952232,5.762418608288643e-31,0.01646178541761396,0,70,255.0,255.0,255.0
524,26.200000000000003,12.176020209354942,-2.8812093041441632e-33,-20.080102308927092,0.1317819167844195,3.3334274957525543e-32,-1.1023820923789145,-0.0065935842432793944,8.727577989680932e-31,0.016963573974674902,0,70,255.0,255.0,255.0
525,26.25,12.1826,0.0,-20.1352,0.13138844474087236,8.438506335940747e-32,-1.101521368966254,-0.009145297498605931,1.1692737371073003e-30,0.017465362531744688,0,70,255.0,255.0,255.0
526,26.3,12.189159100050064,5.219756778358941e-33,-20.190253960347853,0.1309977459595157,1.151834365550341e-31,-1.1006315170016918,-0.006482653755660424,6.266119071774857e-32,0.01812871605073526,0,70,255.0,255.0,255.0
527,26.35,12.195701993465738,1.0596166533512259e-32,-20.245262598905573,0.1307401793653063,9.06511824311824e-32,-1.0997084973611804,-0.0038200100127149163,-1.0439513556718032e-30,0.01879206956972583,0,70,255.0,255.0,255.0
528,26.400000000000002,12.202235336856381,1.3362697899485993e-32,-20.300224257289376,0.13061574495824418,1.0788300987852258e-32,-1.0987523100447192,-0.0011573662697694082,-2.1505639020613555e-30,0.019455423088716402,0,70,255.0,255.0,255.0
529,26.450000000000003,12.20876578683135,1.0752819510306186e-32,-20.355137277115446,0.13062444273832938,-1.2440520777495622e-31,-1.097762955052309,0.0015052774731760983,-3.257176448450907e-30,0.020118776607706973,0,70,255.0,255.0,255.0
530,26.5,12.2153,0.0,-20.41,0.1307662727055618,-3.149293438572275e-31,-1.0967404323839487,0.004167921216121417,-4.363788994840381e-30,0.02078213012670105,0,70,255.0,255.0,255.0
531,26.55,12.221842549011082,-1.9480397499987607e-32,-20.464810758624303,0.1309161972234587,-4.298704374137737e-31,-1.0956842059434395,0.001829059499755259,-2.33854747421402e-31,0.021466927493662535,0,70,255.0,255.0,255.0
532,26.6,12.228389670670914,-3.9545431868528726e-32,-20.519567849929874,0.13094917865553732,-3.3831481859936794e-31,-1.0945937396345824,-0.0005098022166108995,3.896079499997577e-30,0.02215172486062402,0,70,255.0,255.0,255.0
533,26.650000000000002,12.234935517825205,-4.987026748707565e-32,-20.57426956192329,0.13086521700179762,-4.026248741401051e-32,-1.0934690334573771,-0.002848663932977058,8.026013747416556e-30,0.022836522227585504,0,70,255.0,255.0,255.0
534,26.700000000000003,12.241474243319665,-4.0130068737080567e-32,-20.62891418261114,0.13066431226223962,4.642865561422993e-31,-1.092310087411824,-0.0051875256493432165,1.2155947994835536e-29,0.02352131959454699,0,70,255.0,255.0,255.0
535,26.75,12.248,0.0,-20.6835,0.13034646443686332,1.1753323120695026e-30,-1.0911169014979225,-0.0075263873657096525,1.6285882242254217e-29,0.024206116961519086,0,70,255.0,255.0,255.0
536,26.8,12.254508303905602,7.270183322159148e-32,-20.73802540515494,0.12999346514664029,1.6042983131000605e-30,-1.0898956592245197,-0.006593584243211024,8.727577989678557e-31,0.02464357397459694,0,70,255.0,255.0,255.0
537,26.85,12.2610001238506,1.4758556094060263e-31,-20.79248920137494,0.1296871060125422,1.2626080919662889e-30,-1.0886525441004626,-0.005660781120712395,-1.4540366644318506e-29,0.025081030987674793,0,70,255.0,255.0,255.0
538,26.900000000000002,12.267477791842794,1.8611837204881651e-31,-20.846890295017474,0.12942738703456905,1.5026164866818878e-31,-1.087387556125752,-0.004727977998213766,-2.995349108760487e-29,0.025518488000752643,0,70,255.0,255.0,255.0
539,26.950000000000003,12.27394363988999,1.4976745543801609e-31,-20.90122759244001,0.12921430821272084,-1.7327410167942408e-30,-1.0861006953003876,-0.0037951748757151372,-4.536661553089123e-29,0.025955945013830497,0,70,255.0,255.0,255.0
540,27.0,12.2804,0.0,-20.9555,0.12904786954699754,-4.386399904420783e-30,-1.0847919616243689,-0.002862371753216131,-6.077973997417651e-29,0.026393402026913648,0,70,255.0,255.0,255.0
541,27.05,12.286849035366503,-2.7132693538637835e-31,-21.009706820755945,0.12891794218999506,-5.987322814986469e-30,-1.083485157158502,-0.002334722526883041,-3.2571764484500285e-30,0.02587877660776207,0,70,255.0,255.0,255.0
542,27.1,12.293292233926687,-5.507968118938819e-31,-21.06384894457037,0.12881439729430924,-4.71211754926579e-30,-1.0822040839635927,-0.0018070733005499512,5.426538707727645e-29,0.025364151188610493,0,70,255.0,255.0,255.0
543,27.150000000000002,12.299730914803622,-6.946032207081906e-31,-21.117927658006824,0.12873723485994007,-5.607841072587455e-31,-1.0809487420396409,-0.0012794240742168613,1.1178795060300293e-28,0.024849525769458914,0,70,255.0,255.0,255.0
544,27.200000000000003,12.306166397120371,-5.58939753014984e-31,-21.17194424762885,0.12868645488688754,6.466677511034661e-30,-1.0797191313866468,-0.0007517748478837716,1.693105141287294e-28,0.024334900350307335,0,70,255.0,255.0,255.0
545,27.25,12.3126,0.0,-21.2259,0.1286620573751517,1.6370267305613627e-29,-1.07851525200461,-0.0002241256215509413,2.268330776544517e-28,0.023820274931161123,0,70,255.0,255.0,255.0
546,27.3,12.319032354628387,1.0126059083239215e-30,-21.27979531182129,0.12862276609337914,2.2344992946845812e-29,-1.0772837121414673,-0.001347525649352537,1.2155947994832239e-29,0.025441319594546763,0,70,255.0,255.0,255.0
547,27.35,12.325461340442647,2.0556016866349245e-30,-21.333627020343595,0.12852730481021646,1.7585862105096868e-29,-1.0759711200451554,-0.002470925677154133,-2.0252118166478723e-28,0.027062364257932403,0,70,255.0,255.0,255.0
548,27.400000000000002,12.331884148942718,2.5922945107839453e-30,-21.387391072955253,0.1283756735256637,2.0928747803668e-30,-1.074577475715674,-0.003594325704955729,-4.1719831132440675e-28,0.028683408921318047,0,70,255.0,255.0,255.0
549,27.450000000000003,12.338297971628526,2.0859915566219193e-30,-21.44108341704461,0.12816787223972087,-2.4133969027344404e-29,-1.0731027791530234,-0.004717725732757324,-6.318754409840262e-28,0.030304453584703687,0,70,255.0,255.0,255.0
550,27.5,12.3447,0.0,-21.4947,0.12790390095238796,-6.109466931803372e-29,-1.0715470303572037,-0.005841125760559063,-8.465525706436304e-28,0.031925498248092765,0,70,255.0,255.0,255.0
