idx,t,px,py,pz,vx,vy,vz,ax,ay,az,yaw,mode,ledr,ledg,ledb
0,0.0,4.5,0.0,0.0,5.521290224241259e-20,-2.6658671324275963e-87,0.017974594246339348,-6.62554826908951e-19,3.1990405589131158e-86,-0.5084951309560722,0,70,255.0,255.0,255.0
1,0.05,4.5,-9.597121676739347e-89,0.00026468539286821644,2.5397935031509794e-20,-1.2262988809166942e-87,-0.007355686646683905,-5.300438615271609e-19,2.5592324471304926e-86,-0.5047161047648578,0,70,255.0,255.0,255.0
2,0.1,4.5,-1.2796162235652458e-88,-0.0007324194761757119,2.2085160896965074e-21,-1.0663468529710345e-88,-0.03249701623014644,-3.975328961453706e-19,1.9194243353478693e-86,-0.5009370785736433,0,70,255.0,255.0,255.0
3,0.15000000000000002,4.5,-1.1196641956195904e-88,-0.002981867041653749,-1.435535458302727e-20,6.931254544311755e-88,-0.05744939450404825,-2.650219307635804e-19,1.2796162235652461e-86,-0.49715805238242894,0,70,255.0,255.0,255.0
4,0.2,4.5,-6.398081117826219e-89,-0.006474209738087858,-2.429367698666153e-20,1.172981538268143e-87,-0.08221282146838933,-1.325109653817902e-19,6.398081117826229e-87,-0.4933790261912145,0,70,255.0,255.0,255.0
5,0.25,4.5,0.0,-0.0112,-2.7606451121206296e-20,1.3329335662137982e-87,-0.10678729712316967,0.0,0.0,-0.4895999999999998,0,70,255.0,255.0,255.0
6,0.30000000000000004,4.5,6.398081117826236e-89,-0.01714979026191215,-2.4293676986661536e-20,1.172981538268142e-87,-0.13117282146838932,1.3251096538179033e-19,-6.398081117826238e-87,-0.4858209738087854,0,70,255.0,255.0,255.0
7,0.35000000000000003,4.5,1.1196641956195907e-88,-0.024314132958346255,-1.4355354583027263e-20,6.931254544311746e-88,-0.15536939450404824,2.6502193076358052e-19,-1.2796162235652468e-86,-0.4820419476175711,0,70,255.0,255.0,255.0
8,0.4,4.5,1.2796162235652463e-88,-0.032683580523824286,2.2085160896965104e-21,-1.0663468529710423e-88,-0.1793770162301464,3.9753289614537067e-19,-1.9194243353478697e-86,-0.4782629214263567,0,70,255.0,255.0,255.0
9,0.45,4.5,9.597121676739343e-89,-0.04224868539286821,2.5397935031509797e-20,-1.2262988809166948e-87,-0.20319568664668392,5.300438615271609e-19,-2.559232447130493e-86,-0.47448389523514234,0,70,255.0,255.0,255.0
10,0.5,4.5,0.0,-0.053,5.521290224241259e-20,-2.6658671324275963e-87,-0.22682540575366067,6.625548269089513e-19,-3.199040558913116e-86,-0.4707048690439266,0,70,255.0,255.0,255.0
11,0.55,4.5,-1.5995202794565592e-88,-0.06492632434521964,7.177677291513638e-20,-3.4656272721558754e-87,-0.2501610274797589,-4.81482486096809e-34,2.8574684782056875e-101,-0.4627199999999996,0,70,255.0,255.0,255.0
12,0.6000000000000001,4.5,-3.199040558913118e-88,-0.0780094486904393,5.521290224241256e-20,-2.6658671324275937e-87,-0.27309740575366065,-6.625548269089523e-19,3.199040558913122e-86,-0.45473513095607254,0,70,255.0,255.0,255.0
13,0.65,4.5,-3.998800698641395e-88,-0.0922294108630491,5.521290224241246e-21,-2.6658671324275745e-88,-0.2956345405753661,-1.3251096538179029e-18,6.398081117826233e-86,-0.4467502619121455,0,70,255.0,255.0,255.0
14,0.7000000000000001,4.5,-3.1990405589131135e-88,-0.10756624869043929,-7.729806313937778e-20,3.7322139853986435e-87,-0.3177724319448752,-1.9876644807268545e-18,9.597121676739352e-86,-0.4387653928682185,0,70,255.0,255.0,255.0
15,0.75,4.5,0.0,-0.124,-1.9324515784844409e-19,9.330534963496587e-87,-0.3395110798621879,-2.650219307635805e-18,1.2796162235652465e-85,-0.43078052382429144,0,70,255.0,255.0,255.0
16,0.8,4.5,5.758273006043615e-88,-0.1415121123572093,-2.62813414673884e-19,1.268952755035536e-86,-0.3609350686125756,-1.3251096538178817e-19,6.398081117826136e-87,-0.4261790261912144,0,70,255.0,255.0,255.0
17,0.8500000000000001,4.5,1.1676498040032883e-87,-0.16008967227989668,-2.0649625438662296e-19,9.970343075279202e-87,-0.3821289824813094,2.3851973768722286e-18,-1.1516546012087237e-85,-0.42157752855813735,0,70,255.0,255.0,255.0
18,0.9,4.5,1.4715586571000336e-87,-0.17972117602397936,-2.429367698666153e-20,1.1729815382681385e-87,-0.4030928214683893,4.90290571912624e-18,-2.3672900135957064e-85,-0.4169760309250603,0,70,255.0,255.0,255.0
19,0.9500000000000001,4.5,1.1836450067978514e-87,-0.20039511984537475,2.837943175260013e-19,-1.3702557060677878e-86,-0.4238265855738154,7.420614061380256e-18,-3.5829254259826915e-85,-0.41237453329198326,0,70,255.0,255.0,255.0
20,1.0,4.5,0.0,-0.2221,7.177677291513637e-19,-3.4656272721558754e-86,-0.44433027479758763,9.93832240363427e-18,-4.798560838369674e-85,-0.4077730356589071,0,70,255.0,255.0,255.0
21,1.05,4.5,-2.14335717447179e-87,-0.24482282622594312,9.794768857803998e-19,-4.7292482929265566e-86,-0.46451469806993884,5.300438615271542e-19,-2.55923244713046e-86,-0.39960389523514184,0,70,255.0,255.0,255.0
22,1.1,4.5,-4.35069516012184e-87,-0.26854466218997414,7.707721153040793e-19,-3.721550516868923e-86,-0.48429066432110185,-8.878234680579962e-18,4.286714348943582e-85,-0.39143475481137663,0,70,255.0,255.0,255.0
23,1.1500000000000001,4.5,-5.486354558535995e-87,-0.2932450850410336,9.165341772240235e-20,-4.425339439829693e-87,-0.5036581735510766,-1.8286513222687083e-17,8.829351942600211e-85,-0.38326561438761136,0,70,255.0,255.0,255.0
24,1.2000000000000002,4.5,-4.414675971300092e-87,-0.31890367192806196,-1.0578792069646302e-18,5.107801425731294e-86,-0.522617225759863,-2.7694791764794196e-17,1.3371989536256838e-84,-0.3750964739638461,0,70,255.0,255.0,255.0
25,1.25,4.5,0.0,-0.3455,-2.677825758757011e-18,1.2929455592273844e-85,-0.5411678209474611,-3.710307030690126e-17,1.7914627129913447e-84,-0.3669273335400778,0,70,255.0,255.0,255.0
26,1.3,4.5,7.9976013972827975e-87,-0.37301498273901823,-3.655094128447714e-18,1.764804041667069e-85,-0.5593901391076685,-1.9876644807268156e-18,9.597121676739214e-86,-0.3619653928682183,0,70,255.0,255.0,255.0
27,1.35,4.5,1.623513083648408e-86,-0.401434878960207,-2.8765922068296934e-18,1.3889167759947766e-85,-0.577364360234283,3.312774134544763e-17,-1.5995202794565604e-84,-0.3570034521963588,0,70,255.0,255.0,255.0
28,1.4000000000000001,4.5,2.047385957704394e-86,-0.4307472838118867,-3.423199939029491e-19,1.652837622105067e-86,-0.5950904843273045,6.824314717162207e-17,-3.2950117756805134e-84,-0.35204151152449936,0,70,255.0,255.0,255.0
29,1.4500000000000002,4.5,1.6475058878402518e-86,-0.4609397924423776,3.947722510332517e-18,-1.906094999685739e-85,-0.6125685113867329,1.0335855299779652e-16,-4.990503271904465e-84,-0.3470795708526399,0,70,255.0,255.0,255.0
30,1.5,4.5,0.0,-0.492,9.99353530587668e-18,-4.82521950969395e-85,-0.6297984414125684,1.3847395882397078e-16,-6.685994768128414e-84,-0.34211763018078045,0,70,255.0,255.0,255.0
31,1.55,4.5,-2.9847048414659405e-86,-0.5239148428179841,1.3640899628010455e-17,-6.586291337375621e-85,-0.6467407454993875,7.420614061380107e-18,-3.582925425982644e-85,-0.3355745332919852,0,70,255.0,255.0,255.0
32,1.6,4.5,-6.0589828185814475e-86,-0.5566686219691981,1.0735596712014692e-17,-5.183512052292215e-85,-0.6633558947417669,-1.2363273070121057e-16,5.9694096829318855e-84,-0.32903143640319,0,70,255.0,255.0,255.0
33,1.6500000000000001,4.5,-7.64090837496398e-86,-0.5902449797114201,1.2776265578893868e-18,-6.168816544437314e-86,-0.6796438891397065,-2.546860754638012e-16,1.2297111908462033e-83,-0.32248833951439476,0,70,255.0,255.0,255.0
34,1.7000000000000002,4.5,-6.148555954230999e-86,-0.6246275583024282,-1.4733010834365454e-17,7.113599856169832e-85,-0.6956047286932063,-3.8573942022639193e-16,1.8624814133992187e-83,-0.31594524262559953,0,70,255.0,255.0,255.0
35,1.75,4.5,0.0,-0.6598,-3.729631546474971e-17,1.8007932479548416e-84,-0.7112384134022665,-5.167927649889817e-16,2.4952516359522303e-83,-0.30940214573680436,0,70,255.0,255.0,255.0
36,1.8,4.5,1.1139059226135482e-85,-0.6957456459890456,-5.0908504383594106e-17,2.4580361307835413e-84,-0.7265268788947826,-2.7694791764793654e-17,1.337198953625659e-84,-0.30213647396384147,0,70,255.0,255.0,255.0
37,1.85,4.5,2.261241819067738e-85,-0.732446633163001,-4.0065794641229076e-17,1.9345131433174079e-84,-0.7414520607986507,4.614031814593944e-16,-2.2278118452270985e-83,-0.2948708021908786,0,70,255.0,255.0,255.0
38,1.9000000000000001,4.5,2.851624754215152e-85,-0.7698847973424333,-4.768186237654618e-18,2.302242855564407e-85,-0.7560139591138706,9.505011546835827e-16,-4.5893435858167626e-83,-0.2876051304179157,0,70,255.0,255.0,255.0
39,1.9500000000000002,4.5,2.2946717929083742e-85,-0.8080419743479105,5.498432082712928e-17,-2.6548304424993575e-84,-0.7702125738404422,1.4395991279077706e-15,-6.950875326406427e-83,-0.2803394586449528,0,70,255.0,255.0,255.0
40,2.0,4.5,0.0,-0.8469,1.3919172655312215e-16,-6.720651040849972e-84,-0.7840479049783657,1.9286971011319567e-15,-9.312407066996082e-83,-0.27307378687199346,0,70,255.0,255.0,255.0
41,2.0500000000000003,4.5,-4.1571532063076194e-85,-0.8864417732258336,1.89993117906366e-16,-9.173515389396606e-84,-0.7975837389214817,1.0335855299778665e-16,-4.9905032719039925e-84,-0.2683595708526404,0,70,255.0,255.0,255.0
42,2.1,4.5,-8.439068994412807e-85,-0.9266544453787988,1.4952758185290164e-16,-7.219701368040411e-84,-0.8108838620636298,-1.7219799951363677e-15,8.314306412615204e-83,-0.2636453548332874,0,70,255.0,255.0,255.0
43,2.15,4.5,-1.0642408179364209e-84,-0.967526230918847,1.779511839272988e-17,-8.592089767814278e-85,-0.8239482744048103,-3.5473185432705208e-15,1.7127663152420808e-82,-0.2589311388139343,0,70,255.0,255.0,255.0
44,2.2,4.5,-8.563831576210395e-85,-1.0090453443059304,-2.0520427247415157e-16,9.907961784380452e-84,-0.8367769759450232,-5.372657091404692e-15,2.594101989222649e-82,-0.25421692279458125,0,70,255.0,255.0,255.0
45,2.25,4.5,0.0,-1.0512,-5.194705907477389e-16,2.5081810915445048e-83,-0.8493699666842685,-7.197995639538846e-15,3.4754376632032106e-82,-0.2495027067752229,0,70,255.0,255.0,255.0
46,2.3000000000000003,4.5,1.5514706902616924e-84,-1.0939768611076202,-7.0906396724187e-16,3.423602542680289e-83,-0.861634165419289,-3.857394202263565e-16,1.8624814133990446e-83,-0.24106524262560067,0,70,255.0,255.0,255.0
47,2.35,4.5,3.14950341585835e-84,-1.1373563853218043,-5.580445327703776e-16,2.6944292328844247e-83,-0.8734764909468286,6.426516799086073e-15,-3.1029413805233724e-82,-0.23262777847597851,0,70,255.0,255.0,255.0
48,2.4000000000000004,4.5,3.9718007963241706e-84,-1.1813174789821785,-6.641228733325927e-17,3.206611621568989e-84,-0.884896943266887,1.3238773018398561e-14,-6.392130902386678e-82,-0.22419031432635628,0,70,255.0,255.0,255.0
49,2.45,4.5,3.1960654511933213e-84,-1.2258390484283683,7.658327690694766e-16,-3.6977016695022445e-83,-0.8958955223794642,2.0051029237710992e-14,-9.681320424249955e-82,-0.21575285017673412,0,70,255.0,255.0,255.0
50,2.5,4.5,0.0,-1.2709,1.9386906364378333e-15,-9.360659262093022e-83,-0.9064722282845603,2.686328545702342e-14,-1.2970509946113234e-81,-0.2073153860271102,0,70,255.0,255.0,255.0
51,2.5500000000000003,4.5,-5.790167440416008e-84,-1.3164811823436864,2.6462627510611138e-15,-1.2777058631781494e-82,-0.9167435994013621,1.4395991279076341e-15,-6.95087532640577e-83,-0.20353945864495662,0,70,255.0,255.0,255.0
52,2.6,4.5,-1.1754106763992117e-83,-1.3625712133339842,2.0826505492286083e-15,-1.0055746794733655e-82,-0.926826174149056,-2.3984087201207924e-14,1.1580334880831968e-81,-0.19976353126280308,0,70,255.0,255.0,255.0
53,2.6500000000000004,4.5,-1.4822962367360262e-83,-1.40916065315244,2.4785403094030754e-16,-1.1967237509494586e-83,-0.9367199525276424,-4.9407773530323713e-14,2.3855757294304627e-81,-0.1959876038806495,0,70,255.0,255.0,255.0
54,2.7,4.5,-1.1927878647152245e-83,-1.4562400619805969,-2.858126803803756e-15,1.380001049957093e-82,-0.946424934537121,-7.483145985943927e-14,3.613117970777717e-81,-0.19221167649849596,0,70,255.0,255.0,255.0
55,2.75,4.5,0.0,-1.5038,-7.235291955003595e-15,3.4934455956827587e-82,-0.955941120177492,-1.0025514618855488e-13,4.840660212124971e-81,-0.18843574911634509,0,70,255.0,255.0,255.0
56,2.8000000000000003,4.5,2.1609199071402338e-83,-1.5518288095176365,-9.875987037002585e-15,4.7684631984445673e-82,-0.965135436975265,-5.372657091404204e-15,2.594101989222395e-82,-0.17933692279457544,0,70,255.0,255.0,255.0
57,2.85,4.499999999999998,4.3866923640110115e-83,-1.6003059613422583,-7.77255766414406e-15,3.7528557946050184e-82,-0.9738748124569496,8.950983200574564e-14,-4.3218398142804505e-81,-0.17023809647280588,0,70,255.0,255.0,255.0
58,2.9000000000000004,4.499999999999999,5.5320048673116876e-83,-1.649208708408063,-9.250038364279707e-16,4.466233841640921e-83,-0.9821592466225456,1.8439232110289628e-13,-8.903089827483182e-81,-0.16113927015103624,0,70,255.0,255.0,255.0
59,2.95,4.499999999999999,4.4515449137415656e-83,-1.698514303649245,1.0666674446145548e-14,-5.1502340328781525e-82,-0.9899887394720532,2.7927481020004615e-13,-1.3484339840685872e-80,-0.15204044382926668,0,70,255.0,255.0,255.0
60,3.0,4.5,0.0,-1.7482,2.7002477183576548e-14,-1.3037716456521732e-81,-0.9973632910054724,3.7415729929719597e-13,-1.8065589853888565e-80,-0.142941617507498,0,70,255.0,255.0,255.0
61,3.0500000000000003,4.500000000000003,-8.064662884519335e-83,-1.7982451795857703,3.685768539694923e-14,-1.7796146930600126e-81,-1.004410652697578,2.005102923770907e-14,-9.681320424249061e-82,-0.13895285017672837,0,70,255.0,255.0,255.0
62,3.1,4.5000000000000036,-1.6371358779644837e-82,-1.8486377412969823,2.9007580107347606e-14,-1.4005848498946712e-81,-1.0112585760231452,-3.340552408217747e-13,1.6129325769038603e-80,-0.1349640828459588,0,70,255.0,255.0,255.0
63,3.1500000000000004,4.500000000000005,-2.0645723232510726e-82,-1.8993677132153093,3.452161314771565e-15,-1.6668211615614313e-82,-1.017907060982174,-6.881615108812617e-13,3.3226783580502263e-80,-0.13097531551518918,0,70,255.0,255.0,255.0
64,3.2,4.500000000000003,-1.6613391790251045e-82,-1.950425123422424,-3.9808570980778446e-14,1.9220935081555505e-81,-1.024356107574664,-1.0422677809407454e-12,5.032424139196577e-80,-0.12698654818441957,0,70,255.0,255.0,255.0
65,3.25,4.5,0.0,-2.0018,-1.007746167793026e-13,4.865742023040417e-81,-1.0306057158006159,-1.3963740510002293e-12,6.742169920342928e-80,-0.12299778085364999,0,70,255.0,255.0,255.0
66,3.3000000000000003,4.499999999999994,3.0097731630937104e-82,-2.0534808721392834,-1.3755475455079434e-13,6.641612452395592e-81,-1.03656595223442,-7.483145985943232e-14,3.61311797077737e-81,-0.11541167649851009,0,70,255.0,255.0,255.0
67,3.35,4.499999999999988,6.109874275456834e-82,-2.105450273469813,-1.0825776276524645e-13,5.227053820118183e-81,-1.042146883450467,1.246711131281353e-12,-6.019546326187397e-80,-0.10782557214337024,0,70,255.0,255.0,255.0
68,3.4000000000000004,4.499999999999984,7.705088806273119e-82,-2.157689238730701,-1.2883641422658305e-14,6.220661262081607e-82,-1.0473485094487571,2.56825372242215e-12,-1.2400404449452589e-79,-0.10023946778823033,0,70,255.0,255.0,255.0
69,3.45,4.499999999999988,6.200202224726257e-82,-2.210178802661059,1.485676094769682e-13,-7.173350629334391e-81,-1.0521708302292898,3.889796313562936e-12,-1.8781262572717723e-79,-0.0926533634330905,0,70,255.0,255.0,255.0
70,3.5,4.5,0.0,-2.2629,3.7609598993363386e-13,-1.8159196446509493e-80,-1.0566138457920657,5.21133890470372e-12,-2.516212069598285e-79,-0.08506725907794888,0,70,255.0,255.0,255.0
71,3.5500000000000003,4.500000000000023,-1.123262636392291e-81,-2.3158345318570976,5.133613328062281e-13,-2.4786835116522355e-80,-1.060717538364746,2.792748102000193e-13,-1.3484339840684574e-80,-0.07908044382925891,0,70,255.0,255.0,255.0
72,3.6,4.500000000000046,-2.280236122386285e-81,-2.3689667648237673,4.0402347095363804e-13,-1.9507630430578063e-80,-1.0645218901749915,-4.652789284303638e-12,2.246525272784572e-79,-0.07309362858056899,0,70,255.0,255.0,255.0
73,3.6500000000000004,4.50000000000006,-2.8755782901841405e-81,-2.422281731861889,4.808240437586148e-14,-2.3215823886765115e-81,-1.0680269012228027,-9.584853378807338e-12,4.627893943976012e-79,-0.06710681333187903,0,70,255.0,255.0,255.0
74,3.7,4.500000000000048,-2.313946971987993e-81,-2.475764465933341,-5.544618669270946e-13,2.677130900918198e-80,-1.0712325715081796,-1.4516917473310996e-11,7.009262615167429e-79,-0.06111999808318911,0,70,255.0,255.0,255.0
75,3.75,4.5,0.0,-2.5294,-1.4036093429552329e-12,6.777104376299755e-80,-1.0741389010311218,-1.944898156781465e-11,9.390631286358848e-79,-0.055133182834499195,0,70,255.0,255.0,255.0
76,3.8000000000000003,4.499999999999914,4.1920732292597925e-81,-2.5831730004323283,-1.9158905766741176e-12,9.250572801369383e-80,-1.0767238943065947,-1.0422677809406416e-12,5.032424139196095e-80,-0.048266548184420055,0,70,255.0,255.0,255.0
77,3.85,4.499999999999824,8.509957061999455e-81,-2.6370666672351177,-1.5078361210493054e-12,7.280346790219404e-80,-1.0789655558495637,1.7364446005933198e-11,-8.38414645851955e-79,-0.04139991353434097,0,70,255.0,255.0,255.0
78,3.9000000000000004,4.499999999999778,1.0731804280109251e-80,-2.691063833821743,-1.7944597608078791e-13,8.664263428497883e-81,-1.0808638856600288,3.5771159792807206e-11,-1.7271535330958788e-78,-0.03453327888426183,0,70,255.0,255.0,255.0
79,3.95,4.4999999999998215,8.635767665479345e-81,-2.745147333605579,2.0692798582314093e-12,-9.991188540739362e-80,-1.08241888373799,5.4177873579681046e-11,-2.6158924203397947e-78,-0.027666644234182743,0,70,255.0,255.0,255.0
80,4.0,4.5,0.0,-2.7993,5.238341381887297e-12,-2.529249786054807e-79,-1.0836305500834473,7.258458736655489e-11,-3.504631307583711e-78,-0.020800009584112544,0,70,255.0,255.0,255.0
81,4.05,4.500000000000324,-1.5645030280646722e-80,-2.8535054664135897,7.1502009738902424e-12,-3.452360769382529e-79,-1.0845468844088777,3.889796313563178e-12,-1.8781262572718903e-79,-0.015853363433099704,0,70,255.0,255.0,255.0
82,4.1000000000000005,4.500000000000658,-3.1759592125611657e-80,-2.907750566235763,5.627321013243556e-12,-2.717062411781967e-79,-1.0852158864267571,-6.480499473942975e-11,3.1290060561293915e-78,-0.010906717282086777,0,70,255.0,255.0,255.0
83,4.15,4.50000000000083,-4.0051638830252856e-80,-2.9620229328511396,6.697014999472914e-13,-3.2335471325315052e-80,-1.0856375561370863,-1.3349978579242148e-10,6.445824737985913e-78,-0.005960071131073939,0,70,255.0,255.0,255.0
84,4.2,4.500000000000668,-3.2229123689929395e-80,-3.016310199644345,-7.722657565998547e-12,3.7287623262039224e-79,-1.0858118935398646,-2.021945768454132e-10,9.762643419842436e-78,-0.0010134249800611006,0,70,255.0,255.0,255.0
85,4.25,4.5,0.0,-3.0706,-1.9549756184593956e-11,9.439288706589253e-79,-1.0857388986350924,-2.7088936789840493e-10,1.307946210169896e-77,0.0039332211709517395,0,70,255.0,255.0,255.0
86,4.3,4.49999999999879,5.838804789332715e-80,-3.1248787339133135,-2.6684913318886855e-11,1.2884385797393178e-78,-1.085344568057898,-1.4516917473311883e-11,7.009262615167863e-79,0.011840001916830161,0,70,255.0,255.0,255.0
87,4.3500000000000005,4.499999999997545,1.1852841144044717e-79,-3.1791278678218355,-2.1001447931924927e-11,1.0140214968105929e-78,-1.0845548984434095,2.418555329517857e-10,-1.167760957866561e-77,0.019746782662708722,0,70,255.0,255.0,255.0
88,4.4,4.499999999996904,1.4947475104090216e-79,-3.2333276347737003,-2.4993600237083696e-12,1.20677621872762e-79,-1.0833698897916268,4.982279833768788e-10,-2.4056145418847783e-77,0.027653563408587146,0,70,255.0,255.0,255.0
89,4.45,4.499999999997509,1.2028072709423828e-79,-3.2874582678170428,2.8821350405762775e-11,-1.3915930450741762e-78,-1.0817895421025507,7.546004338019718e-10,-3.643468125902996e-77,0.035560344154465566,0,70,255.0,255.0,255.0
90,4.5,4.5,0.0,-3.3415,7.296068335648853e-11,-3.5227905040302205e-78,-1.0798138553761805,1.0109728842270649e-09,-4.881321709921212e-77,0.04346712490034754,0,70,255.0,255.0,255.0
91,4.55,4.500000000004513,-2.1790716129266186e-79,-3.395433997933156,9.958945230165718e-11,-4.808518242019018e-78,-1.0774988433595265,5.417787357968442e-11,-2.6158924203399576e-78,0.049133355765805554,0,70,255.0,255.0,255.0
92,4.6000000000000005,4.500000000009162,-4.4235405363617696e-79,-3.449245162476899,7.837847071445617e-11,-3.784379746064177e-78,-1.0749005197996,-9.02617137067713e-10,4.3581432258533036e-77,0.05479958663126367,0,70,255.0,255.0,255.0
93,4.65,4.500000000011553,-5.57847365333356e-79,-3.5029193280540625,9.327738594886203e-12,-4.5037501616573125e-79,-1.0720188846964003,-1.8594121477150936e-09,8.977875693740519e-77,0.06046581749672168,0,70,255.0,255.0,255.0
94,4.7,4.500000000009297,-4.4889378468702354e-79,-3.5564423290874836,-1.0756274405705253e-10,5.193495947676309e-78,-1.0688539380499278,-2.8162071583624743e-09,1.3597608161627736e-76,0.0661320483621797,0,70,255.0,255.0,255.0
95,4.75,4.5,0.0,-3.6098,-2.7229297724136014e-10,1.3147233145461957e-77,-1.0654056798601825,-3.7730021690098545e-09,1.821734062951495e-76,0.07179827922763238,0,70,255.0,255.0,255.0
96,4.800000000000001,4.499999999983157,8.132405972773362e-79,-3.662978074354062,-3.71672895887742e-10,1.7945634388336762e-77,-1.0616680585039935,-2.0219457684536251e-10,9.762643419839922e-78,0.07770657501992426,0,70,255.0,255.0,255.0
97,4.8500000000000005,4.499999999965809,1.6508878031042607e-78,-3.7159618822705727,-2.925124349258997e-10,1.4123497487446109e-77,-1.05763502235819,3.368613015319066e-09,-1.626481194554666e-76,0.08361487081221602,0,70,255.0,255.0,255.0
98,4.9,4.499999999956882,2.081914710292521e-78,-3.7687366530100532,-3.481159435583649e-11,1.6808224427901597e-78,-1.053306571422772,6.939420607483495e-09,-3.3505888233077307e-76,0.0895231666045078,0,70,255.0,255.0,255.0
99,4.95,4.499999999965303,1.6752944116538553e-78,-3.8212876158330227,4.014296258224473e-10,-1.9382390745631077e-77,-1.0486827056977392,1.0510228199647923e-08,-5.074696452060796e-76,0.09543146239679959,0,70,255.0,255.0,255.0
100,5.0,4.5,0.0,-3.8736,1.016211225608952e-09,-4.9066142077817606e-77,-1.043763425183092,1.4081035791812353e-08,-6.798804080813858e-76,0.1013397581890878,0,70,255.0,255.0,255.0
101,5.050000000000001,4.500000000062859,-3.0350552278166785e-78,-3.9256585046506003,1.3871021312493108e-09,-6.697401931132802e-77,-1.0385169226245028,7.546004338017803e-10,-3.643468125902056e-77,0.10852034415447573,0,70,255.0,255.0,255.0
102,5.1000000000000005,4.500000000127605,-6.161197158780864e-78,-3.9774457084408135,1.0916712689891424e-09,-5.270961020372027e-77,-1.0329113907676446,-1.2571834924208554e-08,6.070110455633331e-76,0.11570093011986352,0,70,255.0,255.0,255.0
103,5.15,4.500000000160921,-7.769811475836729e-78,-4.0289436599057264,1.299186388284596e-10,-6.272914754994911e-78,-1.0269468296125166,-2.589827028221889e-08,1.250456772385687e-75,0.12288151608525132,0,70,255.0,255.0,255.0
104,5.2,4.500000000129491,-6.252283861928397e-78,-4.0801344075804264,-1.4981557592327373e-09,7.233606703484797e-77,-1.0206232391591195,-3.922470564022923e-08,1.8939024992080407e-75,0.13006210205063912,0,70,255.0,255.0,255.0
105,5.25,4.5,0.0,-4.131,-3.792551925194448e-09,1.8311733516580845e-76,-1.0139406194074527,-5.255114099823955e-08,2.537348226030394e-75,0.13724268801602335,0,70,255.0,255.0,255.0
106,5.300000000000001,4.499999999765406,1.1326980313989378e-77,-4.181523107043542,-5.176735629109501e-09,2.499504428569753e-76,-1.0069362509979973,-2.8162071583617695e-09,1.3597608161624284e-76,0.14293204836218443,0,70,255.0,255.0,255.0
107,5.3500000000000005,4.499999999523772,2.2993900832019198e-77,-4.2316888839661795,-4.07417264103067e-09,1.96714943327435e-76,-0.9996474145712343,4.6918726681515136e-08,-2.265396062797866e-75,0.14862140870834542,0,70,255.0,255.0,255.0
108,5.4,4.499999999399435,2.8997331193054387e-77,-4.281483107367044,-4.848629609580049e-10,2.341083657718953e-77,-0.992074110127163,9.665366052139204e-08,-4.666768207211975e-75,0.1543107690545064,0,70,255.0,255.0,255.0
109,5.45,4.499999999516732,2.333384103605973e-77,-4.330891553845273,5.591193411108497e-09,-2.6996187739376087e-76,-0.9842163376657836,1.4638859436126893e-07,-7.068140351626083e-75,0.1600001294006674,0,70,255.0,255.0,255.0
110,5.5,4.5,0.0,-4.3799,1.415399647516884e-08,-6.834031985854162e-76,-0.9760740971870963,1.9612352820114584e-07,-9.469512496040192e-75,0.1656894897468284,0,70,255.0,255.0,255.0
111,5.550000000000001,4.500000000875515,-4.2272866028140836e-77,-4.428493867175235,1.9319840385188688e-08,-9.328277521165732e-76,-0.9676260733835057,1.0510228199645255e-08,-5.074696452059512e-76,0.1722314623967905,0,70,255.0,255.0,255.0
112,5.6000000000000005,4.500000001777305,-8.581440616929593e-77,-4.476657155694476,1.5205019295133535e-08,-7.341501631060196e-76,-0.9588509509474171,-1.7510307180185205e-07,8.454573205628128e-75,0.17877343504675244,0,70,255.0,255.0,255.0
113,5.65,4.50000000224134,-1.0821951329638083e-76,-4.524373510626101,1.8095332050035471e-09,-8.737043155376324e-77,-0.9497487298788304,-3.607163718033494e-07,1.741661605646221e-74,0.18531540769671442,0,70,255.0,255.0,255.0
114,5.7,4.500000001803582,-8.70830802823106e-77,-4.571626577038484,-2.086661788520127e-08,1.0075114425401952e-75,-0.9403194101777458,-5.463296718048466e-07,2.637865890729629e-74,0.19185738034667638,0,70,255.0,255.0,255.0
115,5.75,4.5,0.0,-4.6184,-5.282343397548091e-08,2.5504954591758564e-75,-0.9305629918441629,-7.319429718063437e-07,3.5340701758130364e-74,0.1983993529966348,0,70,255.0,255.0,255.0
116,5.800000000000001,4.499999996732532,1.5776448379857396e-76,-4.664677424255524,-7.210262591164525e-08,3.4813605656093176e-75,-0.9204794554679809,-3.9224705640219183e-08,1.8939024992075584e-75,0.20494210205064087,0,70,255.0,255.0,255.0
117,5.8500000000000005,4.499999993367002,3.202637238451645e-76,-4.71044249325592,-5.674590453950348e-08,2.739885709096643e-75,-0.9100687816390988,6.53493560525893e-07,-3.155289675971465e-74,0.21148485110464682,0,70,255.0,255.0,255.0
118,5.9,4.499999991635208,4.038807219924691e-76,-4.755678850128556,-6.753269859056187e-09,3.260708896378636e-76,-0.8993309703575163,1.3462118266920052e-06,-6.4999696018636856e-74,0.2180276001586528,0,70,255.0,255.0,255.0
119,5.95,4.499999993268942,3.249984800931826e-76,-4.800370138000793,7.787527812969658e-08,-3.760083892767019e-75,-0.8882660216232335,2.0389300928581176e-06,-9.844649527755907e-74,0.22457034921265875,0,70,255.0,255.0,255.0
120,6.0,4.5,0.0,-4.8445,1.971397394267548e-07,-9.518578638118008e-75,-0.8768739354362505,2.7316483590242285e-06,-1.3189329453648131e-73,0.2311130982666647,0,70,255.0,255.0,255.0
121,6.050000000000001,4.500000012194356,-5.887850691661549e-76,-4.888052435802674,2.690906632613923e-07,-1.29926145103207e-74,-0.8651761047445667,1.463885943612315e-07,-7.068140351624304e-75,0.23680012940067677,0,70,255.0,255.0,255.0
122,6.1000000000000005,4.500000024754683,-1.195240489211362e-75,-4.931012871281845,2.117785988628803e-07,-1.0225392673280555e-74,-0.8531939224961826,-2.43887117030172e-06,1.1775701383323047e-73,0.24248716053468874,0,70,255.0,255.0,255.0
123,6.15,4.500000031217833,-1.5073033746734952e-75,-4.97336708885968,2.5203546231221187e-08,-1.216913126997698e-75,-0.8409273886910981,-5.02413093496467e-06,2.4258216801808522e-73,0.24817419166870072,0,70,255.0,255.0,255.0
124,6.2,4.500000025120655,-1.2129108400904193e-75,-5.015100870958343,-2.90634494633585e-07,1.4032824128527878e-74,-0.8283765033293127,-7.609390699627622e-06,3.6740732220294005e-73,0.25386122280271267,0,70,255.0,255.0,255.0
125,6.25,4.5,0.0,-5.0562,-7.357355237315382e-07,3.552381909329618e-74,-0.8155412664108268,-1.0194650464290575e-05,4.922324763877947e-73,0.25954825393672465,0,70,255.0,255.0,255.0
126,6.300000000000001,4.499999954490044,2.197375792866046e-75,-5.096649632533783,-1.004260027133924e-06,4.848909747567347e-74,-0.8023841255537422,-5.4632967180471e-07,2.6378658907289567e-74,0.266737380346654,0,70,255.0,255.0,255.0
127,6.3500000000000005,4.4999999076142645,4.460698233000284e-75,-5.136432421616699,-7.903684909120181e-07,3.816168498402557e-74,-0.7888675283761614,9.101991120680983e-06,-4.3947515857320726e-73,0.27392650675658325,0,70,255.0,255.0,255.0
128,6.4,4.499999883493462,5.625332776701512e-75,-5.175530394432724,-9.406091506582914e-08,4.5415816183529e-75,-0.7749914748780838,1.8750311913166677e-05,-9.05328976053704e-73,0.28111563316651245,0,70,255.0,255.0,255.0
129,6.45,4.499999906248441,4.526644880268495e-75,-5.213925578165832,1.0846627004046435e-06,-5.237121262134451e-74,-0.7607559650595102,2.839863270565237e-05,-1.3711827935342008e-72,0.2883047595764417,0,70,255.0,255.0,255.0
130,6.5,4.5,0.0,-5.2516,2.745802355499398e-06,-1.325766977350667e-73,-0.74616099892044,3.8046953498138065e-05,-1.8370366110146972e-72,0.29549388598637183,0,70,255.0,255.0,255.0
131,6.550000000000001,4.500000169845467,-8.200718102298027e-75,-5.288536234062195,3.747949445274304e-06,-1.8096377539237314e-73,-0.7312393930404643,2.0389300928576e-06,-9.844649527753403e-74,0.30137034921265127,0,70,255.0,255.0,255.0
132,6.6000000000000005,4.500000344788258,-1.6647552442789771e-74,-5.324719042251359,2.9496953647851915e-06,-1.424213472628217e-73,-0.7160239639991747,-3.396909331242223e-05,1.640143620459598e-72,0.30724681243893054,0,70,255.0,255.0,255.0
133,6.65,4.5000004348083165,-2.099402773213255e-74,-5.360133733409424,3.510401140320934e-07,-1.694941334641394e-74,-0.7005147117965712,-6.997711671770204e-05,3.37873373619673e-72,0.31312327566520987,0,70,255.0,255.0,255.0
134,6.7,4.500000349885584,-1.689366868098355e-74,-5.394765616378327,-4.048016306984989e-06,1.954520263568502e-73,-0.6847116364326539,-0.00010598514012298187,5.117323851933863e-72,0.31899973889148914,0,70,255.0,255.0,255.0
135,6.75,4.5,0.0,-5.4286,-1.0247473898266054e-05,4.9478297184697056e-73,-0.6686147379074223,-0.0001419931635282617,6.855913967670996e-72,0.3248762021177729,0,70,255.0,255.0,255.0
136,6.800000000000001,4.4999993661280895,3.0605496616326065e-74,-5.461622231217439,-1.3987537753963294e-05,6.753660040938192e-73,-0.6522263022844094,-7.609390699625729e-06,3.6740732220284774e-73,0.33066122280273946,0,70,255.0,255.0,255.0
137,6.8500000000000005,4.499998713232702,6.21295115381588e-74,-5.493817809377871,-1.1008412968228751e-05,5.3152370406726155e-73,-0.6355486156271483,0.00012677438212900787,-6.121099323265186e-72,0.3364462434877059,0,70,255.0,255.0,255.0
138,6.9,4.49999837727327,7.835077815182866e-74,-5.525172271929582,-1.3100995410625495e-06,6.325607176730303e-74,-0.6185816779356388,0.0002611581549576415,-1.2609605968733218e-71,0.34223126417267236,0,70,255.0,255.0,255.0
139,6.95,4.499998694209226,6.304802984366573e-74,-5.555671156320864,1.51074025275353e-05,-7.294368928060562e-73,-0.601325489209881,0.00039554192778627507,-1.909811261420125e-71,0.3480162848576388,0,70,255.0,255.0,255.0
140,7.0,4.5,0.0,-5.5853,3.824409323756482e-05,-1.8465551896528156e-72,-0.5837800494498749,0.0005299257006149086,-2.5586619259669285e-71,0.35380130554260614,0,70,255.0,255.0,255.0
141,7.050000000000001,4.500002365642176,-1.1422126836300623e-73,-5.614042841068052,5.2202201570578865e-05,-2.5205002409829036e-72,-0.5658553978218982,2.8398632705645154e-05,-1.371182793533857e-72,0.36318475957645363,0,70,255.0,255.0,255.0
142,7.1000000000000005,4.500004802280934,-2.318704937098454e-73,-5.641877720237162,4.10839565081298e-05,-1.9836734690062232e-72,-0.5474615734922293,-0.00047312843520360944,2.2844253672601145e-71,0.37256821361030096,0,70,255.0,255.0,255.0
143,7.15,4.500006056098604,-2.924090848751822e-73,-5.668781178872247,4.889358050218082e-06,-2.360748737227978e-73,-0.5285985764608682,-0.0009746555031128641,4.705969013873614e-71,0.38195166764414834,0,70,255.0,255.0,255.0
144,7.2,4.500004873277516,-2.352984506936794e-73,-5.69472975833822,-5.638159380315629e-05,2.722295544867373e-72,-0.5092664067278146,-0.0014761825710221188,7.127512660487114e-71,0.39133512167799567,0,70,255.0,255.0,255.0
145,7.25,4.5,0.0,-5.7197,-0.00014272889905199323,6.891437786764291e-72,-0.48946506429306874,-0.0019777096389313733,9.549056307100615e-71,0.40071857571184344,0,70,255.0,255.0,255.0
146,7.300000000000001,4.499991171303207,4.262795768356988e-73,-5.743672804510355,-0.00019482126852835217,9.406634959837796e-72,-0.46945610642798596,-0.0001059851401229554,5.117323851932591e-72,0.3996397388914567,0,70,255.0,255.0,255.0
147,7.3500000000000005,4.499982077643563,8.65352463301223e-73,-5.766646509673483,-0.00015332741306429049,7.403170171957636e-72,-0.4495010904039229,0.0017657393586854296,-8.525591536713936e-71,0.39856090207107,0,70,255.0,255.0,255.0
148,7.4,4.499977398332316,1.0912855613488999e-72,-5.788623812581431,-1.8247332659809845e-05,8.8104342312389e-73,-0.4296000162208791,0.0036374638574938143,-1.7562915458621134e-70,0.39748206525068325,0,70,255.0,255.0,255.0
149,7.45,4.499981812680712,8.781457729310517e-73,-5.809607410326254,0.00021041897268508968,-1.0159745286663437e-71,-0.40975288387885467,0.005509188356302199,-2.6600239380528325e-70,0.3964032284302966,0,70,255.0,255.0,255.0
150,7.5,4.5,0.0,-5.8296,0.0005326715029704081,-2.571919595740435e-71,-0.3899596933778496,0.0073809128551105795,-3.563756330243553e-70,0.3953243916099116,0,70,255.0,255.0,255.0
151,7.550000000000001,4.500035349144998,-1.590897038979789e-72,-5.8486091408905265,0.0008710828725429245,-3.5106039598368277e-71,-0.3705121764661604,0.0061555419277898845,-1.9098112614196455e-71,0.38257628485764483,0,70,255.0,255.0,255.0
152,7.6000000000000005,4.5000860871448145,-3.229539359495046e-72,-5.86666184106891,0.0011482256957494011,-2.7629007218824306e-71,-0.3517020648920849,0.00493017100046921,3.1817940779595646e-70,0.36982817810537827,0,70,255.0,255.0,255.0
153,7.65,4.500149150572134,-4.072733160520418e-72,-5.883789970802029,0.0013640999725898439,-3.288098818772757e-72,-0.3335293586556227,0.0037048000731485374,6.554569282061093e-70,0.3570800713531117,0,70,255.0,255.0,255.0
154,7.7,4.500221475999634,-3.277284641030527e-72,-5.900025400356766,0.0015187057030642533,3.791668560178638e-71,-0.31599405775677386,0.0024794291458278637,9.92734448616262e-70,0.34433196460084514,0,70,255.0,255.0,255.0
155,7.75,4.5003,0.0,-5.9154,0.0016120428871726291,9.598534604285311e-71,-0.29909616219553836,0.0012540582185071921,1.3300119690264148e-69,0.33158385784857725,0,70,255.0,255.0,255.0
156,7.800000000000001,4.5003826321168034,5.937308579083457e-72,-5.929945031927537,0.0017024897783595341,1.3101752343363531e-70,-0.2827991877073735,0.002363817428968952,7.127512660485307e-71,0.3202951216780074,0,70,255.0,255.0,255.0
157,7.8500000000000005,4.500471173777178,1.2052804974678962e-71,-5.94368932605088,0.0018484246300695248,1.0311285870333957e-70,-0.26706665002773744,0.0034735766394306923,-1.1874617158166866e-69,0.3090063855074377,0,70,255.0,255.0,255.0
158,7.9,4.500568399379151,1.519964708073277e-71,-5.956661104210454,0.002049847442302602,1.2271351851967061e-71,-0.25189854915662985,0.004583335849892433,-2.446198558238226e-69,0.297717649336868,0,70,255.0,255.0,255.0
159,7.95,4.500677083320751,1.2230992791191053e-71,-5.968888588246685,0.0023067582150587663,-1.4150699712048215e-70,-0.23729488509405075,0.0056930950603541735,-3.7049354006597653e-69,0.28642891316629837,0,70,255.0,255.0,255.0
160,8.0,4.5008,0.0,-5.9804,0.0026191569483380176,-3.582221882140081e-70,-0.22325565784000012,0.0068028542708159015,-4.963672243081304e-69,0.2751401769957291,0,70,255.0,255.0,255.0
161,8.05,4.500939722387791,-2.215833727735404e-71,-5.991222731399325,0.0029749580140158633,-4.88964054136173e-70,-0.20973107270434935,0.0074291883562977185,-2.6600239380521543e-70,0.2658432284302949,0,70,255.0,255.0,255.0
162,8.1,4.501098017746473,-4.498168053922045e-71,-6.001380854727572,0.0033620757839677856,-3.8482242759453795e-70,-0.1966713349969707,0.008055522441779513,4.431667455470706e-69,0.256546279864861,0,70,255.0,255.0,255.0
163,8.15,4.501276451911259,-5.672585516241066e-71,-6.0108976123561595,0.003780510258193813,-4.579730858909562e-71,-0.18407644471786333,0.008681856527261332,9.129337304746793e-69,0.2472493312994268,0,70,255.0,255.0,255.0
164,8.200000000000001,4.501476590717364,-4.564668652373322e-71,-6.019796246656497,0.004230261436693931,5.281113028801544e-70,-0.1719464018670277,0.009308190612743149,1.382700715402288e-68,0.2379523827339926,0,70,255.0,255.0,255.0
165,8.25,4.5017,0.0,-6.0281,0.004711329319468123,1.3369034068131792e-69,-0.16028120644446414,0.009934524698224943,1.85246770032988e-68,0.22865543416855827,0,70,255.0,255.0,255.0
166,8.3,4.501948078332032,8.26960405303327e-71,-6.035832842475165,0.005213678165569856,1.8248386931110563e-69,-0.14912452147522878,0.010159429145844081,9.92734448616012e-70,0.2176119646008494,0,70,255.0,255.0,255.0
167,8.35,4.502221555236929,1.6787391718220295e-70,-6.043021655038829,0.005727272234052527,1.436176851674811e-69,-0.13852000998437924,0.01038433359346321,-1.653920810606615e-68,0.2065684950331409,0,70,255.0,255.0,255.0
168,8.4,4.5025209929758105,2.117037735689099e-70,-6.049694046364911,0.006252111524916174,1.7091788250441592e-70,-0.1284676719719148,0.010609238041082348,-3.4071150660748938e-68,0.19552502546543205,0,70,255.0,255.0,255.0
169,8.450000000000001,4.502846953809795,1.703557533037421e-70,-6.055877625127327,0.006788196038160777,-1.9709382144001315e-69,-0.11896750743783578,0.010834142488701485,-5.160309321543173e-68,0.18448155589772317,0,70,255.0,255.0,255.0
170,8.5,4.5032,0.0,-6.0616,0.007335525773786319,-4.989391439038708e-69,-0.11001951638214254,0.011059046936320649,-6.913503577011391e-68,0.17343808633001478,0,70,255.0,255.0,255.0
171,8.55,4.503580764284077,-3.086258248439767e-70,-6.066889098700013,0.007898329323703287,-6.810390718308054e-69,-0.10164284139473456,0.011453095060357809,-3.7049354006588377e-69,0.16162891316629957,0,70,255.0,255.0,255.0
172,8.6,4.503990161305807,-6.265139881895914e-70,-6.071774125117109,0.008480835279822095,-5.359884979104708e-69,-0.09385662506551262,0.011847143184394957,6.172516496879391e-68,0.14981974000258474,0,70,255.0,255.0,255.0
173,8.65,4.504429176185496,-7.900892391132287e-70,-6.0762846021842005,0.00908304364214278,-6.378742214285672e-70,-0.08666086739447616,0.012241191308432117,1.2715526533824898e-67,0.13801056683886953,0,70,255.0,255.0,255.0
174,8.700000000000001,4.5048987940434575,-6.357763266912351e-70,-6.080450052834194,0.009704954410665323,7.35564155472037e-69,-0.08005556838162547,0.012635239432469279,1.9258536570770404e-67,0.1262013936751543,0,70,255.0,255.0,255.0
175,8.75,4.5054,0.0,-6.0843,0.010346567585389703,1.8620662349341656e-68,-0.07404072802696074,0.013029287556506397,2.5801546607715686e-67,0.11439222051143982,0,70,255.0,255.0,255.0
176,8.8,4.505933664531656,1.1518072588455746e-69,-6.087862762724782,0.011001004539620727,2.5416724180121162e-68,-0.06854411294582523,0.01314819061273417,1.382700715401935e-68,0.10547238273397729,0,70,255.0,255.0,255.0
177,8.85,4.5065001995398415,2.3381820355761626e-69,-6.09116184449273,0.011661386646663115,2.0003363064744023e-68,-0.06349348975356303,0.013267093668961937,-2.3036145176910946e-67,0.09655254495651505,0,70,255.0,255.0,255.0
178,8.9,4.507099902282202,2.9486531828840055e-69,-6.094219544898286,0.012327713906516916,2.3805790032098553e-69,-0.058888858450173776,0.01338599672518971,-4.7454991069224693e-67,0.08763270717905253,0,70,255.0,255.0,255.0
179,8.950000000000001,4.507733070016374,2.3727495534611976e-69,-6.097058163535896,0.012999986319182104,-2.7451628004481345e-68,-0.054730219035657654,0.013504899781417482,-7.187383696153845e-67,0.07871286940158997,0,70,255.0,255.0,255.0
180,9.0,4.5084,0.0,-6.0997,0.01367820388465866,-6.949325795832792e-68,-0.05101757151001479,0.013623802837645235,-9.629268285385133e-67,0.06979303162412775,0,70,255.0,255.0,255.0
181,9.05,4.509101377589301,-4.298603210538321e-69,-6.1021686504008565,0.014385652517817116,-9.485650600217657e-68,-0.04782870682196833,0.014674142488692555,-5.160309321541838e-68,0.057761555897728564,0,70,255.0,255.0,255.0
182,9.1,4.509839440534824,-8.726214154115058e-69,-6.104492896911969,0.015145618133527909,-7.465356727987132e-68,-0.04524141592024194,0.01572448213973984,8.597206421076441e-67,0.0457300801713298,0,70,255.0,255.0,255.0
183,9.15,4.510616814685697,-1.1004523492422792e-68,-6.106702818222653,0.015958100731791092,-8.884441791410854e-69,-0.043255698804835395,0.016774821790787157,1.7710443774307393e-66,0.033698604444930606,0,70,255.0,255.0,255.0
184,9.200000000000001,4.511436125891046,-8.855221887153554e-69,-6.108828493022226,0.01682310031260665,1.0245087046320502e-67,-0.04187155547574883,0.017825161441834478,2.6823681127538344e-66,0.021667128718531416,0,70,255.0,255.0,255.0
185,9.25,4.5123,0.0,-6.1109,0.017740616875974533,2.5935236948397002e-67,-0.041088985932982235,0.01887550109288169,3.5936918480768973e-66,0.009635652992132815,0,70,255.0,255.0,255.0
186,9.3,4.51321042511114,1.604260558330771e-68,-6.112946635671791,0.018672385389108412,3.540092998285851e-67,-0.04086105976629991,0.018395239432472864,1.9258536570765446e-67,-0.0005186063248399323,0,70,255.0,255.0,255.0
187,9.35,4.51416683832086,3.2566674580884073e-68,-6.1149945678593935,0.019580140819221815,2.7861090605474146e-67,-0.04114084656546621,0.017914977772064054,-3.208521116661467e-66,-0.010672865641812319,0,70,255.0,255.0,255.0
188,9.4,4.515168038975011,4.106944078680716e-68,-6.117069182211101,0.020463883166314808,3.3157188162433537e-68,-0.041928346330481155,0.017434716111655226,-6.609627599030711e-66,-0.020827124958785064,0,70,255.0,255.0,255.0
189,9.450000000000001,4.516212826419442,3.3048137995153036e-68,-6.119195864375207,0.02132361243038736,-3.823518538483389e-67,-0.04322355906134475,0.0169544544512464,-1.0010734081399955e-65,-0.030981384275757813,0,70,255.0,255.0,255.0
190,9.5,4.5173,0.0,-6.1214,0.022159328611439447,-9.679162199775521e-67,-0.04502648475805691,0.016474192790837672,-1.3411840563769076e-65,-0.04113564359273031,0,70,255.0,255.0,255.0
191,9.55,4.51842892196614,-5.987181912269251e-68,-6.12370720691198,0.02300480592574604,-1.3211806933121642e-66,-0.047351054112835515,0.01734489978142563,-7.187383696151997e-67,-0.051847130598412734,0,70,255.0,255.0,255.0
192,9.600000000000001,4.519601206181734,-1.215404841694231e-67,-6.126144031650456,0.023893818589582037,-1.0397900569390733e-66,-0.050211197817898255,0.018215606772013584,1.1974363824538676e-65,-0.06255861760409516,0,70,255.0,255.0,255.0
193,9.65,4.520819029414256,-1.5327323965480588e-67,-6.128737252932941,0.024826366602947392,-1.2374431085832316e-67,-0.053606915873244995,0.01908631376260151,2.4667466018692103e-65,-0.0732701046097772,0,70,255.0,255.0,255.0
194,9.700000000000001,4.522084568431186,-1.2333733009345867e-67,-6.13151364947695,0.02580244996584218,1.42695654493015e-66,-0.057538208278875964,0.019957020753189465,3.736056821284598e-65,-0.08398159161545964,0,70,255.0,255.0,255.0
195,9.75,4.5234,0.0,-6.1345,0.02682206867826633,3.6123125104262385e-66,-0.062005075034790906,0.020827727743777502,5.005367040699941e-65,-0.09469307862114135,0,70,255.0,255.0,255.0
196,9.8,4.5247674870243,2.2344467090746234e-67,-6.137722936680292,0.027884390907906845,4.930713473420072e-66,-0.06699872378235608,0.02166516144184256,2.6823681127531497e-66,-0.10505287128146279,0,70,255.0,255.0,255.0
197,9.850000000000001,4.526189136952206,4.535952620968077e-67,-6.141208505538786,0.028988584822450616,3.8805493217015563e-66,-0.07251036216293734,0.022502595139907624,-4.468893418149311e-65,-0.11541266394178423,0,70,255.0,255.0,255.0
198,9.9,4.527667043367961,5.720235178324164e-67,-6.144982606057136,0.0301346504218976,4.618200552708591e-67,-0.07853999017653444,0.023340028837972655,-9.20602364757377e-65,-0.12577245660210531,0,70,255.0,255.0,255.0
199,9.950000000000001,4.529203299855809,4.603011823786813e-67,-6.14907113771699,0.03132258770624788,-5.325474325872262e-66,-0.08508760782314784,0.024177462536037714,-1.3943153876998394e-64,-0.13613224926242676,0,70,255.0,255.0,255.0
200,10.0,4.5308,0.0,-6.1535,0.03255239667550136,-1.3481333821727402e-65,-0.09215321510277705,0.0250148962341028,-1.8680284106422853e-64,-0.146492041922748,0,70,255.0,255.0,255.0
201,10.05,4.532458729936659,-8.339068645071569e-67,-6.158296246366857,0.03379363044263466,-1.8401673200368118e-65,-0.09980605075773998,0.024634454451228555,-1.0010734081397372e-65,-0.15962138427576514,0,70,255.0,255.0,255.0
202,10.100000000000001,4.534179046009444,-1.6928405642178083e-66,-6.163491546194402,0.03501584212062425,-1.4482407229867153e-65,-0.1081153535303538,0.024254012668354308,1.6678137290143378e-64,-0.17275072662878227,0,70,255.0,255.0,255.0
203,10.15,4.535959997113902,-2.1348208316748597e-66,-6.16911872283852,0.036219031709470086,-1.7235359102251096e-66,-0.11708112342061813,0.023873570885480075,3.435734798842587e-64,-0.18588006898179893,0,70,255.0,255.0,255.0
204,10.200000000000001,4.537800632145572,-1.7178673994212658e-66,-6.175210599655091,0.037403199209172254,1.9874940758558907e-65,-0.12670336042853364,0.023493129102605828,5.203655868670899e-64,-0.1990094113348161,0,70,255.0,255.0,255.0
205,10.25,4.5397,0.0,-6.1818,0.03856834461973066,5.031302277648337e-65,-0.13698206455409964,0.023112687319731595,6.971576938499149e-64,-0.21213875368783275,0,70,255.0,255.0,255.0
206,10.3,4.541657593229066,3.1121827871211653e-66,-6.188914477852285,0.03974108732155348,6.867597932805241e-65,-0.14760107318668184,0.02379702075318054,3.736056821283642e-65,-0.21262159161544933,0,70,255.0,255.0,255.0
207,10.350000000000001,4.543674679010016,6.317766994774425e-66,-6.196560509683607,0.04094804669504875,5.4049079597767066e-65,-0.1582442237156449,0.024481354186629486,-6.22436557424242e-64,-0.21310442954306594,0,70,255.0,255.0,255.0
208,10.4,4.545752968176433,7.967259808867024e-66,-6.204739302588789,0.042189222740216414,6.432323585629594e-66,-0.16891151614098837,0.025165687620078408,-1.282233683061297e-63,-0.21358726747068252,0,70,255.0,255.0,255.0
209,10.450000000000001,4.547894171561899,6.411168415306386e-66,-6.213452063662646,0.04346461545705658,-7.417428870836333e-65,-0.17960295046271305,0.025850021053527353,-1.9420308086983752e-63,-0.2140701053982991,0,70,255.0,255.0,255.0
210,10.5,4.5501,0.0,-6.2227,0.044774224845569144,-1.8777075728420608e-64,-0.1903185266808182,0.026534354486976275,-2.6018279343354296e-63,-0.21455294332591612,0,70,255.0,255.0,255.0
211,10.55,4.552370897147074,-1.1614824283977504e-65,-6.232470642224005,0.046042020271145366,-2.563022441118415e-64,-0.2002376564955272,0.02417746253607179,-1.394315387699474e-64,-0.1822122492624383,0,70,255.0,255.0,255.0
212,10.600000000000001,4.5547022379504885,-2.3578227414879885e-65,-6.242696815071166,0.047191971099176354,-2.01713911161201e-64,-0.20853975160706228,0.021820570585167308,2.3229648567955348e-63,-0.14987155519896042,0,70,255.0,255.0,255.0
213,10.65,4.557088130180365,-2.9734218403793224e-65,-6.253297666806325,0.04822407732966209,-2.400575843229324e-65,-0.21522481201542323,0.01946367863426291,4.785361252360929e-63,-0.11753086113548371,0,70,255.0,255.0,255.0
214,10.700000000000001,4.559522681606828,-2.3926806261804257e-65,-6.2641923456943225,0.04913833896260263,2.7682221407489445e-64,-0.22029283772061056,0.017106786683358424,7.247757647926411e-63,-0.08519016707200586,0,70,255.0,255.0,255.0
215,10.75,4.562,0.0,-6.2753,0.04993475599799794,7.007700063603409e-64,-0.22374382872262383,0.014749894732454083,9.710154043491804e-63,-0.052849473008529824,0,70,255.0,255.0,255.0
216,10.8,4.564515618182638,4.334711434878885e-65,-6.286556553251694,0.05069883159387404,9.565329971193135e-64,-0.2265843008312079,0.015813129102589633,5.203655868669551e-64,-0.06076941133483145,0,70,255.0,255.0,255.0
217,10.850000000000001,4.56707076918803,8.799514266474512e-65,-6.297965030031726,0.051516068908256926,7.528065650470372e-64,-0.22982076985610705,0.016876363472725184,-8.669422869757894e-63,-0.06868934966113308,0,70,255.0,255.0,255.0
218,10.9,4.5696681111021045,1.1096961380630587e-64,-6.30954523018591,0.05238646794114655,8.95907101435435e-65,-0.23345323579732116,0.017939597842860696,-1.7859211326382417e-62,-0.07660928798743441,0,70,255.0,255.0,255.0
219,10.950000000000001,4.572310302010786,8.92960566319107e-65,-6.321316953560063,0.053310028692542984,-1.033114567591214e-63,-0.23748169865485047,0.019002832212996246,-2.7048999783007264e-62,-0.08452922631373605,0,70,255.0,255.0,255.0
220,11.0,4.575,0.0,-6.3333,0.05428675116244617,-2.6153092681571575e-63,-0.24190615842869473,0.020066066583131537,-3.6238788239631786e-62,-0.09244916464003738,0,70,255.0,255.0,255.0
221,11.05,4.577739430122381,-1.6177363311117788e-64,-6.345509544769218,0.05529065335336213,-3.5698297443654124e-63,-0.2464491401796524,0.020090021053506556,-1.9420308086978735e-63,-0.08927010539826594,0,70,255.0,255.0,255.0
222,11.100000000000001,4.580529085297395,-3.284023432441006e-64,-6.357942264801931,0.05629575326779685,-2.8095123490269473e-63,-0.2508331689685215,0.02011397552388158,3.235472662223604e-62,-0.0860910461564945,0,70,255.0,255.0,255.0
223,11.15,4.583369025411219,-4.1414423682143034e-64,-6.370590212450035,0.05730205090575029,-3.3435708214188125e-64,-0.2550582447953018,0.0201379299942566,6.665148405316874e-62,-0.08291198691472317,0,70,255.0,255.0,255.0
224,11.200000000000001,4.586259310350028,-3.3325742026583856e-64,-6.383445440065426,0.058309546267222505,3.8556360562899627e-63,-0.25912436765999375,0.02016188446463162,1.0094824148410264e-61,-0.07973292767295173,0,70,255.0,255.0,255.0
225,11.25,4.5892,0.0,-6.3965,0.05931823935221345,9.760467066268289e-63,-0.263031537562597,0.020185838935006695,1.3524499891503534e-61,-0.07655386843118084,0,70,255.0,255.0,255.0
226,11.3,4.592190661327841,6.037474180959226e-64,-6.409747667671436,0.060298554992672906,1.3322785980342337e-62,-0.26688313845017675,0.019026786683371127,7.247757647924529e-63,-0.07751016707200746,0,70,255.0,255.0,255.0
227,11.350000000000001,4.595228889622391,1.225614230311657e-63,-6.423189110760552,0.06122091802055059,1.048524283106075e-62,-0.27078255426979786,0.01786773443173556,-1.2074948361918628e-61,-0.07846646571283407,0,70,255.0,255.0,255.0
228,11.4,4.59831178725302,1.5456073334794152e-63,-6.436826720013949,0.06208532843584646,1.2478376184239747e-63,-0.2747297850214601,0.016708682180100035,-2.4874672488629255e-61,-0.07942276435366065,0,70,255.0,255.0,255.0
229,11.450000000000001,4.601436456589099,1.2437336244314426e-63,-6.450662886178232,0.06289178623856058,-1.4389429657568638e-62,-0.2787248307051639,0.015549629928464467,-3.7674396615340334e-61,-0.08037906299448727,0,70,255.0,255.0,255.0
230,11.5,4.6046,0.0,-6.4647,0.0636402914286929,-3.6426558996915995e-62,-0.28276769132090884,0.014390577676828942,-5.047412074205096e-61,-0.08133536163531563,0,70,255.0,255.0,255.0
231,11.55,4.607800324566253,-2.253216039272513e-63,-6.478939784545038,0.06437912667593919,-4.972131417700393e-62,-0.2868183060196358,0.015162832213022137,-2.7048999783000256e-62,-0.08068922631376249,0,70,255.0,255.0,255.0
232,11.600000000000001,4.611038556213041,-4.574054578002529e-63,-6.4933812921558625,0.06515657464999514,-3.913145897521606e-62,-0.2908366139522852,0.015935086749215333,4.5064320785450906e-61,-0.08004309099220934,0,70,255.0,255.0,255.0
233,11.65,4.6143166255767,-5.768285097096231e-63,-6.508022907494166,0.06597263535086072,-4.6569933915540296e-63,-0.29482261511885677,0.0167073412854085,9.283354154920012e-61,-0.07939695567065623,0,70,255.0,255.0,255.0
234,11.700000000000001,4.617636463293573,-4.6416770774599343e-63,-6.522863015221646,0.06682730877853599,5.37020825739846e-62,-0.2987763095193508,0.017479595821601697,1.4060276231295106e-60,-0.07875082034910309,0,70,255.0,255.0,255.0
235,11.75,4.621,0.0,-6.5379,0.06772059493302088,1.3594576892139569e-61,-0.30269769715376704,0.01825185035779464,1.8837198307670027e-60,-0.07810468502755086,0,70,255.0,255.0,255.0
236,11.8,4.624408840407144,8.409116738994129e-63,-6.553132394148408,0.0686329383035808,1.855624707276734e-61,-0.3065956374712794,0.018241884464601954,1.0094824148407627e-61,-0.07781292767293965,0,70,255.0,255.0,255.0
237,11.850000000000001,4.627863285525448,1.7070604081698454e-62,-6.568559320615999,0.0695447833794811,1.4604059306980343e-61,-0.3104789899210611,0.018231918571409267,-1.6818233477988502e-60,-0.07752117031832845,0,70,255.0,255.0,255.0
238,11.9,4.63136331044018,2.1527533054905506e-62,-6.584180050009386,0.07045613016072173,1.7380135947792118e-62,-0.31434775450311214,0.01822195267821658,-3.4645949370817126e-60,-0.07722941296371726,0,70,255.0,255.0,255.0
239,11.950000000000001,4.634908890236609,1.7322974685408289e-62,-6.599993852935182,0.07136697864730275,-2.004189006383697e-61,-0.31820193121743284,0.018211986785023893,-5.247366526364639e-60,-0.07693765560910605,0,70,255.0,255.0,255.0
240,12.0,4.6385,0.0,-6.616,0.07227732883922411,-5.073565166886667e-61,-0.32204152006402276,0.018202020891830983,-7.030138115647501e-60,-0.07664589825449397,0,70,255.0,255.0,255.0
241,12.05,4.6421363138051746,-3.1383250916703993e-62,-6.632197838861328,0.0731691201097314,-6.925285687336894e-61,-0.32587114409524753,0.017469629928459962,-3.767439661533048e-61,-0.07653906299449638,0,70,255.0,255.0,255.0
242,12.100000000000001,4.64581630168517,-6.370836174879128e-62,-6.648587025380142,0.07402429183207013,-5.450309133039977e-61,-0.3296954263634725,0.01673723896508894,6.276650183340892e-60,-0.07643222773449877,0,70,255.0,255.0,255.0
243,12.15,4.649538132662578,-8.034184712252578e-62,-6.665167292468292,0.07484284400624028,-6.486355039961472e-62,-0.3335143668686974,0.016004848001717947,1.2930044332834852e-59,-0.07632539247450118,0,70,255.0,255.0,255.0
244,12.200000000000001,4.653299975759991,-6.4650221664173235e-62,-6.681938373037627,0.07562477663224192,7.479735199794945e-61,-0.3373279656109226,0.015272457038346926,1.9583438482329046e-59,-0.07621855721450359,0,70,255.0,255.0,255.0
245,12.25,4.6571,0.0,-6.6989,0.07637008971007497,1.893480297833271e-60,-0.3411362225901477,0.014540066074975933,2.6236832631823e-59,-0.07611172195450644,0,70,255.0,255.0,255.0
246,12.3,4.660937104372159,1.1712388692782185e-61,-6.716051450406282,0.07712258125749039,2.5845518042070846e-60,-0.34491178614773776,0.01555959582164023,1.4060276231291474e-60,-0.07491082034909596,0,70,255.0,255.0,255.0
247,12.350000000000001,4.664813107733872,2.377628429134667e-61,-6.733390177863437,0.07792604929223902,2.0340830601461875e-60,-0.3486273046250574,0.01657912556830453,-2.3424777385564707e-59,-0.07370991874368547,0,70,255.0,255.0,255.0
248,12.4,4.668730558909504,2.998398554351976e-61,-6.75091318011745,0.07878049381432084,2.4207406565066627e-61,-0.35228277802210634,0.01759865531496879,-4.825558239425769e-59,-0.07250901713827504,0,70,255.0,255.0,255.0
249,12.450000000000001,4.672692006723425,2.412779119712847e-61,-6.768617454914309,0.0796859148237359,-2.7914751792796075e-60,-0.3558782063388849,0.018618185061633086,-7.308638740295153e-59,-0.07130811553286455,0,70,255.0,255.0,255.0
250,12.5,4.6767,0.0,-6.7865,0.08064231232048412,-7.066564674644417e-60,-0.3594135895753928,0.019637714808297013,-9.79171924116445e-59,-0.07010721392745634,0,70,255.0,255.0,255.0
251,12.55,4.6807560687061915,-4.371122967945834e-61,-6.804558759513546,0.0815885548603163,-9.645678648094649e-60,-0.36294571131380643,0.01821198678498961,-5.247366526363283e-60,-0.07117765560908557,0,70,255.0,255.0,255.0
252,12.600000000000001,4.684857667379346,-8.873430099050752e-61,-6.822795463166116,0.08246351099898311,-7.591301327280751e-60,-0.3665313551363015,0.01678625876168221,8.742245935891794e-59,-0.07224809729071481,0,70,255.0,255.0,255.0
253,12.65,4.689001231699404,-1.1190175746182646e-60,-6.841212787061911,0.08326718073648451,-9.034327122030504e-61,-0.3701705210428779,0.015360530738374857,1.800922852441959e-58,-0.073318538972344,0,70,255.0,255.0,255.0
254,12.700000000000001,4.693183197346308,-9.004614262209649e-61,-6.859813407305138,0.08399956407282058,1.0417927197138935e-59,-0.37386320903353587,0.013934802715067455,2.7276211112947712e-58,-0.07438898065397323,0,70,255.0,255.0,255.0
255,12.75,4.6974,0.0,-6.8786,0.08466066100799124,2.63727784007444e-59,-0.3776094191082752,0.012509074691760214,3.65431937014755e-58,-0.07545942233560199,0,70,255.0,255.0,255.0
256,12.8,4.701649020803076,1.6313253002505116e-60,-6.897574311539533,0.08530719930124404,3.5998162788171513e-59,-0.38135336859702845,0.013352457038351606,1.9583438482323948e-59,-0.07429855721452412,0,70,255.0,255.0,255.0
257,12.850000000000001,4.705931422748747,3.311609196706835e-60,-6.916734369472102,0.08599590671182643,2.8331122248976825e-59,-0.3850392748297278,0.014195839384943001,-3.262650600501071e-58,-0.07313769209344625,0,70,255.0,255.0,255.0
258,12.9,4.71024931429288,4.1762304430378615e-60,-6.936077271634905,0.08672678323973834,3.3716567831615297e-60,-0.388667137806373,0.015039221731534365,-6.721135585825257e-58,-0.07197682697236844,0,70,255.0,255.0,255.0
259,12.950000000000001,4.714604803891343,3.3605677929125767e-60,-6.955600115865138,0.08749982888497986,-3.8880233609276106e-59,-0.3922369575269645,0.015882604078125757,-1.0179620571149567e-57,-0.07081596185129058,0,70,255.0,255.0,255.0
260,13.0,4.719,0.0,-6.9753,0.08831504364755091,-9.842454892833317e-59,-0.39574873399150207,0.0167259864247169,-1.3638105556473756e-57,-0.06965509673021364,0,70,255.0,255.0,255.0
261,13.05,4.723436648081508,-6.088188904207464e-60,-6.995174394328322,0.08915064793470978,-1.343469725045914e-58,-0.3992248142980792,0.016698185061637227,-7.308638740293269e-59,-0.06938811553287065,0,70,255.0,255.0,255.0
262,13.100000000000001,4.727915041625669,-1.2359093776922264e-59,-7.015222258945476,0.08998486215371465,-1.0573318766862651e-58,-0.4026875455447892,0.016670383698557556,1.2176377808415102e-57,-0.06912113433552766,0,70,255.0,255.0,255.0
263,13.15,4.732435111129076,-1.5585904197533182e-59,-7.03544292639847,0.09081768630456552,-1.2583194420443095e-59,-0.40613692773163196,0.016642582335477885,2.5083619490859076e-57,-0.06885415313818467,0,70,255.0,255.0,255.0
264,13.200000000000001,4.736996787088323,-1.2541809745429336e-59,-7.055835729234309,0.09164912038726244,1.451030072399656e-58,-0.40957296085860767,0.016614780972398213,3.799086117330351e-57,-0.06858717194084168,0,70,255.0,255.0,255.0
265,13.25,4.7416,0.0,-7.0764,0.09247916440180533,3.673254173125883e-58,-0.41299564492571617,0.016586979609318653,5.089810285574747e-57,-0.06832019074349915,0,70,255.0,255.0,255.0
266,13.3,4.746244386870896,2.2721430316579337e-59,-7.097135311147178,0.09329020895991488,5.0138972723019406e-58,-0.41641937421065295,0.01585480271506313,2.727621111294063e-58,-0.06862898065396941,0,70,255.0,255.0,255.0
267,13.350000000000001,4.75092841074858,4.612476591098222e-59,-7.118042194745991,0.09406464467331166,3.946016284255293e-58,-0.4198585429911132,0.015122625820807614,-4.5442860633159345e-57,-0.06893777056443967,0,70,255.0,255.0,255.0
268,13.4,4.755650241190814,5.816738634709487e-59,-7.139121422771215,0.09480247154199564,4.696112089861075e-59,-0.4233131512670969,0.01439044892655212,-9.361334237761104e-57,-0.06924656047490992,0,70,255.0,255.0,255.0
269,13.450000000000001,4.760408047755368,4.680667118880478e-59,-7.160373767197626,0.09550368956596687,-5.4153179535058595e-58,-0.4267831990386041,0.013658272032296599,-1.4178382412206444e-56,-0.06955535038538017,0,70,255.0,255.0,255.0
270,13.5,4.7652,0.0,-7.1818,0.09616829874522531,-1.37087712032202e-57,-0.43026868630563486,0.01292609513804166,-1.8995430586651612e-56,-0.06986414029585042,0,70,255.0,255.0,255.0
271,13.55,4.770025004434909,-8.47975323621099e-59,-7.203400361082966,0.09684051622562963,-1.8712119364161846e-57,-0.4337376888593135,0.013962604078130273,-1.0179620571146922e-57,-0.06889596185129533,0,70,255.0,255.0,255.0
272,13.600000000000001,4.774884915380013,-1.721399698670066e-58,-7.225172962070562,0.09756455915303835,-1.4726733260334906e-57,-0.4371582824907645,0.014999113018218886,1.6959506472422228e-56,-0.06792778340674023,0,70,255.0,255.0,255.0
273,13.65,4.7797823241076625,-2.1708364119084623e-58,-7.2471153825166725,0.0983404275274515,-1.7526128917400027e-58,-0.44053046719998756,0.01603562195830746,3.4936975001958507e-56,-0.06695960496218517,0,70,255.0,255.0,255.0
274,13.700000000000001,4.784719821890208,-1.746848750097897e-58,-7.26922520197519,0.0991681213488691,2.0210241741623793e-57,-0.443854242986983,0.017072130898396078,5.291444353149542e-56,-0.06599142651763008,0,70,255.0,255.0,255.0
275,13.75,4.7897,0.0,-7.2915,0.10004764061729109,5.116183063975491e-57,-0.4471296098517505,0.01810863983848432,7.08919120610317e-56,-0.06502324807307458,0,70,255.0,255.0,255.0
276,13.8,4.794724395389468,3.1646869913186023e-58,-7.313937644520958,0.10091572613756317,6.983458018434545e-57,-0.45037387035209825,0.01661478097239799,3.7990861173293643e-57,-0.06474717194083413,0,70,255.0,255.0,255.0
277,13.850000000000001,4.799790327731367,6.424351135570442e-58,-7.336537156971766,0.10170911871453091,5.496091675708433e-57,-0.453604327045834,0.015120922106311665,-6.329373982637297e-56,-0.06447109580859366,0,70,255.0,255.0,255.0
278,13.9,4.8048940623785334,8.101671784162901e-58,-7.359297847162098,0.10242781834819431,6.540840357973865e-58,-0.45682097993295756,0.01362706324022539,-1.3038656577007294e-55,-0.06419501967635322,0,70,255.0,255.0,255.0
279,13.950000000000001,4.8100318646838,6.519328288503544e-58,-7.382219024901619,0.10307182503855344,-7.542564901298931e-57,-0.46002382901346933,0.012133204374139063,-1.9747939171377528e-55,-0.06391894354411276,0,70,255.0,255.0,255.0
280,14.0,4.8152,0.0,-7.4053,0.10364113878560823,-1.9093855135579944e-56,-0.46321287428736885,0.01063934550805301,-2.6457221765747515e-55,-0.0636428674118732,0,70,255.0,255.0,255.0
281,14.05,4.820395814007217,-1.181077264165331e-57,-7.4285402608332065,0.10420057922411709,-2.606262013732199e-56,-0.4663988297323001,0.01173827203230155,-1.4178382412202763e-56,-0.06379535038537698,0,70,255.0,255.0,255.0
282,14.100000000000001,4.825620973694515,-2.39760048436117e-57,-7.451940010042375,0.1048149659888384,-2.0511693376800234e-56,-0.4695924093259066,0.012837198556550087,2.3621545283306962e-55,-0.06394783335888077,0,70,255.0,255.0,255.0
283,14.15,4.830878226378204,-3.0235850724743145e-57,-7.475499628834942,0.10548429907977211,-2.4410748540155582e-57,-0.47279361306818823,0.013936125080798585,4.86609288078333e-55,-0.06410031633238455,0,70,255.0,255.0,255.0
284,14.200000000000001,4.836170319374596,-2.433046440391628e-57,-7.49921949841834,0.10620857849691825,2.8149235431033325e-56,-0.47600244095914507,0.015035051605047124,7.370031233236054e-55,-0.06425279930588834,0,70,255.0,255.0,255.0
285,14.25,4.8415,0.0,-7.5231,0.10698780424027682,7.125923747834428e-56,-0.479218892998777,0.016133978129295734,9.87396958568869e-55,-0.06440528227939035,0,70,255.0,255.0,255.0
286,14.3,4.846869148581662,4.4078403575294636e-57,-7.547141312146222,0.1077699569659688,9.726702253085341e-56,-0.48243081071870225,0.015152130898383196,5.291444353148179e-56,-0.06407142651761619,0,70,255.0,255.0,255.0
287,14.350000000000001,4.852276177490571,8.947966823887635e-57,-7.571342802858737,0.10850301733011516,7.6550681831492515e-56,-0.4856260356505387,0.014170283667470657,-8.815680715059054e-55,-0.06373757075584202,0,70,255.0,255.0,255.0
288,14.4,4.857718632108649,1.1284173111480968e-56,-7.59570363749814,0.10918698533271586,9.11021538026483e-57,-0.48880456779428644,0.013188436436558152,-1.8160505865432598e-54,-0.06340371499406787,0,70,255.0,255.0,255.0
289,14.450000000000001,4.863194057817817,9.080252932716156e-57,-7.62022298142503,0.10982186097377096,-1.0505437682283446e-55,-0.49196640714994544,0.012206589205645614,-2.750533101580647e-54,-0.0630698592322937,0,70,255.0,255.0,255.0
290,14.5,4.8687,0.0,-7.6449,0.11040764425328044,-2.6594309477779717e-55,-0.49511155371751575,0.011224741974733443,-3.685015616618001e-54,-0.06273600347051689,0,70,255.0,255.0,255.0
291,14.55,4.874234791666132,-1.6450284165952523e-56,-7.669733690581912,0.11099159291200268,-3.630054699860917e-55,-0.4982299273928821,0.012133204374156294,-1.9747939171372496e-55,-0.06199894354413392,0,70,255.0,255.0,255.0
292,14.600000000000001,4.879799916343199,-3.3394266811189373e-56,-7.694722378522684,0.11162096469069607,-2.8569103394916993e-55,-0.5013114480719292,0.013041666773579146,3.290056833190551e-54,-0.06126188361775096,0,70,255.0,255.0,255.0
293,14.65,4.8853976451872,-4.211310737344954e-56,-7.719864221172498,0.1122957595893606,-3.3999786667043935e-56,-0.5043561157546571,0.013950129173001964,6.777593058094703e-54,-0.06052482369136802,0,70,255.0,255.0,255.0
294,14.700000000000001,4.891030249354135,-3.388796529047299e-56,-7.7451573758815435,0.11301597760799627,3.920682718603042e-55,-0.5073639304410661,0.014858591572424815,1.026512928299898e-53,-0.059787763764985055,0,70,255.0,255.0,255.0
295,14.75,4.8967,0.0,-7.7706,0.11378161874660307,9.925131416328444e-55,-0.5103348921311556,0.01576705397184741,1.3752665507903133e-53,-0.059050703838599894,0,70,255.0,255.0,255.0
296,14.8,4.902408484753809,6.139329630628063e-56,-7.796190325526135,0.11455167138602544,1.3547548574135132e-54,-0.5132734797097681,0.015035051605047046,7.370031233234163e-55,-0.058492799305900955,0,70,255.0,255.0,255.0
297,14.850000000000001,4.908154557136631,1.2462910042086982e-55,-7.8219268830505335,0.11528512390710781,1.066213453965187e-54,-0.5161841720617458,0.014303049238246681,-1.22786592612563e-53,-0.057934894773202024,0,70,255.0,255.0,255.0
298,14.9,4.913936387142547,1.571682563823172e-55,-7.847808277811865,0.1159819763098501,1.2688893128791062e-55,-0.5190669691870883,0.013571046871446342,-2.5294321645835558e-53,-0.057376990240503106,0,70,255.0,255.0,255.0
299,14.950000000000001,4.919752144765644,1.264716082291758e-55,-7.8738331150487975,0.11664222859425243,-1.4632187106183824e-54,-0.521921871085796,0.012839044504645975,-3.830998403041527e-53,-0.056819085707804175,0,70,255.0,255.0,255.0
300,15.0,4.9256,0.0,-7.9,0.1172658807603147,-3.70410947175358e-54,-0.5247488777578687,0.012107042137845192,-5.132564641499451e-53,-0.05626118117510348,0,70,255.0,255.0,255.0
301,15.05,4.931478469318633,-2.2912290105916995e-55,-7.926308207313554,0.11787372154390155,-5.0560139596679594e-54,-0.5275881537680527,0.01220658920562865,-2.7505331015799264e-54,-0.05730985923225466,0,70,255.0,255.0,255.0
302,15.100000000000001,4.93738745511028,-4.651221348722899e-55,-7.9527596892751875,0.11848653968087759,-3.979162781911577e-54,-0.5304798636810943,0.012306136273412108,4.582458021183466e-53,-0.05835853728940584,0,70,255.0,255.0,255.0
303,15.15,4.943327206242611,-5.8655991815581916e-55,-7.979357067580044,0.11910433517124276,-4.735559384845964e-55,-0.5334240074969933,0.012405683341195562,9.439969352524751e-53,-0.059407215346556984,0,70,255.0,255.0,255.0
304,15.200000000000001,4.949297971583294,-4.7199846762622984e-55,-8.006102963923267,0.11972710801499714,5.460806570613227e-54,-0.53642058521575,0.01250523040897902,1.4297480683866209e-52,-0.06045589340370816,0,70,255.0,255.0,255.0
305,15.25,4.9553,0.0,-8.033,0.12035485821214066,1.3823924745381475e-53,-0.5394695968373642,0.012604777476762252,1.91549920152075e-52,-0.06150457146085664,0,70,255.0,255.0,255.0
306,15.3,4.96133363797166,8.550983079303992e-55,-8.060049645219655,0.12099344243837046,1.886930098125833e-53,-0.542501905218011,0.012938591572429187,1.0265129282996391e-53,-0.05978776376501675,0,70,255.0,255.0,255.0
307,15.350000000000001,4.96739962242225,1.73585943906829e-54,-8.08724875984872,0.1216487173693836,1.4850437673681127e-53,-0.545448373213866,0.01327240566809612,-1.7101966158608223e-52,-0.058070956069176866,0,70,255.0,255.0,255.0
308,15.4,4.973498787887011,2.1890714162409598e-54,-8.11459305186796,0.12232068300518006,1.7673348226504865e-54,-0.5483090008249287,0.013606219763763042,-3.5230445245515444e-52,-0.05635414837333704,0,70,255.0,255.0,255.0
309,15.450000000000001,4.979631968901181,1.761522262275745e-54,-8.142078229258134,0.12300933934575989,-2.0380007571834516e-53,-0.5510837880511996,0.013940033859429974,-5.335892433242331e-52,-0.054637340677497155,0,70,255.0,255.0,255.0
310,15.5,4.9858,0.0,-8.1697,0.12371468639112305,-5.159158950977232e-53,-0.5537727348926783,0.014273847955096897,-7.148740341933054e-52,-0.052920532981651114,0,70,255.0,255.0,255.0
311,15.55,4.99200297879473,-3.191270330662427e-54,-8.197454811807832,0.12439250870261663,-7.042118996536537e-53,-0.5564202253599141,0.012839044504645838,-3.8309984030405463e-53,-0.052979085707776895,0,70,255.0,255.0,255.0
312,15.600000000000001,4.99823805520072,-6.47831562140087e-54,-8.22534207132993,0.12499859084158765,-5.542258791281291e-53,-0.559070643463456,0.011404241054194778,6.3825406613249446e-52,-0.05303763843390268,0,70,255.0,255.0,255.0
313,15.65,5.0045016422093465,-8.169725746808021e-54,-8.253361924948116,0.12553293280803612,-6.595783352117319e-54,-0.5617239892033044,0.009969437603743771,1.3148181162953705e-51,-0.053096191160028464,0,70,255.0,255.0,255.0
314,15.700000000000001,5.010790152811982,-6.574090581476752e-54,-8.2815145190442,0.12599553460196203,7.605922371672485e-53,-0.5643802625794588,0.008534634153292711,1.9913821664582706e-51,-0.053154743886154245,0,70,255.0,255.0,255.0
315,15.75,5.0171,0.0,-8.3098,0.12638639622336537,1.925424332937078e-52,-0.5670394635919196,0.007099830702841148,2.6679462166211457e-51,-0.05321329661227736,0,70,255.0,255.0,255.0
316,15.8,5.023428846849424,1.1909983014719307e-53,-8.338218307549024,0.1267805227511611,2.6281545888020304e-52,-0.5696891933423197,0.008665230408987746,1.4297480683862476e-52,-0.05277589340372621,0,70,255.0,255.0,255.0
317,15.850000000000001,5.029779356774871,2.4177403046535186e-53,-8.366768554831557,0.12725291926426416,2.0683991397757047e-52,-0.5723170529322923,0.010230630115134342,-2.3819966029438962e-51,-0.05233849019517506,0,70,255.0,255.0,255.0
318,15.9,5.0361554432756055,3.048983157099111e-53,-8.395449648339579,0.12780358576267453,2.4615798585818763e-53,-0.5749230423618372,0.011796029821280885,-4.906968012726328e-51,-0.05190108698662392,0,70,255.0,255.0,255.0
319,15.950000000000001,5.042561019850895,2.453484006363125e-53,-8.42426049456507,0.12843252224639226,-2.838568872950649e-52,-0.5775071616309547,0.013361429527427481,-7.431939422508849e-51,-0.05146368377807277,0,70,255.0,255.0,255.0
320,16.0,5.049,0.0,-8.4532,0.12913972871541726,-7.185781436650588e-52,-0.5800694107396445,0.014926829233574024,-9.956910832291277e-51,-0.05102628056952341,0,70,255.0,255.0,255.0
321,16.05,5.055475233807574,-4.44486617282148e-53,-8.482267157996073,0.12986140029274193,-9.80840645555447e-52,-0.5826150012708202,0.013940033859413012,-5.335892433240943e-52,-0.05079734067750436,0,70,255.0,255.0,255.0
322,16.1,5.061985317699796,-9.023129656473987e-53,-8.51146130934384,0.13053373210135857,-7.719370679974693e-52,-0.585149144807395,0.012953238485252,8.889732345643089e-51,-0.050568400785485315,0,70,255.0,255.0,255.0
323,16.150000000000002,5.068527784688232,-1.137896005371566e-52,-8.54078188169357,0.13115672414126717,-9.18674109911252e-53,-0.5876718413493688,0.011966443111090987,1.831305393461027e-50,-0.05033946089346627,0,70,255.0,255.0,255.0
324,16.2,5.075100167784445,-9.156526967305008e-53,-8.570228302695533,0.13173037641246765,1.0593683254634857e-51,-0.5901830908967415,0.010979647736930047,2.7736375523576786e-50,-0.05011052100144724,0,70,255.0,255.0,255.0
325,16.25,5.0817,0.0,-8.5998,0.13225468891496014,2.6817701413665273e-51,-0.5926828934495133,0.009992852362769034,3.7159697112543957e-50,-0.04988158110942553,0,70,255.0,255.0,255.0
326,16.3,5.088325417920281,1.6588466389813987e-52,-8.629496260466688,0.132765876077862,3.6605471233415834e-51,-0.5951628015744013,0.010454634153305038,1.9913821664577513e-51,-0.049314743886092485,0,70,255.0,255.0,255.0
327,16.35,5.094976972425945,3.367477832124243e-52,-8.659315807793089,0.1333001523302907,2.8809083580123047e-51,-0.5976143678381227,0.010916415943841042,-3.3176932779628454e-50,-0.04874790666275944,0,70,255.0,255.0,255.0
328,16.400000000000002,5.101655817971468,4.246685705776352e-52,-8.689257224886148,0.13385751767224613,3.428538453786923e-52,-0.6000375922406773,0.011378197734377047,-6.834524772571465e-50,-0.04818106943942639,0,70,255.0,255.0,255.0
329,16.45,5.108363109011329,3.417262386285687e-52,-8.719319094652802,0.13443797210372835,-3.953616414558891e-51,-0.6024324747820652,0.011839979524913018,-1.0351356267179835e-49,-0.047614232216093386,0,70,255.0,255.0,255.0
330,16.5,5.1151,0.0,-8.7495,0.1350415156247374,-1.000850242180105e-50,-0.6047990154622866,0.012301761315449022,-1.386818776178846e-49,-0.04704739499276478,0,70,255.0,255.0,255.0
331,16.55,5.121867094511303,-6.190899938643446e-52,-8.779799000137183,0.13563509539580987,-1.366134784781089e-50,-0.6071657924315595,0.011441429527448964,-7.431939422506946e-51,-0.04762368377815243,0,70,255.0,255.0,255.0
332,16.6,5.128662792596424,-1.2567598362849572e-51,-8.81021705948381,0.1361856585774823,-1.0751696364051755e-50,-0.609561383840102,0.010581097739448906,1.2381799877287071e-49,-0.04819997256354009,0,70,255.0,255.0,255.0
333,16.650000000000002,5.135484943425894,-1.584884681773385e-51,-8.840755618761847,0.13669320516975475,-1.2795479705236401e-51,-0.6119857896879136,0.009720765951448848,2.550679369682484e-49,-0.04877626134892774,0,70,255.0,255.0,255.0
334,16.7,5.142331396170243,-1.2753396848412243e-51,-8.871416118693254,0.1371577351726272,1.4755097332772075e-50,-0.6144390099749947,0.00886043416344885,3.863178751636167e-49,-0.04935255013431536,0,70,255.0,255.0,255.0
335,16.75,5.1492,0.0,-8.9022,0.13757924858609966,3.7352239545837673e-50,-0.6169210447013451,0.008000102375448126,5.175678133589942e-49,-0.04992883891970301,0,70,255.0,255.0,255.0
336,16.8,5.1560894040345095,2.3104753115592388e-51,-8.933107738984585,0.13800574233890836,5.098484426790197e-50,-0.6193740286993731,0.009059647736900015,2.77363755235699e-50,-0.0481905210014151,0,70,255.0,255.0,255.0
337,16.85,5.16300145718836,4.690291561927404e-51,-8.964135954271672,0.1384852133597897,4.0125877098194706e-50,-0.6217400968014867,0.010119193098351905,-4.620950623118544e-49,-0.04645220308312718,0,70,255.0,255.0,255.0
338,16.900000000000002,5.1699388083249564,5.914870156515902e-51,-8.99528030006647,0.13901766164874355,4.775338036715861e-51,-0.6240192490076859,0.011178738459803795,-9.519265001472788e-49,-0.04471388516483926,0,70,255.0,255.0,255.0
339,16.95,5.176904106307701,4.759632500736329e-51,-9.026536430574177,0.13960308720577003,-5.506677291652942e-50,-0.6262114853179706,0.01223828382125561,-1.441757937982668e-48,-0.04297556724655147,0,70,255.0,255.0,255.0
340,17.0,5.1839,0.0,-9.0579,0.1402414900308691,-1.3940045576154963e-49,-0.6283168057323408,0.013297829182707499,-1.9315893758180925e-48,-0.041237249328260894,0,70,255.0,255.0,255.0
341,17.05,5.190928089350665,-8.622811252372611e-51,-9.089367643924483,0.14086993524855923,-1.90278029223797e-49,-0.6303940927709493,0.011839979524896084,-1.0351356267177285e-49,-0.04185423221607448,0,70,255.0,255.0,255.0
342,17.1,5.197985778650142,-1.7504406411424658e-50,-9.120939923429502,0.14142548798335874,-1.4975181202872703e-49,-0.6325022289539484,0.010382129867084668,1.7245622504745468e-48,-0.042471215103888064,0,70,255.0,255.0,255.0
343,17.150000000000002,5.205069423274286,-2.207459594429022e-50,-9.152618380972283,0.1419081482352677,-1.7821804176339804e-50,-0.6346412142813381,0.008924280209273255,3.552638063620867e-48,-0.04308819799170165,0,70,255.0,255.0,255.0
344,17.2,5.212175378598952,-1.776319031810409e-50,-9.184404559010042,0.14231791600428603,2.055119943333455e-49,-0.6368110487531184,0.0074664305514619425,5.380713876767057e-48,-0.04370518087951519,0,70,255.0,255.0,255.0
345,17.25,5.2193,0.0,-9.2163,0.14265479129041386,5.202495835003609e-49,-0.6390117323692894,0.00600858089364964,7.208789689913378e-48,-0.044322163767331446,0,70,255.0,255.0,255.0
346,17.3,5.226440638562834,3.2180769697931205e-50,-9.248305685317492,0.1429785166668423,7.10127272627286e-49,-0.641209600216831,0.006940434163486943,3.863178751635219e-49,-0.04359255013433091,0,70,255.0,255.0,255.0
347,17.35,5.233598628211075,6.532733408377124e-50,-9.280420352010324,0.14334883470676257,5.588813710167137e-49,-0.6433709873827226,0.007872287433324247,-6.436153939586335e-48,-0.04286293650133038,0,70,255.0,255.0,255.0
348,17.400000000000002,5.240776298577901,8.2383513620645e-50,-9.312642176044406,0.14376574541017473,6.65118786686432e-50,-0.645495893866964,0.008804140703161552,-1.3258625754336191e-47,-0.04213332286832984,0,70,255.0,255.0,255.0
349,17.45,5.247975979296484,6.629312877168007e-50,-9.344969333385658,0.14422924877707868,-7.669812044168532e-49,-0.6475843196695555,0.00973599397299879,-2.0081097569085562e-47,-0.04140370923532936,0,70,255.0,255.0,255.0
350,17.5,5.2552,0.0,-9.3774,0.14473934480747458,-1.941597878239894e-48,-0.649636264790497,0.010667847242835204,-2.6903569383835406e-47,-0.040674095602325266,0,70,255.0,255.0,255.0
351,17.55,5.2624501563980015,-1.201002675393522e-49,-9.409932814805547,0.14526399808407653,-2.6502310612853464e-48,-0.651679506361719,0.010318283821242863,-1.4417579379823077e-48,-0.04105556724655238,0,70,255.0,255.0,255.0
352,17.6,5.269726108505557,-2.4380492992366027e-49,-9.44256826852921,0.14577117318959887,-2.085773672038127e-48,-0.6537418215151523,0.009968720399650523,2.402005350787079e-47,-0.04143703889077949,0,70,255.0,255.0,255.0
353,17.650000000000002,5.27702698241411,-3.0745945853828964e-49,-9.4753073148501,0.1462608701240416,-2.4822571049823255e-49,-0.6558232102507969,0.009619156978058182,4.948186495372388e-47,-0.0418185105350066,0,70,255.0,255.0,255.0
354,17.7,5.284351904215108,-2.4740932476861594e-49,-9.508150907447325,0.1467330888874047,2.862412823334066e-48,-0.6579236725686528,0.009269593556465866,7.494367639957518e-47,-0.04219998217923368,0,70,255.0,255.0,255.0
355,17.75,5.2917,0.0,-9.5411,0.14718782947968817,7.246141929459214e-48,-0.6600432084687201,0.00892003013487308,1.0040548784542826e-46,-0.04258145382345635,0,70,255.0,255.0,255.0
356,17.8,5.299070735845159,4.482203004594776e-49,-9.574155055460322,0.14764549099684643,9.8907969725141e-48,-0.6621523743362945,0.009386430551457098,5.380713876765726e-48,-0.04178518087951967,0,70,255.0,255.0,255.0
357,17.85,5.306464937766698,9.098923856108697e-49,-9.607314573872843,0.1481264725348339,7.784213317135795e-48,-0.6642217265566721,0.009852830968041118,-8.964406009189681e-47,-0.040988907935582984,0,70,255.0,255.0,255.0
358,17.900000000000002,5.313883771765657,1.1474543205325137e-48,-9.640576564555204,0.14863077409365055,9.263909633242891e-49,-0.6662512651298529,0.010319231384625135,-1.8466883406055935e-46,-0.040192634991646305,0,70,255.0,255.0,255.0
359,17.95,5.3213284038430775,9.233441703027838e-49,-9.673939036825043,0.1491583956732964,-1.0682670088919411e-47,-0.6682409900558367,0.010785631801209122,-2.796936080292151e-46,-0.039396362047709674,0,70,255.0,255.0,255.0
360,18.0,5.3288,0.0,-9.7074,0.14970933727377145,-2.7042969839596964e-47,-0.6701909013346238,0.011252032217792696,-3.7471838199787766e-46,-0.038600089103772994,0,70,255.0,255.0,255.0
361,18.05,5.336298900221359,-1.672780934298558e-48,-9.740957363353166,0.15023403792854165,-3.691295682877106e-47,-0.6720949962931007,0.009735993973015389,-2.0081097569080542e-47,-0.03756370923530364,0,70,255.0,255.0,255.0
362,18.1,5.34382214042765,-3.395764612519819e-48,-9.77460863597942,0.150682936671073,-2.905107959650505e-47,-0.6739472722581541,0.008219955728238084,3.3455618685971657e-46,-0.03652732936683429,0,70,255.0,255.0,255.0
363,18.150000000000002,5.351365930523262,-4.282357823591765e-48,-9.808351226929092,0.15105603350136548,-3.457338142798924e-48,-0.6757477292297842,0.006703917483460777,6.891934712885137e-46,-0.03549094949836493,0,70,255.0,255.0,255.0
364,18.2,5.358926480412583,-3.445967356442519e-48,-9.842182545252507,0.15135332841941906,3.986826753234359e-47,-0.6774963672079907,0.005187879238683578,1.0438307557172856e-45,-0.034454569629895654,0,70,255.0,255.0,255.0
365,18.25,5.3665,0.0,-9.8761,0.15157482142523385,1.0092573742892864e-46,-0.6791931861927737,0.0036718409939069385,1.3984680401460821e-45,-0.033418189761428074,0,70,255.0,255.0,255.0
366,18.3,5.374084063269406,6.242903436734754e-48,-9.910101891127015,0.15180235728899252,1.3776103034257015e-46,-0.6808916404912916,0.005429593556440774,7.494367639955652e-47,-0.034519982179284106,0,70,255.0,255.0,255.0
367,18.35,5.381681700522702,1.2673166064468406e-47,-9.944190082209477,0.15211778078087795,1.084201050688844e-46,-0.6826451844107021,0.007187346118974608,-1.248580687346969e-45,-0.03562177459714014,0,70,255.0,255.0,255.0
368,18.400000000000002,5.389297306141295,1.5981976973834547e-47,-9.978367327728433,0.15252109190089003,1.2902961607871429e-47,-0.6844538179510056,0.008945098681508442,-2.572105051093495e-45,-0.03672356701499618,0,70,255.0,255.0,255.0
369,18.45,5.3969352745065935,1.2860525255467297e-47,-10.012636382164924,0.15301229064902877,-1.487904000404549e-46,-0.6863175411122017,0.010702851244042152,-3.8956294148399264e-45,-0.03782535943285213,0,70,255.0,255.0,255.0
370,18.5,5.4046,0.0,-10.047,0.15359137702529424,-3.766599798761176e-46,-0.6882363538942908,0.01246060380657621,-5.219153778586452e-45,-0.038927151850712605,0,70,255.0,255.0,255.0
371,18.55,5.412294446701021,-2.329883281264046e-47,-10.081459872138778,0.15417253291548888,-5.141311645415094e-46,-0.6901464417417508,0.010785631801208749,-2.796936080291463e-46,-0.0374763620476809,0,70,255.0,255.0,255.0
372,18.6,5.420015857481545,-4.72968996453538e-47,-10.116013435182674,0.15466994020541514,-4.046293406790325e-46,-0.691983990099059,0.009110659795841289,4.659766562528159e-45,-0.036025572244649195,0,70,255.0,255.0,255.0
373,18.650000000000002,5.427760044911559,-5.964555007174642e-47,-10.150657062157183,0.15508359889507303,-4.815450828868683e-47,-0.6937489989662157,0.007435687790473828,9.599226733085464e-45,-0.0345747824416175,0,70,255.0,255.0,255.0
374,18.7,5.435522821561048,-4.799613366542665e-47,-10.185387126087793,0.1554135089844625,5.552933326294759e-46,-0.6954414683432206,0.005760715785106486,1.453868690364242e-44,-0.0331239926385859,0,70,255.0,255.0,255.0
375,18.75,5.4433,0.0,-10.2202,0.15565967047358367,1.4057141820755416e-45,-0.6970613982300742,0.004085743779739248,1.947814707419972e-44,-0.03167320283555419,0,70,255.0,255.0,255.0
376,18.8,5.451088549926511,8.695242781382708e-47,-10.25509302031788,0.15589151104904467,1.9187636278234675e-45,-0.6986665925417097,0.005187879238700937,1.0438307557170275e-45,-0.03253456962986584,0,70,255.0,255.0,255.0
377,18.85,5.45889006955112,1.765144325169468e-46,-10.290067377059835,0.15617845839745376,1.5100972576472454e-45,-0.7003148551930608,0.006290014697662626,-1.7390485562765665e-44,-0.033395936424177486,0,70,255.0,255.0,255.0
378,18.900000000000002,5.466707314212473,2.2260022331315116e-46,-10.325125223642848,0.15652051251881094,1.7971507154687635e-46,-0.7020061861841275,0.0073921501566243135,-3.5824801881248363e-44,-0.03425730321848913,0,70,255.0,255.0,255.0
379,18.95,5.474543039249217,1.7912400940623928e-46,-10.360268713483908,0.1569176734131162,-2.0723829304774478e-45,-0.7037405855149097,0.008494285615585923,-5.425911819972974e-44,-0.03511867001280072,0,70,255.0,255.0,255.0
380,19.0,5.4824,0.0,-10.3955,0.15736994108036953,-5.246196748426048e-45,-0.7055180531854074,0.009596421074547612,-7.269343451821244e-44,-0.03598003680710793,0,70,255.0,255.0,255.0
381,19.05,5.490280153592932,-3.2451087844266782e-46,-10.430820046589707,0.15782942288833438,-7.160923346752362e-45,-0.7072671880914075,0.008782851244046819,-3.895629414838964e-45,-0.03398535943289624,0,70,255.0,255.0,255.0
382,19.1,5.498182264313975,-6.5876083042243334e-46,-10.466225056577997,0.15824822620477422,-5.63575968990995e-45,-0.708916589128697,0.007969281413546025,6.490217568853452e-44,-0.03199068205868455,0,70,255.0,255.0,255.0
383,19.150000000000002,5.506104298238552,-8.307553431808582e-46,-10.501710043271432,0.158626351029689,-6.707057778988184e-46,-0.710466256297276,0.0071557115830452305,1.3369998079190797e-43,-0.02999600468447286,0,70,255.0,255.0,255.0
384,19.200000000000003,5.514044221442085,-6.6849990395950295e-46,-10.53727001997658,0.15896379736307875,7.734238389281037e-45,-0.7119161895971444,0.006342141752544437,2.024977858952815e-43,-0.02800132731026117,0,70,255.0,255.0,255.0
385,19.25,5.522,0.0,-10.5729,0.15926056520494347,1.9579072811628652e-44,-0.7132663890283021,0.005528571922043923,2.7129559099865007e-43,-0.026006649936047843,0,70,255.0,255.0,255.0
386,19.3,5.52997003570176,1.2110910859568446e-45,-10.608596393323296,0.1595427973976218,2.6724929759185976e-44,-0.7146006550926675,0.005760715785089591,1.4538686903638845e-44,-0.02736399263856539,0,70,255.0,255.0,255.0
387,19.35,5.537954473192982,2.458528889172787e-45,-10.64436119662819,0.15983663678345245,2.1032941501992554e-44,-0.7160027882921586,0.005992859648135258,-2.4221821719137238e-43,-0.028721335341082937,0,70,255.0,255.0,255.0
388,19.400000000000002,5.5459538928333245,3.100421149410281e-45,-10.680197803271431,0.16014208336243535,2.5031080400483937e-45,-0.7174727886267758,0.0062250035111809255,-4.989751212863837e-43,-0.030078678043600485,0,70,255.0,255.0,255.0
389,19.450000000000003,5.553968874982444,2.494875606431782e-45,-10.716109606609784,0.16045913713457052,-2.8864570626646515e-44,-0.7190106560965188,0.006457147374226592,-7.557320253813947e-43,-0.03143602074611803,0,70,255.0,255.0,255.0
390,19.5,5.562,0.0,-10.7521,0.16078779809985802,-7.307009449808856e-44,-0.7206163907013875,0.0066892912372724656,-1.0124889294763874e-42,-0.03279336344863548,0,70,255.0,255.0,255.0
391,19.55,5.57004770360003,-4.519853465384709e-45,-10.788171180117114,0.16111938752117957,-9.973879568999152e-44,-0.7222181915379228,0.0065742856155903235,-5.425911819971626e-44,-0.0312786700127736,0,70,255.0,255.0,255.0
392,19.6,5.5781118429141,-9.175354726268711e-45,-10.824320556909266,0.16144522666141706,-7.849600631806023e-44,-0.7237442577026648,0.0064592799939081815,9.039706930769549e-43,-0.029763976576911724,0,70,255.0,255.0,255.0
393,19.650000000000002,5.586192130428155,-1.1570929254460266e-44,-10.860544343642854,0.1617653155205704,-9.341726382294724e-45,-0.725194589195614,0.0063442743722260395,1.862200504353626e-42,-0.028249283141049845,0,70,255.0,255.0,255.0
394,19.700000000000003,5.59428827862814,-9.311002521767614e-45,-10.896838753584296,0.16207965409863967,1.0772404411730503e-43,-0.7265691860167699,0.0062292687505438975,2.820430315630297e-42,-0.026734589705187963,0,70,255.0,255.0,255.0
395,19.75,5.6024,0.0,-10.9332,0.1623882423956248,2.7270130518072556e-43,-0.7278680481661328,0.006114263128861763,3.7786601269069004e-42,-0.02521989626932708,0,70,255.0,255.0,255.0
396,19.8,5.610527149898119,1.6868322775581994e-44,-10.969625286208245,0.16269965251765997,3.722302530007801e-43,-0.7291505787556235,0.0063421417525446645,2.0249778589522733e-43,-0.026081327310298986,0,70,255.0,255.0,255.0
397,19.85,5.618670155150619,3.4242890015902065e-44,-11.006115775734765,0.16302245657087927,2.9295108377024854e-43,-0.7304761808971627,0.006570020376227565,-3.373664555116446e-42,-0.02694275835127089,0,70,255.0,255.0,255.0
398,19.900000000000002,5.62682958545406,4.318329586843079e-44,-11.042673622157162,0.16335665455528273,3.486379748913068e-44,-0.7318448545907507,0.006797898999910466,-6.94982689612812e-42,-0.027804189392242797,0,70,255.0,255.0,255.0
399,19.950000000000003,5.635006010505001,3.4749134480638707e-44,-11.07930097905304,0.16370224647087034,-4.020316058425735e-43,-0.733256599836387,0.0070257776235933675,-1.0525989237139792e-41,-0.028665620433214703,0,70,255.0,255.0,255.0
400,20.0,5.6432,0.0,-11.116,0.16405923231764205,-1.0177351262248136e-42,-0.7347114166340719,0.007253656247275808,-1.4102151578151215e-41,-0.029527051474187438,0,70,255.0,255.0,255.0
401,20.05,5.651411696807494,-6.295343763694326e-44,-11.152771675049909,0.16440200240817962,-1.3891822163131291e-42,-0.7361394934395797,0.006457147374226612,-7.557320253811915e-43,-0.027596020746127586,0,70,255.0,255.0,255.0
402,20.1,5.659639536483424,-1.2779620533733954e-43,-11.189612340151685,0.16470494705506472,-1.0933083287629339e-42,-0.7374710187086847,0.005660638501177417,1.2590687527388832e-41,-0.025664990018067737,0,70,255.0,255.0,255.0
403,20.150000000000002,5.667881527755607,-1.6116225421926289e-43,-11.226517167728506,0.16496806625829738,-1.3011346357422764e-43,-0.7387059924413867,0.004864129628128221,2.5937107080158857e-41,-0.023733959290007885,0,70,255.0,255.0,255.0
404,20.200000000000003,5.6761356793518605,-1.2968553540078718e-43,-11.263481330203552,0.16519136001787757,1.5004023792529887e-42,-0.7398444146376856,0.004067620755079026,3.928352663292888e-41,-0.021802928561948032,0,70,255.0,255.0,255.0
405,20.25,5.6844,0.0,-11.3005,0.16537482833380523,3.798239199718529e-42,-0.7408862852975815,0.0032711118820283325,5.262994618569796e-41,-0.01987189783389276,0,70,255.0,255.0,255.0
406,20.3,5.692673262871905,2.34945427772191e-43,-11.337569613592118,0.16556433784961963,5.1844986122517357e-42,-0.7419074474860581,0.004309268750547993,2.8204303156295353e-42,-0.020974589705169338,0,70,255.0,255.0,255.0
407,20.35,5.700957298915686,4.769419313334561e-43,-11.3746916636585,0.16580575520886004,4.080282231281486e-42,-0.7429837442680984,0.005347425619067654,-4.698908555443888e-41,-0.022077281576445916,0,70,255.0,255.0,255.0
408,20.400000000000002,5.709254703523515,6.014657210086207e-43,-11.411868906928822,0.1660990804115264,4.855900568077799e-43,-0.7441151756437028,0.006385582487587315,-9.679860142450732e-41,-0.023179973447722494,0,70,255.0,255.0,255.0
409,20.450000000000003,5.717568072087563,4.839930071225099e-43,-11.449104100132764,0.16644431345761876,-5.599577911169385e-42,-0.7453017416128708,0.007423739356106977,-1.4660811729457572e-40,-0.024282665318999072,0,70,255.0,255.0,255.0
410,20.5,5.7259,0.0,-11.4864,0.1668414543471371,-1.4175221672649302e-41,-0.7465434421756026,0.008461896224627008,-1.964176331646406e-40,-0.02538535719027646,0,70,255.0,255.0,255.0
411,20.55,5.734252051704888,-8.768282734518209e-43,-11.52375867058162,0.1672286461933426,-1.9348812232693811e-41,-0.7477987166161901,0.007025777623593645,-1.0525989237136932e-41,-0.024825620433222353,0,70,255.0,255.0,255.0
412,20.6,5.742621667853833,-1.779971519996485e-42,-11.561179405214322,0.16754403210949648,-1.5227820596363008e-41,-0.749026004218925,0.005589659022560282,1.7536565469036672e-40,-0.02426588367616825,0,70,255.0,255.0,255.0
413,20.650000000000002,5.751005258150337,-2.2447006298152202e-42,-11.598660804556214,0.16778761209559864,-1.8122467636568887e-42,-0.7502253049838069,0.004153540421526919,3.612572986178704e-40,-0.023706146919114143,0,70,255.0,255.0,255.0
414,20.700000000000003,5.759399232297892,-1.806286493089253e-42,-11.636201469265405,0.16795938615164918,2.0897909265424548e-41,-0.7513966189108363,0.0027174218204935553,5.47148942545374e-40,-0.023146410162060038,0,70,255.0,255.0,255.0
415,20.75,5.7678,0.0,-11.6738,0.16805935427764804,5.290264749087868e-41,-0.752539946000013,0.0012813032194609608,7.330405864728645e-40,-0.022586673405002422,0,70,255.0,255.0,255.0
416,20.8,5.7762049303085465,3.272367666035092e-42,-11.711454904081405,0.1681450773770112,7.221075031852352e-41,-0.7536496860491868,0.0021476207550657944,3.9283526632918346e-41,-0.02180292856194884,0,70,255.0,255.0,255.0
417,20.85,5.784615229668981,6.642944148652484e-42,-11.749164315484217,0.16827411635315462,5.683100015417055e-41,-0.7547202388562079,0.003013938290670628,-6.544735332070278e-40,-0.021019183718895263,0,70,255.0,255.0,255.0
418,20.900000000000002,5.793033063875143,8.377336798252259e-42,-11.786926274846323,0.16844647120607828,6.763396997819827e-42,-0.7557516044210764,0.003880255826275462,-1.348230593046974e-39,-0.020235438875841682,0,70,255.0,255.0,255.0
419,20.950000000000003,5.80146059872087,6.741152965234502e-42,-11.824738822805624,0.16866214193578216,-7.799205915052878e-41,-0.7567437827437921,0.004746573361880295,-2.04198765288692e-39,-0.019451694032788104,0,70,255.0,255.0,255.0
420,21.0,5.8099,0.0,-11.8626,0.1689211285422663,-1.974353682908654e-40,-0.7576967738243552,0.0056128908974837355,-2.7357447127268176e-39,-0.01866794918973902,0,70,255.0,255.0,255.0
421,21.05,5.818353027060926,-1.221264239068855e-41,-11.90050811309276,0.16919904429860616,-2.694941890414003e-40,-0.7586265391870732,0.005503739356110903,-1.4660811729453657e-40,-0.018522665318981165,0,70,255.0,255.0,255.0
422,21.1,5.826819813470243,-2.4791805074613447e-41,-11.938462532848817,0.16947150247787737,-2.120961800203193e-40,-0.7595490403562533,0.005394587814738069,2.4425284781377444e-39,-0.018377381448223314,0,70,255.0,255.0,255.0
423,21.150000000000002,5.835300086349097,-3.126464656319381e-41,-11.976462896058495,0.16973850308007996,-2.5241341227622303e-41,-0.7604642773318955,0.005285436273365236,5.031665073570025e-39,-0.01823209757746546,0,70,255.0,255.0,255.0
424,21.200000000000003,5.843793572818633,-2.5158325367848745e-41,-12.014508839512116,0.1700000461052139,2.910703273366906e-40,-0.7613722501139999,0.005176284731992402,7.620801669002306e-39,-0.01808681370670761,0,70,255.0,255.0,255.0
425,21.25,5.8523,0.0,-12.0526,0.17025613155327918,7.36838825672583e-40,-0.7622729587025664,0.005067133190618467,1.0209938264434406e-38,-0.017941529835950654,0,70,255.0,255.0,255.0
426,21.3,5.860818961447747,4.5578201896719105e-41,-12.09073584354756,0.1704987454285573,1.0057660058470775e-39,-0.763156157202517,0.004637421820506565,5.471489425452252e-40,-0.017386410162071,0,70,255.0,255.0,255.0
427,21.35,5.869349516450047,9.252427614980131e-41,-12.128915153120523,0.17071987373532985,7.915537199271064e-40,-0.7640115997187735,0.0042077104503946625,-9.115640379343956e-39,-0.016831290488191347,0,70,255.0,255.0,255.0
428,21.400000000000002,5.877890590728473,1.1668124945452303e-40,-12.167136540919708,0.1709195164735968,9.420196791266914e-41,-0.7648392862513361,0.0037779990802827607,-1.8778429701233137e-38,-0.016276170814311694,0,70,255.0,255.0,255.0
429,21.450000000000003,5.886441110004599,9.389214850616047e-41,-12.20539861914593,0.17109767364335812,-1.0862892501962343e-39,-0.7656392168002047,0.003348287710170859,-2.8441219023122315e-38,-0.01572105114043204,0,70,255.0,255.0,255.0
430,21.5,5.895,0.0,-12.2437,0.17125434524461383,-2.7499199343994668e-39,-0.7664113913653793,0.002918576340059209,-3.810400834501081e-38,-0.015165931466548876,0,70,255.0,255.0,255.0
431,21.55,5.903566327148081,-1.7010016519618789e-40,-12.282039712717005,0.17139797398716242,-3.753569834346911e-39,-0.767180832002863,0.002826573361884631,-2.0419876528863723e-39,-0.015611694032797814,0,70,255.0,255.0,255.0
432,21.6,5.912139720729567,-3.4530529952459184e-40,-12.320418454669092,0.17153700258080232,-2.954118699688107e-39,-0.767972560768659,0.002734570383710053,3.4020033039238063e-38,-0.01605745659904675,0,70,255.0,255.0,255.0
433,21.650000000000002,5.920719950737014,-4.354603512548981e-40,-12.358837340262678,0.17167143102553345,-3.5156653042305523e-40,-0.7687865776627677,0.0026425674055354747,7.00820537313625e-38,-0.016503219165295686,0,70,255.0,255.0,255.0
434,21.700000000000003,5.929306787162973,-3.504102686567934e-40,-12.397297483904177,0.17180125932135584,4.0540866734482435e-39,-0.7696228826851887,0.0025505644273608966,1.0614407442348692e-37,-0.016948981731544625,0,70,255.0,255.0,255.0
435,21.75,5.9379,0.0,-12.4358,0.17192648746826955,1.0262840911925284e-38,-0.7704814758359222,0.002458561449186547,1.422060951156088e-37,-0.017394744297794418,0,70,255.0,255.0,255.0
436,21.8,5.946499729959926,6.3482245888803235e-40,-12.474345305584423,0.1720693586227987,1.4008513331540564e-38,-0.771320514786034,0.0032562847319791755,7.620801669000251e-39,-0.016166813706679387,0,70,255.0,255.0,255.0
437,21.85,5.955107600631683,1.2886969219485658e-39,-12.512931028203111,0.17225211594146747,1.1024921078825318e-38,-0.7720981572065901,0.004054008014771804,-1.2696449177760829e-37,-0.01493888311556436,0,70,255.0,255.0,255.0
438,21.900000000000002,5.963725606323475,1.62516015556507e-39,-12.55155409802959,0.17247475942427587,1.3120641537795498e-39,-0.7728144030975905,0.004851731297564433,-2.6154978522421683e-37,-0.01371095252444933,0,70,255.0,255.0,255.0
439,21.950000000000003,5.972355741343512,1.3077489261210123e-39,-12.590211445237378,0.17273728907122393,-1.513005744359674e-38,-0.7734692524590351,0.005649454580357061,-3.961350786708254e-37,-0.0124830219333343,0,70,255.0,255.0,255.0
440,22.0,5.981,0.0,-12.6289,0.1730397048823116,-3.830144371330167e-38,-0.7740627052909239,0.0064471778631494114,-5.307203721174245e-37,-0.011255091342219359,0,70,255.0,255.0,255.0
441,22.05,5.989659553012214,-2.3691896703559415e-39,-12.667617464945307,0.1733325915216445,-5.228048349181534e-38,-0.7746411088529912,0.00526828771016608,-2.844121902311464e-38,-0.01188105114047354,0,70,255.0,255.0,255.0
442,22.1,5.998332276743704,-4.809482388269672e-39,-12.706364632518465,0.17356653365332822,-4.1145565615613175e-38,-0.7752508104049712,0.004089397557182749,4.738379340711952e-37,-0.012507010938727721,0,70,255.0,255.0,255.0
443,22.150000000000002,6.007015223969087,-6.06518027100538e-39,-12.74514306761897,0.17374153127736278,-4.8966900846951546e-39,-0.775891809946864,0.0029105074041994193,9.76117087165505e-37,-0.013132970736981902,0,70,255.0,255.0,255.0
444,22.200000000000003,6.015705447462979,-4.880585435827254e-39,-12.783954335146317,0.17385758439374815,5.646614310093871e-38,-0.7765641074786694,0.0017316172512160883,1.4783962402598148e-36,-0.013758930535236082,0,70,255.0,255.0,255.0
445,22.25,6.0244,0.0,-12.8228,0.1739146930024844,1.429429339412814e-37,-0.7772677030003876,0.0005527270982326193,1.9806753933540893e-36,-0.014384890333490219,0,70,255.0,255.0,255.0
446,22.3,6.033096457991218,8.841936222535735e-39,-12.861680834634353,0.17394427529062437,1.9511342063572083e-37,-0.7779550498020128,0.000630564427365422,1.0614407442345823e-37,-0.013108981731520312,0,70,255.0,255.0,255.0
447,22.35,6.041794492393503,1.7949232631130126e-38,-12.900594441723035,0.17397774944522093,1.535573413836274e-37,-0.7785786011735397,0.0007084017564982247,-1.768387244507173e-36,-0.011833073129550406,0,70,255.0,255.0,255.0
448,22.400000000000002,6.050494297800181,2.2635560928456455e-38,-12.93953763149454,0.17401511546627418,1.827469618500108e-38,-0.7791383571149679,0.0007862390856310274,-3.642918563437803e-36,-0.0105571645275805,0,70,255.0,255.0,255.0
449,22.450000000000003,6.059196068804573,1.8214592817188025e-38,-12.978507214177364,0.17405637335378407,-2.1073451496015815e-37,-0.7796343176262978,0.0008640764147638302,-5.5174498823684354e-36,-0.009281255925610594,0,70,255.0,255.0,255.0
450,22.5,6.0679,0.0,-13.0175,0.17410152310775057,-5.334702920518239e-37,-0.7800664827075291,0.0009419137438961833,-7.39198120129893e-36,-0.008005347323643441,0,70,255.0,255.0,255.0
451,22.55,6.076606615022916,-3.2998555219787e-38,-13.056513596517286,0.17417030731585711,-7.281731990510679e-37,-0.7804826919389529,0.0018094545803658893,-3.96135078670717e-37,-0.008643021933309757,0,70,255.0,255.0,255.0
452,22.6,6.085317753682284,-6.698744813625081e-38,-13.095548800589405,0.17428246856578716,-5.730837999188962e-37,-0.7809307849008601,0.0026769954168355953,6.599711043957496e-36,-0.00928069654297607,0,70,255.0,255.0,255.0
453,22.650000000000002,6.094035584830192,-8.447706344282043e-38,-13.13460720640288,0.17443800685754068,-6.820209465530868e-38,-0.7814107615932506,0.003544536253305301,1.3595557166585707e-35,-0.009918371152642385,0,70,255.0,255.0,255.0
454,22.700000000000003,6.102762277318734,-6.797778583292479e-38,-13.173690408144237,0.1746369221911177,7.86471916739694e-37,-0.7819226220161244,0.004412077089775007,2.0591403289213921e-35,-0.010556045762308699,0,70,255.0,255.0,255.0
455,22.75,6.1115,0.0,-13.2128,0.17487921456651814,1.9909382342660142e-36,-0.7824663661694815,0.0052796179262430964,2.758724941184163e-35,-0.011193720371975857,0,70,255.0,255.0,255.0
456,22.8,6.12024988191712,1.2315228465661223e-37,-13.251936779296509,0.17510249544595452,2.7175793755685506e-36,-0.7829941824421629,0.003651617251211302,1.478396240259414e-36,-0.009918930535278373,0,70,255.0,255.0,255.0
457,22.85,6.129008892877367,2.500005599138731e-37,-13.291098355919353,0.17524437629163928,2.1387778582919576e-36,-0.7834582592230094,0.002023616576179508,-2.46304569313228e-35,-0.00864414069858089,0,70,255.0,255.0,255.0
458,22.900000000000002,6.137772962879055,3.1527269284282522e-37,-13.330281542893946,0.17530485710357246,2.545336824362339e-37,-0.7838585965120209,0.00039561590114771394,-5.073931010290502e-35,-0.007369350861883407,0,70,255.0,255.0,255.0
459,22.950000000000003,6.146538021920494,2.5369655051451123e-37,-13.369483153245692,0.17528393788175406,-2.935153151998617e-36,-0.7841951943091977,-0.0012323847738840805,-7.684816327448724e-35,-0.006094561025185924,0,70,255.0,255.0,255.0
460,23.0,6.1553,0.0,-13.4087,0.17518161862618403,-7.430282645012232e-36,-0.7844680526145396,-0.002860385448916869,-1.029570164460676e-34,-0.004819771188484978,0,70,255.0,255.0,255.0
461,23.05,6.164056257308609,-4.59610583406662e-37,-13.447929686296687,0.17508371090032948,-1.0142144303223133e-35,-0.7847245782923922,-0.0010559235852659575,-5.517449882366932e-36,-0.005441255925619623,0,70,255.0,255.0,255.0
462,23.1,6.172809874808253,-9.330147915192417e-37,-13.487172975733188,0.17507602626765742,-7.982027633248933e-36,-0.7850121782071015,0.000748538278384954,9.192211668133374e-35,-0.006062740662754269,0,70,255.0,255.0,255.0
463,23.150000000000002,6.181565363653594,-1.1766137079284805e-36,-13.526431422021345,0.17515856472816796,-9.499326350896282e-37,-0.7853308523586676,0.0025530001420358654,1.8936168324503439e-34,-0.006684225399888914,0,70,255.0,255.0,255.0
464,23.200000000000003,6.190327234999291,-9.468084162251203e-37,-13.565706578873003,0.17533132628186102,1.095414069125478e-35,-0.7856806007470905,0.004357462005686777,2.868012498087351e-34,-0.007305710137023559,0,70,255.0,255.0,255.0
465,23.25,6.1991,0.0,-13.605,0.1755943109287366,2.7730192345782915e-35,-0.78606142337237,0.00616192386933645,3.8424081637242876e-34,-0.007927194874158161,0,70,255.0,255.0,255.0
466,23.3,6.207886688848448,1.7152900489700357e-36,-13.644312475516749,0.1758586609527152,3.7850997837323985e-35,-0.786427504388281,0.004412077089808194,2.0591403289208303e-35,-0.006716045762285088,0,70,255.0,255.0,255.0
467,23.35,6.2166844078896215,3.482058606163093e-36,-13.683641741147904,0.17603551863771744,2.9789332674703774e-35,-0.7867330279485986,0.0026622303102799396,-3.4305800979401215e-34,-0.0055048966504120155,0,70,255.0,255.0,255.0
468,23.400000000000002,6.225488782506571,4.391182138871096e-36,-13.722984769020684,0.1761248839837432,3.545196857922278e-36,-0.7869779940533222,0.0009123835307516849,-7.067074228772326e-34,-0.004293747538538943,0,70,255.0,255.0,255.0
469,23.450000000000003,6.234295438082346,3.533537114385969e-36,-13.762338531262309,0.17612675699079258,-4.0881409613020483e-35,-0.7871624027024524,-0.0008374632487765706,-1.070356835960453e-33,-0.00308259842666587,0,70,255.0,255.0,255.0
470,23.5,6.2431,0.0,-13.8017,0.17604113765886556,-1.0349048673811942e-34,-0.7872862538959889,-0.0025873100283051453,-1.4340062490436473e-33,-0.0018714493147973243,0,70,255.0,255.0,255.0
471,23.55,6.2518993872975965,-6.40154961247348e-36,-13.841066811636324,0.17594564528881082,-1.412618470460728e-34,-0.7873894041544879,-0.0012323847738845014,-7.684816327446643e-35,-0.0022545610251606674,0,70,255.0,255.0,255.0
472,23.6,6.26069569363326,-1.299521963313313e-35,-13.880439259675208,0.1759178991814771,-1.1117530306556617e-34,-0.7875117099985051,0.00012254048053614254,1.2803099224947144e-33,-0.0026376727355240104,0,70,255.0,255.0,255.0
473,23.650000000000002,6.2694923063201236,-1.6388114847555905e-35,-13.919818301895933,0.17595789933686443,-1.3230854796599517e-35,-0.7876531714280403,0.0014774657349567863,2.637468008263895e-33,-0.0030207844458873534,0,70,255.0,255.0,255.0
474,23.700000000000003,6.278292612671326,-1.3187340041318753e-35,-13.959204896077772,0.1760656457549728,1.525714977608271e-34,-0.7878137884430938,0.0028323909893774304,3.994626094033076e-33,-0.003403896156250696,0,70,255.0,255.0,255.0
475,23.75,6.2871,0.0,-13.9986,0.17624113843580216,3.8623175460669474e-34,-0.7879935610436654,0.004187316243797978,5.3517841798021606e-33,-0.0037870078666140117,0,70,255.0,255.0,255.0
476,23.8,6.295916561961162,2.3890908400923883e-35,-14.038004277937965,0.17640675789203897,5.271963903469672e-34,-0.7881748789937574,0.0024374620056735827,2.8680124980865733e-34,-0.0034657101370656872,0,70,255.0,255.0,255.0
477,23.85,6.304739217577339,4.849881992636942e-35,-14.077417220151268,0.17648488463636952,4.1491187958756085e-34,-0.7883401320573719,0.0006876077675491868,-4.778181680184846e-33,-0.003144412407517363,0,70,255.0,255.0,255.0
478,23.900000000000002,6.313563592212934,6.116127725135253e-35,-14.116838023395594,0.17647551866879388,4.937822232847564e-35,-0.7884893202345091,-0.0010622464705752092,-9.843164610178349e-33,-0.0028231146779690384,0,70,255.0,255.0,255.0
479,23.950000000000003,6.322385311232353,4.921582305088905e-35,-14.156265884426611,0.17637865998931201,-5.694045814302878e-34,-0.7886224435251689,-0.0028121007086996047,-1.4908147540171853e-32,-0.002501816948420714,0,70,255.0,255.0,255.0
480,24.0,6.3312,0.0,-14.1957,0.17619430859792395,-1.4414365316886596e-33,-0.7887395019293512,-0.004561954946824098,-1.9973130470164996e-32,-0.002180519218867083,0,70,255.0,255.0,255.0
481,24.05,6.3400047648577535,-8.916208399122205e-35,-14.235139276611829,0.17601132314303447,-1.967523714341796e-33,-0.7888230798704887,-0.0027574632487553175,-1.0703568359601638e-33,-0.0011625984266364709,0,70,255.0,255.0,255.0
482,24.1,6.348802636057386,-1.8100006007234461e-34,-14.274581459719721,0.17591856227304842,-1.548472215284677e-33,-0.7888557617720148,-0.0009529715506865362,1.7832416798244668e-32,-0.00014467763440585875,0,70,255.0,255.0,255.0
483,24.150000000000002,6.35759812482814,-2.2825699415785424e-34,-14.314024004521706,0.1759160259879658,-1.8428203451730416e-34,-0.7888375476339293,0.0008515201473822441,3.6735190432449506e-32,0.0008732431578247534,0,70,255.0,255.0,255.0
484,24.200000000000003,6.366395742399264,-1.8367595216223745e-34,-14.35346436621579,0.17600371428778666,2.1250468279603253e-33,-0.7887684374562324,0.002656011845451026,5.563796406665433e-32,0.0018911639500553655,0,70,255.0,255.0,255.0
485,24.25,6.3752,0.0,-14.3929,0.1761816271725109,5.379514372147944e-33,-0.7886484312389237,0.00446050354351879,7.454073770085781e-32,0.00290908474228857,0,70,255.0,255.0,255.0
486,24.3,6.3840139786078245,3.3275742756396433e-34,-14.432329015614725,0.17636394953583245,7.342898467020217e-33,-0.7885168015242731,0.0028323909893429138,3.994626094031996e-33,0.002356103843735361,0,70,255.0,255.0,255.0
487,24.35,6.392835038193122,6.7550142036300905e-34,-14.471752140969842,0.1764648662714452,5.778976981551148e-33,-0.7884128208545501,0.001204278435167037,-6.655148551279382e-32,0.0018031229451821516,0,70,255.0,255.0,255.0
488,24.400000000000002,6.401659108474507,8.518666993800641e-34,-14.511170758517597,0.17648437737934916,6.8774991574074135e-34,-0.7883364892297549,-0.0004238341190088398,-1.3709759711961961e-31,0.0012501420466289423,0,70,255.0,255.0,255.0
489,24.450000000000003,6.410482119170595,6.854879855980606e-34,-14.550586250710236,0.17642248285954432,-7.930782730411013e-33,-0.7882878066498873,-0.002051946673184716,-2.0764370872644543e-31,0.0006971611480757331,0,70,255.0,255.0,255.0
490,24.5,6.4193,0.0,-14.59,0.1762791827120307,-2.0076620956903114e-32,-0.7882667731149473,-0.003680059227360033,-2.7818982033326623e-31,0.0001441802495243394,0,70,255.0,255.0,255.0
491,24.55,6.42810972071095,-1.2418676262646351e-33,-14.629412660929269,0.17611687871362963,-2.740407015373907e-32,-0.7882297140324207,-0.0028121007086820402,-1.4908147540167783e-32,0.0013381830515385388,0,70,255.0,255.0,255.0
492,24.6,6.436912411170129,-2.521005621379691e-33,-14.668821976400906,0.1759979726411625,-2.1567435710919908e-32,-0.7881329548097935,-0.0019441421900040477,2.4837352525293066e-31,0.002532185853552738,0,70,255.0,255.0,255.0
493,24.650000000000002,6.445710241273832,-3.179209803362403e-33,-14.708224961407915,0.17592246449462923,-2.566717628445649e-33,-0.7879764954470654,-0.0010761836713260547,5.116551980460291e-31,0.0037261886555669376,0,70,255.0,255.0,255.0
494,24.700000000000003,6.4545053809183575,-2.558275990230004e-33,-14.74761863094328,0.17589035427402988,2.959808409368373e-32,-0.7877603359442368,-0.0002082251526480624,7.749368708391276e-31,0.004920191457581137,0,70,255.0,255.0,255.0
495,24.75,6.4633,0.0,-14.787,0.17590164197936442,7.492696945546451e-32,-0.7874844763013072,0.0006597333660298688,1.0382185436322073e-30,0.006114194259594363,0,70,255.0,255.0,255.0
496,24.8,6.472095938548376,4.634713077494577e-33,-14.826366740668206,0.17593653560965153,1.0227338214793607e-31,-0.7871883423460645,0.0007360118454549547,5.563796406663927e-32,0.00573116395011492,0,70,255.0,255.0,255.0
497,24.85,6.480893717126365,9.408521065155756e-33,-14.865719153426532,0.17597524316390992,8.049076586212852e-32,-0.7869113599062958,0.0008122903248800405,-9.269426154989287e-31,0.0053481336406354775,0,70,255.0,255.0,255.0
498,24.900000000000002,6.489693526430167,1.1864972514069548e-32,-14.905058195850758,0.17601776464213953,9.579120598041857e-33,-0.7866535289820009,0.0008885688043051265,-1.9095231950644964e-30,0.004965103331156035,0,70,255.0,255.0,255.0
499,24.950000000000003,6.498495557155979,9.547615975321959e-33,-14.944384825516659,0.17606410004434045,-1.1046155364432384e-31,-0.7864148495731802,0.0009648472837302123,-2.8921037746300645e-30,0.004582073021676592,0,70,255.0,255.0,255.0
500,25.0,6.5073,0.0,-14.9837,0.17611424937051257,-2.796312568649549e-31,-0.7861953216798334,0.0010411257631544046,-3.874684354195562e-30,0.004199042712196288,0,70,255.0,255.0,255.0
501,25.05,6.516106525095548,-1.7296984683713668e-32,-15.023004376397921,0.1761369788477617,-3.8168945843800517e-31,-0.7859769165833259,-0.0001319466731892927,-2.0764370872638964e-31,0.004537161148101992,0,70,255.0,255.0,255.0
502,25.1,6.524912720324413,-3.5113078639243325e-32,-15.062297409892972,0.17610105470319362,-3.003956277375942e-31,-0.7857416055650233,-0.00130501910953299,3.459396936742783e-30,0.004875279584007695,0,70,255.0,255.0,255.0
503,25.150000000000002,6.533715653005504,-4.4280680252915785e-32,-15.10157825518906,0.1760064769368084,-3.574976476372179e-32,-0.7854893886249252,-0.002478091545876687,7.126437582211956e-30,0.005213398019913398,0,70,255.0,255.0,255.0
504,25.200000000000003,6.54251239045773,-3.563218791105781e-32,-15.1408460669901,0.17585324554860596,4.122481304836115e-31,-0.7852202657630318,-0.0036511639822203847,1.0793478227681127e-29,0.005551516455819102,0,70,255.0,255.0,255.0
505,25.25,6.5513,0.0,-15.1801,0.1756413605385864,1.043598058004355e-30,-0.7849342369793432,-0.004824236418563332,1.4460518873150042e-29,0.005889634891730999,0,70,255.0,255.0,255.0
506,25.3,6.5600763610694335,6.45532256573601e-32,-15.219338953740117,0.17541954899930634,1.4244844516040844e-30,-0.7846159913206112,-0.00404822515263884,7.749368708389193e-31,0.006840191457544811,0,70,255.0,255.0,255.0
507,25.35,6.568842601575986,1.3104379349181757e-31,-15.25856080700159,0.1752365380233225,1.121091745088248e-30,-0.7842502178335886,-0.003272213886714348,-1.2910645131472203e-29,0.0077907480233586224,0,70,255.0,255.0,255.0
508,25.400000000000002,6.577600661547821,1.6525774849759358e-31,-15.297763183393004,0.1750923276106349,1.3341993845684557e-31,-0.7838369165182754,-0.002496202620789856,-2.6596227133783326e-29,0.008741304589172435,0,70,255.0,255.0,255.0
509,25.450000000000003,6.586352481013105,1.3298113566890942e-31,-15.336943706522948,0.1749869177612435,-1.5385309682901227e-30,-0.7833760873746715,-0.001720191354865364,-4.028180913609445e-29,0.009691861154986246,0,70,255.0,255.0,255.0
510,25.5,6.5951,0.0,-15.3761,0.17492030847514833,-3.894760975152465e-30,-0.7828677304027767,-0.0009441800889420371,-5.39673911384046e-29,0.010642417720800879,0,70,255.0,255.0,255.0
511,25.55,6.603844830626719,-2.409159179457267e-31,-15.415230208641614,0.1748728251550173,-5.316248347978332e-30,-0.782343118134216,-0.0009551527163002228,-2.892103774629282e-30,0.01034207302162677,0,70,255.0,255.0,255.0
512,25.6,6.612587273371647,-4.890620953280268e-31,-15.454334562100671,0.17482479320351832,-4.183971352615398e-30,-0.781833523100614,-0.0009661253436584086,4.8183183589146037e-29,0.010041728322452662,0,70,255.0,255.0,255.0
513,25.650000000000002,6.621327300803214,-6.167503137374585e-31,-15.493413811238925,0.17477621262065143,-4.979299890636596e-31,-0.7813389453019707,-0.0009770979710165943,9.925847095292134e-29,0.009741383623278553,0,70,255.0,255.0,255.0
514,25.700000000000003,6.630064885489855,-4.962923547645793e-31,-15.53246870691812,0.17472708340641666,5.7418757426768794e-30,-0.7808593847382862,-0.00098807059837478,1.5033375831669667e-28,0.009441038924104445,0,70,255.0,255.0,255.0
515,25.75,6.6388,0.0,-15.5715,0.17467740556081396,1.4535445842605505e-29,-0.7803948414095603,-0.0009990432257338533,2.0140904568046837e-28,0.009140694224930357,0,70,255.0,255.0,255.0
516,25.8,6.647532316423694,8.991104461255469e-31,-15.610508211693435,0.17460915038061584,1.9840508940309243e-29,-0.7799315361425401,-0.0017311639821904305,1.0793478227678203e-29,0.009391516455881191,0,70,255.0,255.0,255.0
517,25.85,6.6562603049374305,1.82520458782029e-30,-15.64949294459573,0.17450428916259492,1.561479366537334e-29,-0.7794556897639722,-0.0024632847386470078,-1.7982208922511197e-28,0.009642338686832026,0,70,255.0,255.0,255.0
518,25.900000000000002,6.664982135239323,2.3017435064522405e-30,-15.688453571651308,0.17436282190675115,1.858300017797793e-30,-0.7789673022738568,-0.003195405495103585,-3.7043765667790216e-28,0.009893160917782862,0,70,255.0,255.0,255.0
519,25.950000000000003,6.673695977027476,1.8521882833894093e-30,-15.727389465804592,0.17418474861308456,-2.14289720024174e-29,-0.7784663736721938,-0.003927526251560162,-5.610532241306923e-28,0.010143983148733696,0,70,255.0,255.0,255.0
520,26.0,6.6824,0.0,-15.7663,0.17397006928159514,-5.424702239526956e-29,-0.7779529039589835,-0.0046596470080171315,-7.516687915834686e-28,0.010394805379678296,0,70,255.0,255.0,255.0
521,26.05,6.69109310367851,-3.35552586655646e-30,-15.805184144584652,0.17376257332252273,-7.404578741325865e-29,-0.777402737295617,-0.0036401913548785494,-4.028180913608336e-29,0.011611861154980668,0,70,255.0,255.0,255.0
522,26.1,6.699777106878631,-6.811756255953131e-30,-15.844039259516416,0.1736060501461073,-5.827520330887795e-29,-0.7767917178434854,-0.002620735701739967,6.711051733113019e-28,0.012828916930283043,0,70,255.0,255.0,255.0
523,26.150000000000002,6.708454558239497,-8.5902237120715e-30,-15.882862302155855,0.17350049975234874,-6.935270082127503e-30,-0.7761198456025887,-0.0016012800486013843,1.3824921557586871e-27,0.014045972705585415,0,70,255.0,255.0,255.0
524,26.200000000000003,6.717128006400243,-6.912460778793056e-30,-15.92165022986353,0.17344592214124713,7.997401226699276e-29,-0.7753871205729269,-0.0005818243954628021,2.0938791382060726e-27,0.01526302848088779,0,70,255.0,255.0,255.0
525,26.25,6.7258,0.0,-15.9604,0.17344231731280246,2.024526437384727e-28,-0.7745935427545001,0.0004376312576748198,2.8052661206534064e-27,0.016480084256185634,0,70,255.0,255.0,255.0
526,26.3,6.734472068862272,1.2522993020100292e-29,-15.999109609967961,0.17342855632928494,2.763426407127253e-28,-0.773801514674994,-0.0009880705983754214,1.5033375831665612e-28,0.015201038924056913,0,70,255.0,255.0,255.0
527,26.35,6.7431416675480484,2.5421820435992235e-29,-16.037781217338612,0.1733435102529649,2.174860195701385e-28,-0.7730734388620943,-0.0024137724544256627,-2.504598604020094e-27,0.013921993591928191,0,70,255.0,255.0,255.0
528,26.400000000000002,6.751805231802688,3.205915134183377e-29,-16.076418019725285,0.17318717908384237,2.588278031071238e-29,-0.7724093153158011,-0.0038394743104759044,-5.159530966356844e-27,0.01264294825979947,0,70,255.0,255.0,255.0
529,26.450000000000003,6.760459197371553,2.5797654831782806e-29,-16.115023214741303,0.17295956282191732,-2.9846707706555325e-28,-0.7718091440361144,-0.005265176166526145,-7.814463328693595e-27,0.011363902927670748,0,70,255.0,255.0,255.0
530,26.5,6.7691,0.0,-16.1536,0.17266066146718978,-7.555635525586212e-28,-0.7712729250230342,-0.0066908780225767295,-1.0469395691030156e-26,0.010084857595543006,0,70,255.0,255.0,255.0
531,26.55,6.777725020872403,-4.6736446213844715e-29,-16.19215021554351,0.1723472013603369,-1.0313247754376425e-27,-0.7707192040044257,-0.005847526251538758,-5.610532241305392e-28,0.012063983148796205,0,70,255.0,255.0,255.0
532,26.6,6.786335422929176,-9.48755254880158e-29,-16.23067027112915,0.17207590884203589,-8.116688749716762e-28,-0.7700665267081546,-0.005004174480500788,9.347289242769078e-27,0.014043108702049402,0,70,255.0,255.0,255.0
533,26.650000000000002,6.794933314549749,-1.1964638165526353e-28,-16.269155218943034,0.1718467839122868,-9.65958511607212e-29,-0.7693148931342207,-0.004160822709462816,1.9255631709668692e-26,0.0160222342553026,0,70,255.0,255.0,255.0
534,26.700000000000003,6.803520804113549,-9.627815854833815e-29,-16.307600111171276,0.17165982657108964,1.1138942959952206e-27,-0.7684643032826243,-0.0033174709384248455,2.9163974176568313e-26,0.018001359808555797,0,70,255.0,255.0,255.0
535,26.75,6.8121,0.0,-16.346,0.17151503681844435,2.819801566496012e-27,-0.7675147571533653,-0.0024741191673871565,3.9072316643467223e-26,0.01998048536181063,0,70,255.0,255.0,255.0
536,26.8,6.820672647648118,1.7442279183527855e-28,-16.384351127858,0.17139063822937234,3.848956461037845e-27,-0.7665376693072973,-0.00250182439549298,2.093879138205503e-27,0.019103028480911086,0,70,255.0,255.0,255.0
537,26.85,6.829239040735248,3.54080281516071e-28,-16.422654498144798,0.17126485437889505,3.0291894803165647e-27,-0.7656044543052741,-0.0025295296235988037,-3.4884558367056217e-26,0.018225571600011543,0,70,255.0,255.0,255.0
538,26.900000000000002,6.8377991099983175,4.465263752792204e-28,-16.460912304502596,0.17113768526701248,3.605006243321734e-28,-0.764715112147296,-0.002557234851704627,-7.186299587231793e-26,0.017348114719112004,0,70,255.0,255.0,255.0
539,26.950000000000003,6.846352786174259,3.593149793615699e-28,-16.499126740573594,0.17100913089372458,-4.157110106915331e-27,-0.7638696428333629,-0.0025849400798104508,-1.0884143337757965e-25,0.01647065783821246,0,70,255.0,255.0,255.0
540,27.0,6.8549,0.0,-16.5373,0.17087919125903145,-1.0523642713425426e-26,-0.7630680463634748,-0.0026126453079156065,-1.4581987088283873e-25,0.01559320095731831,0,70,255.0,255.0,255.0
541,27.05,6.863440388535125,-6.509547211272694e-28,-16.575433273024487,0.17073024572217071,-1.4364501068713738e-26,-0.7622501187663521,-0.0033451761665134966,-7.81446332869149e-27,0.017123902927590806,0,70,255.0,255.0,255.0
542,27.1,6.871972414129835,-1.321445600576268e-27,-16.613523736291658,0.1705446736423801,-1.1305089046294583e-26,-0.7613556560707156,-0.004077707025111387,1.3019094422545575e-25,0.018654604897863303,0,70,255.0,255.0,255.0
543,27.150000000000002,6.8804942454569815,-1.666459119461618e-27,-16.651567563046587,0.17032247501965958,-1.3454066461679724e-27,-0.7603846582765657,-0.004810237883709276,2.6819635177960304e-25,0.0201853068681358,0,70,255.0,255.0,255.0
544,27.200000000000003,6.889004051189419,-1.3409817588979421e-27,-16.689560926534345,0.17006364985400918,1.5514546131666104e-26,-0.7593371253839021,-0.005542768742307166,4.0620175933375023e-25,0.021716008838408296,0,70,255.0,255.0,255.0
545,27.25,6.8975,0.0,-16.7275,0.16976819814542887,3.9274769287205694e-26,-0.758213057392725,-0.0062752996009058926,5.442071668878876e-25,0.023246710808683346,0,70,255.0,255.0,255.0
546,27.3,6.90598099821138,2.429396092673799e-27,-16.765382180044043,0.1694803788819457,5.36090478138171e-26,-0.7570858556272942,-0.005237470938420848,2.916397417656038e-26,0.02184135980854796,0,70,255.0,255.0,255.0
547,27.35,6.914448902745414,4.931702120789001e-27,-16.803209756688567,0.16924445105158678,4.219116670486178e-26,-0.7560289214118703,-0.004199642275935804,-4.858792185347668e-25,0.020436008808412568,0,70,255.0,255.0,255.0
548,27.400000000000002,6.922906308173757,6.2193101025672515e-27,-16.84098624331106,0.16906041465435212,5.0211259603397206e-27,-0.755042254746453,-0.0031618136134507592,-1.000922411246094e-24,0.01903065780827718,0,70,255.0,255.0,255.0
549,27.450000000000003,6.931355809068068,5.004612056230194e-27,-16.878715153289043,0.16892826969024172,-5.790107441974905e-26,-0.7541258556310425,-0.002123984950965715,-1.5159656039574213e-24,0.01762530680814179,0,70,255.0,255.0,255.0
550,27.5,6.9398,0.0,-16.9164,0.16884801615925554,-1.4657543443539734e-25,-0.7532797240656387,-0.0010861562884803,-2.0310087966687117e-24,0.016219955808009168,0,70,255.0,255.0,255.0
551,27.55,6.948240418619356,-9.066629649567926e-27,-16.954042806799343,0.1687562387500483,-2.0007169018655464e-25,-0.7524144587244814,-0.0025849400798097157,-1.0884143337755008e-25,0.01839065783827841,0,70,255.0,255.0,255.0
552,27.6,6.956674374888513,-1.8405362882579736e-26,-16.99163963695409,0.16858952215127457,-1.5745957777315247e-25,-0.7514406582818108,-0.004083723871139131,1.8133259299136115e-24,0.020561359868547652,0,70,255.0,255.0,255.0
