idx,t,px,py,pz,vx,vy,vz,ax,ay,az,yaw,mode,ledr,ledg,ledb
0,0.0,3.0,-3.0,0.0,9.483627637915829e-14,-2.3938742850006934e-12,0.0431301231113389,-1.1380353165498995e-12,2.872649142000832e-11,-1.1887614773360669,0,70,255.0,255.0,255.0
1,0.05,3.0000000000000036,-3.000000000000086,0.0006790844320082002,4.362468713441281e-14,-1.101182171100319e-12,-0.01579614336878411,-9.104282532399196e-13,2.2981193136006657e-11,-1.1682891818688534,0,70,255.0,255.0,255.0
2,0.1,3.0000000000000044,-3.000000000000115,-0.0015625540906557339,3.7934510551663265e-15,-9.57549714000279e-14,-0.07369879507554646,-6.828211899299397e-13,1.7235894852004992e-11,-1.1478168864016403,0,70,255.0,255.0,255.0
3,0.15000000000000002,3.000000000000004,-3.000000000000101,-0.006673734829323769,-2.4657431858581165e-14,6.224073141001807e-13,-0.13057783200894815,-4.552141266199597e-13,1.1490596568003325e-11,-1.1273445909344268,0,70,255.0,255.0,255.0
4,0.2,3.0000000000000027,-3.0000000000000573,-0.014603277045327871,-4.172796160682966e-14,1.0533046854003044e-12,-0.18643325416898915,-2.2760706330997986e-13,5.745298284001664e-12,-1.1068722954672137,0,70,255.0,255.0,255.0
5,0.25,3.0,-3.0,-0.0253,-4.7418138189579143e-14,1.1969371425003467e-12,-0.24126506155566946,0.0,0.0,-1.0864000000000003,0,70,255.0,255.0,255.0
6,0.30000000000000004,2.999999999999998,-2.9999999999999423,-0.03871272295467215,-4.172796160682963e-14,1.0533046854003049e-12,-0.2950732541689892,2.276070633099801e-13,-5.745298284001669e-12,-1.0659277045327866,0,70,255.0,255.0,255.0
7,0.35000000000000003,2.999999999999996,-2.999999999999899,-0.05479026517067625,-2.4657431858581137e-14,6.224073141001799e-13,-0.34785783200894815,4.552141266199599e-13,-1.1490596568003332e-11,-1.0454554090655728,0,70,255.0,255.0,255.0
8,0.4,2.9999999999999956,-2.9999999999998854,-0.07348144590934429,3.793451055166349e-15,-9.57549714000281e-14,-0.39961879507554643,6.828211899299398e-13,-1.7235894852004996e-11,-1.0249831135983591,0,70,255.0,255.0,255.0
9,0.45,2.999999999999997,-2.999999999999914,-0.0947350844320082,4.362468713441283e-14,-1.1011821711003196e-12,-0.45035614336878405,9.104282532399196e-13,-2.2981193136006657e-11,-1.0045108181311453,0,70,255.0,255.0,255.0
10,0.5,3.0,-3.0,-0.1185,9.483627637915829e-14,-2.3938742850006934e-12,-0.500069876888661,1.1380353165498997e-12,-2.872649142000832e-11,-0.9840385226639325,0,70,255.0,255.0,255.0
11,0.55,3.0000000000000058,-3.000000000000144,-0.14472339261331968,1.232871592929058e-13,-3.112036570500902e-12,-0.5486628399552593,-8.077935669463161e-28,2.908056841006738e-26,-0.9596800000000006,0,70,255.0,255.0,255.0
12,0.6000000000000001,3.000000000000011,-3.000000000000287,-0.17334598522663935,9.48362763791582e-14,-2.3938742850006906e-12,-0.5960378768886612,-1.1380353165499013e-12,2.872649142000838e-11,-0.9353214773360689,0,70,255.0,255.0,255.0
13,0.65,3.000000000000014,-3.0000000000003593,-0.20430688153329915,9.483627637915827e-15,-2.393874285000677e-13,-0.6421949876888662,-2.2760706330997994e-12,5.745298284001667e-11,-0.9109629546721371,0,70,255.0,255.0,255.0
14,0.7000000000000001,3.0000000000000115,-3.0000000000002873,-0.2375451852266394,-1.3277078693082184e-13,3.351423999000979e-12,-0.6871341723558749,-3.4141059496497e-12,8.617947426002501e-11,-0.8866044320082052,0,70,255.0,255.0,255.0
15,0.75,3.0,-3.0,-0.273,-3.31926967327054e-13,8.378559997502427e-12,-0.7308554308896869,-4.552141266199599e-12,1.149059656800333e-10,-0.8622459093442778,0,70,255.0,255.0,255.0
16,0.8,2.9999999999999796,-2.999999999999483,-0.3106105065920493,-4.514206755647935e-13,1.1394841596603301e-11,-0.7733633860099742,-2.276070633099762e-13,5.745298284001587e-12,-0.8380722954672137,0,70,255.0,255.0,255.0
17,0.8500000000000001,2.9999999999999583,-2.999999999998951,-0.35031619392276664,-3.546876736580517e-13,8.953089825902586e-12,-0.8146626604364083,4.096927139579646e-12,-1.0341536911203012e-10,-0.8138986815901497,0,70,255.0,255.0,255.0
18,0.9,2.999999999999948,-2.9999999999986784,-0.3920566279574592,-4.172796160682942e-14,1.0533046854003012e-12,-0.8547532541689891,8.421461342469258e-12,-2.1257603650806164e-10,-0.7897250677130856,0,70,255.0,255.0,255.0
19,0.9500000000000001,2.9999999999999583,-2.9999999999989373,-0.4357713746614346,4.874584605888747e-13,-1.2304513824903584e-11,-0.8936351672077169,1.2745995545358882e-11,-3.2173670390409335e-10,-0.7655514538360215,0,70,255.0,255.0,255.0
20,1.0,3.0,-3.0,-0.4814,1.2328715929290579e-12,-3.112036570500902e-11,-0.9313083995525913,1.70705297482485e-11,-4.30897371300125e-10,-0.7413778399589539,0,70,255.0,255.0,255.0
21,1.05,3.0000000000000764,-3.0000000000019247,-0.5288817810184834,1.6823955429662684e-12,-4.246732981591231e-11,-0.9677556160048437,9.104282532399081e-13,-2.2981193136006346e-11,-0.7165108181311431,0,70,255.0,255.0,255.0
22,1.1,3.000000000000155,-3.0000000000039067,-0.5781548390822946,1.3239144182530487e-12,-3.341848501860965e-11,-1.0029594813657057,-1.5249673241768683e-11,3.849349850281123e-10,-0.6916437963033324,0,70,255.0,255.0,255.0
23,1.1500000000000001,3.000000000000195,-3.0000000000049267,-0.6291570066368642,1.5742821878939856e-13,-3.973831313101027e-12,-1.0369199956351771,-3.140977473677727e-11,7.92851163192231e-10,-0.6667767744755216,0,70,255.0,255.0,255.0
24,1.2000000000000002,3.000000000000157,-3.000000000003964,-0.6818261161276226,-1.8170630554246812e-12,4.5866631300613506e-11,-1.0696371588132578,-4.7569876231785866e-11,1.2007673413563497e-09,-0.6419097526477109,0,70,255.0,255.0,255.0
25,1.25,3.0,-3.0,-0.7361,-4.599559404389178e-12,1.1610290282253365e-10,-1.101110970899948,-6.372997772679436e-11,1.6086835195204667e-09,-0.6170427308199127,0,70,255.0,255.0,255.0
26,1.3,2.999999999999716,-2.999999999992818,-0.7919175693340176,-6.27816149630028e-12,1.5847447766704596e-10,-1.1314061499706514,-3.4141059496496417e-12,8.617947426002392e-11,-0.5947644320082165,0,70,255.0,255.0,255.0
27,1.35,2.9999999999994222,-2.9999999999854214,-0.8492220497480554,-4.940969999354142e-12,1.2472085024853603e-10,-1.1605874141007697,5.690176582749508e-11,-1.4363245710004189e-09,-0.5724861331965204,0,70,255.0,255.0,255.0
28,1.4000000000000001,2.9999999999992717,-2.999999999981615,-0.9079577454950847,-5.879849135507658e-13,1.4842020567003953e-11,-1.1886547632903033,1.172176376046398e-10,-2.958828616260862e-09,-0.5502078343848242,0,70,255.0,255.0,255.0
29,1.4500000000000002,2.9999999999994142,-2.9999999999852056,-0.968068960828076,6.780793761109849e-12,-1.7116201137755042e-10,-1.2156081975392523,1.7753350938178452e-10,-4.481332661521304e-09,-0.5279295355731282,0,70,255.0,255.0,255.0
30,1.5,3.0,-3.0,-1.0295,1.7165366024627653e-11,-4.332912455851256e-10,-1.2414477168476163,2.3784938115892904e-10,-6.003836706781742e-09,-0.5056512367614339,0,70,255.0,255.0,255.0
31,1.55,3.000000000001062,-3.0000000000268017,-1.0921935416454471,2.3430250442234853e-11,-5.914305808522715e-10,-1.2660757841125525,1.2745995545358707e-11,-3.217367039040898e-10,-0.47947145383601464,0,70,255.0,255.0,255.0
32,1.6,3.000000000002155,-3.000000000054408,-1.156085761925484,1.843996557916353e-11,-4.6546491597553456e-10,-1.289394862231218,-2.1235739006821162e-10,5.360363298973563e-09,-0.4532916709105954,0,70,255.0,255.0,255.0
33,1.6500000000000001,3.0000000000027183,-3.0000000000686136,-1.2211112113827978,2.194511435413671e-12,-5.5394250954914734e-11,-1.3114049512036121,-4.37460775681782e-10,1.1042463301851216e-08,-0.4271118879851762,0,70,255.0,255.0,255.0
34,1.7000000000000002,3.0000000000021876,-3.0000000000552123,-1.2872044405600747,-2.5306111989014698e-11,6.387814142095879e-10,-1.3321060510297356,-6.625641612953523e-10,1.6724563304728866e-08,-0.40093210505975696,0,70,255.0,255.0,255.0
35,1.75,3.0,-3.0,-1.3543,-6.406190469412143e-11,1.617062079517969e-09,-1.351498161709588,-8.876675469089216e-10,2.24066633076065e-08,-0.3747523221343432,0,70,255.0,255.0,255.0
36,1.8,2.999999999996037,-2.9999999998999742,-1.422333864084195,-8.744284027263914e-11,2.2072478457420406e-09,-1.3696667135791396,-4.7569876231785084e-11,1.2007673413563296e-09,-0.35198975264771554,0,70,255.0,255.0,255.0
37,1.85,2.999999999991956,-2.9999999997969464,-1.4912477025500086,-6.881889231729996e-11,1.737138813653602e-09,-1.3866971369743597,7.925277944453515e-10,-2.000512862489384e-08,-0.3292271831610879,0,70,255.0,255.0,255.0
38,1.9000000000000001,2.9999999999898557,-2.9999999997439324,-1.5609846089737254,-8.190060828103884e-12,2.0673498325265452e-10,-1.4025894318952483,1.632625465122488e-09,-4.1211024591144e-08,-0.3064646136744602,0,70,255.0,255.0,255.0
39,1.9500000000000002,2.9999999999918368,-2.9999999997939453,-1.631487676931628,9.444365419494893e-11,-2.3839636454608018e-09,-1.4173435983418055,2.4727231357996245e-09,-6.241692055739418e-08,-0.28370204418783257,0,70,255.0,255.0,255.0
40,2.0,3.0,-3.0,-1.7027,2.3908225275185806e-10,-6.03495707248675e-09,-1.4309596363140316,3.312820806476759e-09,-8.362281652364424e-08,-0.2609394747012157,0,70,255.0,255.0,255.0
41,2.0500000000000003,3.0000000000147886,-3.000000000373301,-1.774563802017775,3.263411106483217e-10,-8.23756080211589e-09,-1.4433853615708903,1.7753350938176813e-10,-4.481332661520872e-09,-0.2360895355731311,0,70,255.0,255.0,255.0
42,2.1,3.0000000000300218,-3.000000000757805,-1.8470178278744824,2.5683560369003623e-10,-6.483090338638872e-09,-1.4545685898713447,-2.9577537877131944e-09,7.466015120060178e-08,-0.2112395964450467,0,70,255.0,255.0,255.0
43,2.15,3.00000000003786,-3.0000000009556587,-1.9199999527223024,3.056573187700323e-11,-7.715456820557337e-10,-1.4645093212153948,-6.093041084808158e-09,1.5380163506272445e-07,-0.18638965731696228,0,70,255.0,255.0,255.0
44,2.2,3.000000000030465,-3.0000000007690084,-1.9934480517134154,-3.524685047907814e-10,8.89707316763362e-09,-1.473207555603041,-9.228328381903148e-09,2.329431189248478e-07,-0.16153971818887766,0,70,255.0,255.0,255.0
45,2.25,3.0,-3.0,-2.0673,-8.922671063133109e-10,2.252276621042903e-08,-1.4806632930342827,-1.2363615678998108e-08,3.120846027869704e-07,-0.13668977906079327,0,70,255.0,255.0,255.0
46,2.3000000000000003,2.999999999944808,-2.999999998606823,-2.1414941278447066,-1.2179216023206475e-09,3.074299536272152e-08,-1.4869038401372965,-6.625641612952868e-10,1.672456330472724e-08,-0.11293210505976413,0,70,255.0,255.0,255.0
47,2.35,2.9999999998879585,-2.999999997171834,-2.2159705859520624,-9.58523522442845e-10,2.419522254090189e-08,-1.491956503540259,1.1038487356407429e-08,-2.786354761775133e-07,-0.0891744310587352,0,70,255.0,255.0,255.0
48,2.4000000000000004,2.9999999998587064,-2.9999999964334334,-2.290669980137065,-1.140728666798984e-10,2.879447744970019e-09,-1.49582128324317,2.2739538874110253e-08,-5.739955156597566e-07,-0.06541675705770605,0,70,255.0,255.0,255.0
49,2.45,2.9999999998863025,-2.9999999971300224,-2.3655329162147116,1.3154303649681764e-09,-3.320432902507367e-08,-1.4984981792460297,3.444059039181296e-08,-8.693555551419969e-07,-0.04165908305667712,0,70,255.0,255.0,255.0
50,2.5,3.0,-3.0,-2.4405,3.3299861725013856e-09,-8.405610776922937e-08,-1.4999871915488379,4.614164190951568e-08,-1.164715594624238e-06,-0.017901409055648188,0,70,255.0,255.0,255.0
51,2.5500000000000003,3.000000000205981,-3.0000000051994085,-2.5155116866034,4.545345298634269e-09,-1.1473442064877018e-07,-1.500279277879925,2.4727231357993854e-09,-6.241692055738855e-08,0.00621795581216537,0,70,255.0,255.0,255.0
52,2.6,3.0000000004181437,-3.00000001055486,-2.5905078283172696,3.5772584860813446e-09,-9.029779982496871e-08,-1.4993653959676212,-4.1196195637916527e-08,1.0398817535094511e-06,0.03033732067997872,0,70,255.0,255.0,255.0
53,2.6500000000000004,3.000000000527316,-3.000000013310607,-2.6654281267294393,4.2572573484259297e-10,-1.0746245297824511e-08,-1.4972455458119271,-8.486511441163283e-08,2.1421804275763007e-06,0.054456685547792275,0,70,255.0,255.0,255.0
54,2.7,3.0000000004243255,-3.0000000107109024,-2.740212283427739,-4.909252955081925e-09,1.2392024293266103e-07,-1.4939197274128422,-1.2853403318534872e-07,3.24447910164314e-06,0.07857605041560563,0,70,255.0,255.0,255.0
55,2.75,3.0,-3.0,-2.8148,-1.2427677583692232e-08,3.1370166486648846e-07,-1.4893879407703663,-1.7220295195906463e-07,4.3467777757099805e-06,0.10269541528342074,0,70,255.0,255.0,255.0
56,2.8000000000000003,2.9999999992312687,-2.999999980595542,-2.8891311257416943,-1.6963459592216428e-08,4.281946872323593e-07,-1.4836590483430026,-9.228328381902255e-09,2.32943118924826e-07,0.1264602818111244,0,70,255.0,255.0,255.0
57,2.85,2.999999998439466,-2.9999999606087266,-2.9631461007788604,-1.3350510421882531e-08,3.369959767589729e-07,-1.4767419125892538,1.5374629519525863e-07,-3.880891537860293e-06,0.15022514833882786,0,70,255.0,255.0,255.0
58,2.9000000000000004,2.9999999980320298,-2.9999999503241397,-3.03678551294518,-1.5888300726904755e-09,4.010553344632792e-08,-1.4686365335091198,3.1672091877242103e-07,-7.994726194645447e-06,0.1739900148665315,0,70,255.0,255.0,255.0
59,2.95,2.999999998416395,-2.999999960026369,-3.109989950074333,1.8321581455359518e-08,-4.624766427055706e-07,-1.4593429111026008,4.796955423495819e-07,-1.2108560851430566e-05,0.19775488139423497,0,70,255.0,255.0,255.0
60,3.0,3.0,-3.0,-3.1827,4.6380724162267546e-08,-1.1707505516967244e-06,-1.4488610453696962,6.426701659267428e-07,-1.6222395508215684e-05,0.22151974792193663,0,70,255.0,255.0,255.0
61,3.0500000000000003,3.000000002868945,-3.000000072418422,-3.254855810429824,6.330849307023143e-08,-1.598044328280667e-06,-1.437164528748065,3.44405903918096e-08,-8.693555551419165e-07,0.24634091694331467,0,70,255.0,255.0,255.0
62,3.1,3.0000000058239915,-3.000000147010233,-3.326395768567289,4.982478320144879e-08,-1.257686107210923e-06,-1.4242269536753647,-5.73788985143118e-07,1.4483684397931716e-05,0.2711620859646925,0,70,255.0,255.0,255.0
63,3.1500000000000004,3.000000007344565,-3.0000001853928326,-3.3972578214898426,5.9295945559193274e-09,-1.4967588848748674e-07,-1.4100483201515956,-1.182018560678051e-06,2.9836724351005484e-05,0.2959832549860705,0,70,255.0,255.0,255.0
64,3.2,3.0000000059100924,-3.000000149183622,-3.4673799162749313,-6.837707286635615e-08,1.725986327889622e-06,-1.3946286281767577,-1.7902481362129788e-06,4.5189764304079116e-05,0.3208044240074483,0,70,255.0,255.0,255.0
65,3.25,3.0,-3.0,-3.5367,-1.7309521906537795e-07,4.369300541920409e-06,-1.377967877750851,-2.3984777117479074e-06,6.0542804257152735e-05,0.34562559302882434,0,70,255.0,255.0,255.0
66,3.3000000000000003,2.9999999892929514,-2.99999972973077,-3.6051560325390124,-2.3627051268870935e-07,5.963982625890307e-06,-1.36006683666474,-1.2853403318533654e-07,3.2444791016428306e-06,0.37041605041561865,0,70,255.0,255.0,255.0
67,3.35,2.9999999782645688,-2.9999994513503414,-3.6726860249519855,-1.859486223839126e-07,4.693748452084719e-06,-1.3409262727092892,2.141409645377214e-06,-5.405384605386656e-05,0.39520650780241273,0,70,255.0,255.0,255.0
68,3.4000000000000004,2.9999999725897095,-2.9999993081045284,-3.7392280010954524,-2.21295481509868e-08,5.585980205036196e-07,-1.3205461858844985,4.411353323939785e-06,-0.00011135217120937648,0.41999696518920704,0,70,255.0,255.0,255.0
69,3.45,2.999999977943234,-2.999999443239144,-3.8047199848259465,2.5518671001006527e-07,-6.441468668852911e-06,-1.2989265761903686,6.681297002502335e-06,-0.00016865049636488586,0.4447874225760011,0,70,255.0,255.0,255.0
70,3.5,3.0,-3.0,-3.8691,6.460001520992443e-07,-1.630645161598491e-05,-1.2760674436268986,8.951240681064884e-06,-0.00022594882152039526,0.4695778799628023,0,70,255.0,255.0,255.0
71,3.5500000000000003,3.000000039959248,-3.0000010086584994,-3.9323088594141287,8.81773557684606e-07,-2.225788617528056e-05,-1.2521361245929727,4.796955423495357e-07,-1.2108560851429386e-05,0.48767488139422793,0,70,255.0,255.0,255.0
72,3.6,3.0000000811177343,-3.0000020475884,-3.994298531624771,6.939697063342017e-07,-1.751730770112795e-05,-1.2272999554874757,-7.991849596365738e-06,0.0002017316998175346,0.5057718828256533,0,70,255.0,255.0,255.0
73,3.6500000000000004,3.000000102296598,-3.0000025821890524,-4.05502377412835,8.258859804802782e-08,-2.0847161935269853e-06,-1.2015589363104073,-1.6463394735081086e-05,0.00041557196048650055,0.5238688842570789,0,70,255.0,255.0,255.0
74,3.7,3.0000000823169737,-3.0000020778598024,-4.114439344421285,-9.523697671739044e-07,2.403988834752204e-05,-1.1749130670617678,-2.493493987379636e-05,0.0006294122211554645,0.5419658856885043,0,70,255.0,255.0,255.0
75,3.75,3.0,-3.0,-4.1725,-2.410905389331599e-06,6.085650592201923e-05,-1.1473623477415569,-3.3406485012511624e-05,0.0008432524818244283,0.5600628871199351,0,70,255.0,255.0,255.0
76,3.8000000000000003,2.9999998508700565,-2.999996235635234,-4.229147729804476,-3.2908237180497147e-06,8.306756207523194e-05,-1.118140664963372,-1.7902481362128047e-06,4.518976430407473e-05,0.6088044240074487,0,70,255.0,255.0,255.0
77,3.85,2.999999697264492,-2.999992358296057,-4.284273448548931,-2.5899302029528935e-06,6.537548235242705e-05,-1.086481905340812,2.982598874008573e-05,-0.0007528729532162717,0.6575459608949619,0,70,255.0,255.0,255.0
78,3.9000000000000004,2.9999996182239,-2.999990363139263,-4.337755302391151,-3.0822484404112407e-07,7.780266753604323e-06,-1.0523860688738758,6.144222561638456e-05,-0.0015509356707366251,0.7062874977824756,0,70,255.0,255.0,255.0
79,3.95,2.999999692788872,-2.9999922453216468,-4.389471437488913,3.5542923586855516e-06,-8.971808472123526e-05,-1.0158531555625645,9.305846249268308e-05,-0.0023489983882569714,0.7550290346699887,0,70,255.0,255.0,255.0
80,4.0,3.0,-3.0,-4.4393,8.997621405227151e-06,-0.000227119572072092,-0.9768831654068774,0.00012467469936898164,-0.003147061105777319,0.8037705715574956,0,70,255.0,255.0,255.0
81,4.05,3.0000005565605266,-3.0000148488005656,-4.487125021367973,1.228152131451425e-05,-0.00035801236212574806,-0.9358292155535398,6.681297002502764e-06,-0.0020886504963689417,0.8383874225760128,0,70,255.0,255.0,255.0
82,4.1000000000000005,3.000001129824296,-3.0000349192273714,-4.5328540741795065,9.66575110547733e-06,-0.00043598462170898637,-0.8930444231492757,-0.0001113121053639782,-0.0010302398869605454,0.8730042735945306,0,70,255.0,255.0,255.0
83,4.15,3.0000014248078024,-3.0000575652538948,-4.576400616307051,1.1503107781164752e-06,-0.00046103635082180407,-0.8485287881940863,-0.00022930550773045708,2.8170722447831698e-05,0.9076211246130478,0,70,255.0,255.0,255.0
84,4.2,3.0000011465275387,-3.0000801408536124,-4.617678105623065,-1.3264799667568295e-05,-0.00043316754946420323,-0.8022823106879711,-0.0003472989100969359,0.0010865813318562088,0.9422379756315649,0,70,255.0,255.0,255.0
85,4.25,3.0,-3.0001,-4.6566,-3.3579580231577e-05,-0.0003523782176361835,-0.7543049906309303,-0.0004652923124634149,0.0021449919412645877,0.9768548266500776,0,70,255.0,255.0,255.0
86,4.3,2.999997922887837,-3.0001139691625056,-4.6931177847236345,-4.583526154000727e-05,-0.0001870181135754804,-0.706878472822466,-2.4934939873797878e-05,0.00446941222116356,0.9202058856885044,0,70,255.0,255.0,255.0
87,4.3500000000000005,2.999995783438323,-3.000116764794458,-4.727335054733048,-3.607307421895641e-05,9.456300448017687e-05,-0.6622844020620794,0.00041542243271582696,0.006793832501062573,0.8635569447269302,0,70,255.0,255.0,255.0
88,4.4,2.9999946825448918,-3.0001025758451574,-4.759393432380644,-4.293018268424745e-06,0.0004923651365307785,-0.6205227783497723,0.0008557798053054439,0.009118252780961546,0.806908003765357,0,70,255.0,255.0,255.0
89,4.45,2.9999957211009733,-3.0000655912639047,-4.789434540018826,4.9504906311587674e-05,0.0010063882825763282,-0.581593601685544,0.001296137177895061,0.011442673060860517,0.7502590628037837,0,70,255.0,255.0,255.0
90,4.5,3.0,-3.0,-4.8176,0.00012532069952108087,0.001636632442616826,-0.5454968720693943,0.0017364945504846777,0.013767093340759498,0.6936101218422062,0,70,255.0,255.0,255.0
91,4.55,3.000007751888128,-2.9999004745494133,-4.844020639737488,0.00017105952484551486,0.0023540848164294455,-0.5115848931565903,9.305846249268871e-05,0.014931001611745391,0.6628690346699613,0,70,255.0,255.0,255.0
92,4.6000000000000005,3.000015736422411,-2.9997636215947976,-4.868784106888303,0.00013462654577034834,0.003129732603791374,-0.4792099686023979,-0.0015503776254993293,0.016094909882731306,0.6321279474977158,0,70,255.0,255.0,255.0
93,4.65,3.0000198450126314,-2.9995865313654755,-4.891967254170371,1.602176229558252e-05,0.003963575804702584,-0.4483720984068183,-0.0031938137134913183,0.017258818153717197,0.6013868603254711,0,70,255.0,255.0,255.0
94,4.7,3.000015969068567,-2.999366294090769,-4.913646934301628,-0.00018475482557878229,0.004855614419163088,-0.419071282569851,-0.004837249801483308,0.018422726424703093,0.5706457731532262,0,70,255.0,255.0,255.0
95,4.75,3.0,-2.9991,-4.9339,-0.00046770321785274645,0.005805848447172886,-0.3913075210914959,-0.006480685889475296,0.019586634695688984,0.5399046859809831,0,70,255.0,255.0,255.0
96,4.800000000000001,2.9999686695596535,-2.99878413263984,-4.952807656326412,-0.0007824028378421473,0.0068506788478611535,-0.3653419545511816,-0.006107298910100559,0.022206581331841127,0.49871797563157394,0,70,255.0,255.0,255.0
97,4.8500000000000005,2.999922070872032,-2.9984127488263503,-4.970468517713744,-0.001078433108862806,0.008026506580357008,-0.34143572352833823,-0.005733911930725828,0.02482652796799322,0.4575312652821656,0,70,255.0,255.0,255.0
98,4.9,2.9998611374045834,-2.997979298692941,-4.986985550937869,-0.001355794030914728,0.009333331644660466,-0.3195888280229652,-0.005360524951351098,0.027446474604145316,0.4163445549327572,0,70,255.0,255.0,255.0
99,4.95,2.9997868026247567,-2.9974772323730208,-5.002461722774664,-0.0016144856039979139,0.010771154040771528,-0.29980126803506263,-0.0049871379719763674,0.03006642124029741,0.3751578445833488,0,70,255.0,255.0,255.0
100,5.0,2.9997,-2.9969,-5.017,-0.0018545078281123632,0.012339973768690197,-0.2820730435646305,-0.004613750992601641,0.03268636787644942,0.3339711342339404,0,70,255.0,255.0,255.0
101,5.050000000000001,2.9996015698732577,-2.9962413948912263,-5.030700734956869,-0.0020814481734799085,0.014019199792123118,-0.26624728863868646,-0.004463862822100042,0.03448267306086649,0.29905906280380923,0,70,255.0,255.0,255.0
102,5.1000000000000005,2.9994919800894606,-2.9954965830998006,-5.043653822256727,-0.00230089411032237,0.015788241074776863,-0.2521671372842494,-0.004313974651598446,0.03627897824528353,0.26414699137367864,0,70,255.0,255.0,255.0
103,5.15,2.9993716053690345,-2.994661073862762,-5.055946542078152,-0.002512845638639752,0.01764709761665146,-0.23983258950131872,-0.004164086481096849,0.038075283429700575,0.22923491994354805,0,70,255.0,255.0,255.0
104,5.2,2.9992408204324055,-2.993730376417149,-5.067666174599719,-0.0027173027584320533,0.019595769417746906,-0.22924364528989463,-0.004014198310595253,0.03987158861411761,0.19432284851341747,0,70,255.0,255.0,255.0
105,5.25,2.9991,-2.9927,-5.0789,-0.0029142654696992757,0.021634256478063205,-0.2204003046499771,-0.0038643101400936512,0.04166789379853464,0.15941077708328621,0,70,255.0,255.0,255.0
106,5.300000000000001,2.998949050947314,-2.991565487795255,-5.089737403846115,-0.0031318044682384894,0.02376052198364443,-0.21342889089406475,-0.004837249801474785,0.04338272642471317,0.11944577315320348,0,70,255.0,255.0,255.0
107,5.3500000000000005,2.998786008770125,-2.9903225187744473,-5.100276193259348,-0.003397990449846756,0.025972529120534542,-0.20845572733465664,-0.0058101894628559015,0.045097559050891675,0.07948076922312149,0,70,255.0,255.0,255.0
108,5.4,2.998608441119278,-2.988966805856013,-5.110616280749523,-0.0037128234145240775,0.028270277888733583,-0.20548081397175263,-0.006783129124237017,0.04681239167707017,0.03951576529303946,0,70,255.0,255.0,255.0
109,5.45,2.998413915645621,-2.9874940619583854,-5.120857578826465,-0.004076303362270455,0.030653768288241547,-0.20450415080535272,-0.0077560687856181336,0.04852722430324868,-0.0004492386370425483,0,70,255.0,255.0,255.0
110,5.5,2.9982,-2.9859,-5.1311,-0.004488430293085889,0.03312300031905843,-0.20552573783545688,-0.008729008446999253,0.05024205692942707,-0.040414242567123226,0,70,255.0,255.0,255.0
111,5.550000000000001,2.997964626337485,-2.9841798539277558,-5.1414416496586695,-0.004927333953560702,0.0357067122733013,-0.20843714778505143,-0.008827137971993002,0.0531064212402863,-0.07604215541665663,0,70,255.0,255.0,255.0
112,5.6000000000000005,2.99770718483004,-2.982326941802411,-5.151973404705879,-0.005371144090285194,0.03843364244308709,-0.21312995337712254,-0.008925267496986751,0.055970785551145485,-0.11167006826618937,0,70,255.0,255.0,255.0
113,5.65,2.997427430153852,-2.9803341027131878,-5.162784334923756,-0.005819860703259373,0.041303790828415836,-0.21960415461167032,-0.009023397021980498,0.058835149862004665,-0.14729798111572212,0,70,255.0,255.0,255.0
114,5.7,2.99712511698511,-2.9781941757493104,-5.173963510094422,-0.00627348379248324,0.04431715742928753,-0.2278597514886947,-0.009121526546974247,0.061699514172863845,-0.18292589396525488,0,70,255.0,255.0,255.0
115,5.75,2.9968,-2.9759,-5.1856,-0.006732013357956795,0.0474737422457022,-0.23789674400819572,-0.009219656071968035,0.06456387848372297,-0.21855380681478476,0,70,255.0,255.0,255.0
116,5.800000000000001,2.996451643702746,-2.9734454964937225,-5.197783997519209,-0.007206859717520762,0.0507086289231483,-0.24978251796572978,-0.00977419831059038,0.06483158861411907,-0.25687715148657125,0,70,255.0,255.0,255.0
117,5.8500000000000005,2.996078851909716,-2.9708289140159105,-5.2106101879171325,-0.007709433189015838,0.053956901107114145,-0.2635844591568529,-0.010328740549212711,0.06509929874451519,-0.2952004961583571,0,70,255.0,255.0,255.0
118,5.9,2.9956802382653125,-2.968049583291236,-5.224174379555453,-0.00823973377244203,0.05721855879759979,-0.27930256758156535,-0.010883282787835045,0.06536700887491129,-0.33352384083014297,0,70,255.0,255.0,255.0
119,5.95,2.995254416413939,-2.9651068350443746,-5.238572380795849,-0.008797761467799339,0.06049360199460525,-0.29693684323986713,-0.011437825026457378,0.06563471900530739,-0.3718471855019288,0,70,255.0,255.0,255.0
120,6.0,2.9948,-2.962,-5.2539,-0.009383516275087765,0.0637820306981305,-0.3164872861317581,-0.011992367265079754,0.06590242913570321,-0.4101705301737151,0,70,255.0,255.0,255.0
121,6.050000000000001,2.994315998851531,-2.9587269600973545,-5.270254360264498,-0.009973227176354996,0.0671707720341046,-0.3380327803520275,-0.01159606878560918,0.06964722430325908,-0.4516492386370492,0,70,255.0,255.0,255.0
122,6.1000000000000005,2.9938030075310973,-2.95527980213395,-5.287737843625589,-0.010543123153648689,0.07074675312845644,-0.3616522099954632,-0.01119977030613861,0.07339201947081488,-0.4931279471003826,0,70,255.0,255.0,255.0
123,6.15,2.993262016784899,-2.9516491641218687,-5.30645414685443,-0.011093204206968854,0.07450997398118607,-0.3873455750620656,-0.010803471826668043,0.07713681463837069,-0.534606655563716,0,70,255.0,255.0,255.0
124,6.2,2.9926940173591334,-2.947825684073192,-5.326506966722182,-0.01162347033631549,0.07846043459229349,-0.4151128755518346,-0.010407173347197474,0.08088160980592649,-0.5760853640270494,0,70,255.0,255.0,255.0
125,6.25,2.9921,-2.9438,-5.348,-0.012133921541688599,0.08259813496177869,-0.4449541114647704,-0.010010874867726921,0.08462640497348206,-0.6175640724903815,0,70,255.0,255.0,255.0
126,6.300000000000001,2.991480360891132,-2.939564263116861,-5.3710265614228,-0.01266023157705645,0.08683228294043711,-0.4762463606261618,-0.011041526546986844,0.08473951417285275,-0.6341258939652585,0,70,255.0,255.0,255.0
127,6.3500000000000005,2.990833117965895,-2.93511667744829,-5.395638437580511,-0.013238074196387289,0.09107208637906401,-0.5083667008612966,-0.01207217822624675,0.08485262337222343,-0.6506877154401354,0,70,255.0,255.0,255.0
128,6.4,2.9901556945950936,-2.9304569602212887,-5.421877033026825,-0.01386744939968112,0.09531754527765944,-0.5413151321701751,-0.013102829905506654,0.08496573257159412,-0.6672495369150121,0,70,255.0,255.0,255.0
129,6.45,2.9894455141495277,-2.925584828662858,-5.449783752315425,-0.014548357186937949,0.09956865963622338,-0.5750916545527975,-0.014133481584766558,0.08507884177096481,-0.6838113583898888,0,70,255.0,255.0,255.0
130,6.5,2.9887,-2.9205,-5.4794,-0.01528079755815777,0.10382542945475587,-0.6096962680091639,-0.015164133264026367,0.08519195097033516,-0.7003731798647648,0,70,255.0,255.0,255.0
131,6.550000000000001,2.987917757583945,-2.915204787435201,-5.510726594044305,-0.01599384651541976,0.10793209620414705,-0.6426937771433313,-0.013357825026452868,0.07907471900530992,-0.6195271855019123,0,70,255.0,255.0,255.0
132,6.6000000000000005,2.9871021206053228,-2.9097118880728896,-5.543602006052365,-0.016616580060803066,0.1117329013552869,-0.6716489865593555,-0.0115515167888794,0.07295748704028478,-0.5386811911390613,0,70,255.0,255.0,255.0
133,6.65,2.9862576048347287,-2.9040365949929767,-5.577824121038271,-0.017148998194307697,0.1152278449081755,-0.6965618962572372,-0.009745208551305935,0.06684025507525963,-0.45783519677621026,0,70,255.0,255.0,255.0
134,6.7,2.9853887260427565,-2.898194201275376,-5.613190824016119,-0.017591100915933657,0.11841692686281285,-0.7174325062369764,-0.00793890031373247,0.0607230231102345,-0.3769892024133592,0,70,255.0,255.0,255.0
135,6.75,2.9845,-2.8922,-5.6495,-0.01794288822568094,0.12130014721919893,-0.7342608164985729,-0.006132592076158988,0.05460579114520914,-0.29614320805050376,0,70,255.0,255.0,255.0
136,6.800000000000001,2.9835950087730914,-2.886066187142333,-5.6865902623999816,-0.018260382361264867,0.12406333224297733,-0.7494905308005123,-0.006567173347197941,0.055921609805924866,-0.31304536402706434,0,70,255.0,255.0,255.0
137,6.8500000000000005,2.982673599612814,-2.8797925702601512,-5.724463138210032,-0.018599605560400738,0.12689230819979144,-0.7655653529012795,-0.007001754618236888,0.057237428466640566,-0.32994752000362465,0,70,255.0,255.0,255.0
138,6.9,2.981734686065992,-2.8733758598068033,-5.763160882820091,-0.01896055782308855,0.12978707508964138,-0.7824852828008747,-0.007436335889275833,0.05855324712735627,-0.34684967598018496,0,70,255.0,255.0,255.0
139,6.95,2.9807771816794464,-2.866812766235637,-5.8027257516201,-0.01934323914932832,0.13274763291252706,-0.8002503204992978,-0.007870917160314779,0.05986906578807197,-0.3637518319567452,0,70,255.0,255.0,255.0
140,7.0,2.9798,-2.8601,-5.8432,-0.01974764953912003,0.1357739816684485,-0.818860465996549,-0.00830549843135378,0.06118488444878656,-0.3806539879333055,0,70,255.0,255.0,255.0
141,7.050000000000001,2.978802207323691,-2.8532352639954657,-5.884614756355769,-0.02016462403952295,0.13880657482394226,-0.837648099654629,-0.008373481584762905,0.060118841770962814,-0.37085135838988587,0,70,255.0,255.0,255.0
142,7.1000000000000005,2.9777834809434203,-2.846220230886504,-5.926956641107512,-0.02058499769759632,0.14178586584554484,-0.8559456018355378,-0.008441464738172028,0.05905279909313908,-0.3610487288464663,0,70,255.0,255.0,255.0
143,7.15,2.9767436509013034,-2.839057565779809,-5.97020114768137,-0.021008770513340155,0.14471185473325618,-0.8737529725392756,-0.00850944789158115,0.05798675641531536,-0.35124609930304684,0,70,255.0,255.0,255.0
144,7.2,2.975682547239458,-2.8317499337820764,-6.014323769503486,-0.021435942486754435,0.14758454148707634,-0.8910702117658424,-0.008577431044990275,0.056920713737491635,-0.34144346975962736,0,70,255.0,255.0,255.0
145,7.25,2.9746,-2.8243,-6.0593,-0.02186651361783918,0.15040392610700531,-0.9078973195152382,-0.008645414198399426,0.05585467105966746,-0.33164084021621143,0,70,255.0,255.0,255.0
146,7.300000000000001,2.9734961619321454,-2.816710356875804,-6.105109112176948,-0.022281121480642485,0.153174368461253,-0.924461070580977,-0.007938900313732435,0.05496302311023936,-0.3309092024133296,0,70,255.0,255.0,255.0
147,7.3500000000000005,2.9723724766135065,-2.8089833061938325,-6.151745497359929,-0.02266040364921243,0.15590022841802928,-0.9409882397565713,-0.007232386429065455,0.05407137516081128,-0.3301775646104477,0,70,255.0,255.0,255.0
148,7.4,2.971230710328795,-2.801121077073959,-6.199207326454436,-0.023004360123549023,0.15858150597733414,-0.9574788270420216,-0.006525872544398476,0.05317972721138319,-0.3294459268075659,0,70,255.0,255.0,255.0
149,7.45,2.970072629362722,-2.793125898636057,-6.247492770365962,-0.023312990903652273,0.16121820113916757,-0.9739328324373279,-0.005819358659731497,0.05228807926195511,-0.3287142890046841,0,70,255.0,255.0,255.0
150,7.5,2.9689,-2.785,-6.2966,-0.023586295989522173,0.16381031390352963,-0.99035025594249,-0.005112844775064518,0.05139643131252658,-0.3279826512018049,0,70,255.0,255.0,255.0
151,7.550000000000001,2.967713944947728,-2.776744908501318,-6.346525594936442,-0.023862890037906773,0.16639995133104465,-1.0066356180214546,-0.00595091716031928,0.052189065788072156,-0.32343183195677067,0,70,255.0,255.0,255.0
152,7.6000000000000005,2.9665130126025554,-2.768359344338166,-6.397259769452775,-0.024181387705554103,0.16902922048233684,-1.0226934391381672,-0.006788989545574029,0.05298170026361771,-0.3188810127117365,0,70,255.0,255.0,255.0
153,7.65,2.965295107783518,-2.759841325924355,-6.448791146500888,-0.024541788992464175,0.17169812135740636,-1.0385237192926282,-0.007627061930828778,0.05377433473916327,-0.3143301934667024,0,70,255.0,255.0,255.0
154,7.7,2.9640581353096542,-2.751188871673696,-6.501108349032666,-0.024944093898636978,0.17440665395625318,-1.0541264584848373,-0.008465134316083525,0.05456696921470883,-0.3097793742216682,0,70,255.0,255.0,255.0
155,7.75,2.9628,-2.7424,-6.5542,-0.02538830242407252,0.17715481827887722,-1.069501656714795,-0.009303206701338329,0.05535960369025417,-0.3052285549766349,0,70,255.0,255.0,255.0
156,7.800000000000001,2.961519258276943,-2.7334740091189236,-6.608055708077287,-0.025835318367730745,0.1798658262145709,-1.0847084573332022,-0.008577431044990314,0.05308071373749198,-0.30304346975964935,0,70,255.0,255.0,255.0
157,7.8500000000000005,2.960217072976274,-2.7244153164535034,-6.662669024828974,-0.02624604552857156,0.18246288965262647,-1.0998060036907602,-0.007851655388642312,0.05080182378472983,-0.30085838454266384,0,70,255.0,255.0,255.0
158,7.9,2.958895258537133,-2.7152296192286216,-6.718034487542015,-0.026620483906594973,0.1849460085930439,-1.1147942957874688,-0.00712587973229431,0.04852293383196769,-0.2986732993256783,0,70,255.0,255.0,255.0
159,7.95,2.9575556293986613,-2.7059226146691597,-6.7741466335033715,-0.02695863350180099,0.1873151830358232,-1.1296733336233278,-0.0064001040759463085,0.04624404387920555,-0.2964882141086928,0,70,255.0,255.0,255.0
160,8.0,2.9562,-2.6965,-6.831,-0.0272604943141896,0.18957041298096441,-1.1444431171983378,-0.005674328419598085,0.0439651539264434,-0.2943031288917073,0,70,255.0,255.0,255.0
161,8.05,2.954829821944499,-2.686966255022987,-6.888588372754413,-0.02754783649117284,0.1917847438106742,-1.159058552645747,-0.005819358659731402,0.044608079261947306,-0.29031428900465556,0,70,255.0,255.0,255.0
162,8.1,2.9534450954923495,-2.6773209898478196,-6.946902531231336,-0.02784243018016274,0.19403122090715913,-1.1734745460988032,-0.005964388899864713,0.04525100459745119,-0.286325449117604,0,70,255.0,255.0,255.0
163,8.15,2.9520454580679494,-2.6675625971611585,-7.005932503331054,-0.028144275381159312,0.1963098442704193,-1.1876910975575075,-0.00610941913999803,0.045893929932955095,-0.2823366092305523,0,70,255.0,255.0,255.0
164,8.200000000000001,2.9506305470956997,-2.6576894696496645,-7.065668316953849,-0.028453372094162554,0.1986206139004547,-1.2017082070218588,-0.006254449380131347,0.046536855268459,-0.2783477693435006,0,70,255.0,255.0,255.0
165,8.25,2.9492,-2.6477,-7.1261,-0.028769720319172444,0.20096352979726517,-1.2155258744918571,-0.006399479620264714,0.04717978060396133,-0.27435892945644014,0,70,255.0,255.0,255.0
166,8.3,2.947753453945059,-2.637592970789127,-7.187218000905067,-0.029093335667580843,0.20331519854273197,-1.2291693320838095,-0.006545134316071035,0.04688696921470896,-0.27137937422165376,0,70,255.0,255.0,255.0
167,8.35,2.9462905450543286,-2.6273687241552177,-7.249014450245685,-0.029424233750779547,0.20565222671873606,-1.2426638119140225,-0.006690789011877351,0.046594157825456596,-0.2683998189868675,0,70,255.0,255.0,255.0
168,8.4,2.944810909191068,-2.6170279921267445,-7.311481899133773,-0.029762414568768575,0.2079746143252776,-1.2560093139824962,-0.006836443707683671,0.046301346436204226,-0.26542026375208105,0,70,255.0,255.0,255.0
169,8.450000000000001,2.9433141822185385,-2.606571506732181,-7.374612898681241,-0.030107878121547922,0.21028236136235653,-1.269205838289231,-0.006982098403489992,0.046008535046951855,-0.2624407085172947,0,70,255.0,255.0,255.0
170,8.5,2.9418,-2.596,-7.4384,-0.03046062440911757,0.21257546782997278,-1.2822533848342255,-0.007127753099296225,0.045715723657698604,-0.2594611532824995,0,70,255.0,255.0,255.0
171,8.55,2.9402683622752637,-2.585314661820503,-7.502835623625327,-0.030798820838498844,0.21482646201839553,-1.295144119019006,-0.006400104075954711,0.04432404387920996,-0.2561682141087178,0,70,255.0,255.0,255.0
172,8.6,2.938720724290336,-2.5745185135313093,-7.567911667785921,-0.031100634816713036,0.21700787221789378,-1.307870206245097,-0.005672455052613223,0.042932364100721376,-0.2528752749349362,0,70,255.0,255.0,255.0
173,8.65,2.9371589051677782,-2.5636150343318627,-7.633619900133858,-0.031366066343760164,0.21911969842846762,-1.3204316465124997,-0.0049448060292717096,0.041540684322232735,-0.24958233576115452,0,70,255.0,255.0,255.0
174,8.700000000000001,2.935584724030146,-2.552607703421611,-7.699952088321195,-0.03159511541964022,0.2211619406501171,-1.332828439821213,-0.004217157005930196,0.04014900454374409,-0.2462893965873728,0,70,255.0,255.0,255.0
175,8.75,2.934,-2.5415,-7.7669,-0.03178778204435319,0.22313459888284204,-1.3450605861712368,-0.0034895079825887354,0.03875732476525506,-0.2429964574135841,0,70,255.0,255.0,255.0
176,8.8,2.9324058969538886,-2.530294781928858,-7.834455504593633,-0.031983380978421516,0.2250749533836849,-1.357134191840164,-0.0043344493801443906,0.03885685526845908,-0.23994776934349918,0,70,255.0,255.0,255.0
177,8.85,2.930800957784327,-2.518992421719546,-7.902610878610624,-0.03222122698236762,0.22702028440968794,-1.3690553631055866,-0.005179390777700015,0.03895638577166309,-0.23689908127341436,0,70,255.0,255.0,255.0
178,8.9,2.9291830701378205,-2.5075926705458036,-7.9713585003308,-0.032501320056191524,0.2289705919608512,-1.3808240999675054,-0.0060243321752556705,0.03905591627486711,-0.2338503932033294,0,70,255.0,255.0,255.0
179,8.950000000000001,2.9275501216608766,-2.496095279581374,-8.040690748033985,-0.032823660199893204,0.2309258760371747,-1.39244040242592,-0.006869273572811326,0.039155446778071125,-0.23080170513324447,0,70,255.0,255.0,255.0
180,9.0,2.9259,-2.4845,-8.1106,-0.03318824741347265,0.23288613663865834,-1.4039042704808296,-0.0077142149703668395,0.039254977281275805,-0.22775301706315076,0,70,255.0,255.0,255.0
181,9.05,2.924231249909183,-2.472807010464063,-8.181078358000144,-0.033555655247818644,0.23482572444686406,-1.4151991136203408,-0.006982098403472825,0.03832853504695256,-0.22404070851729324,0,70,255.0,255.0,255.0
182,9.1,2.922545044572357,-2.4610181995905087,-8.252116817771578,-0.03388645725381993,0.23671899014335357,-1.4263083413325588,-0.006249981836578838,0.037402092812629344,-0.22032839997143586,0,70,255.0,255.0,255.0
183,9.15,2.9208432142809397,-2.4491358834849235,-8.323706098542946,-0.034180653431476526,0.238565933728127,-1.4372319536174842,-0.005517865269684824,0.0364756505783061,-0.21661609142557833,0,70,255.0,255.0,255.0
184,9.200000000000001,2.919127589326348,-2.4371623782528915,-8.395836919542875,-0.03443824378078842,0.24036655520118425,-1.4479699504751171,-0.004785748702790811,0.035549208343982855,-0.2129037828797208,0,70,255.0,255.0,255.0
185,9.25,2.9174,-2.4251,-8.4685,-0.03465922830175561,0.24212085456252527,-1.458522331905456,-0.004053632135896712,0.034622766109660974,-0.2091914743338581,0,70,255.0,255.0,255.0
186,9.3,2.9156619034093803,-2.4129507762148887,-8.541686263405797,-0.0348659980303015,0.24384614882886035,-1.4689013536784858,-0.004217157005938745,0.03438900454374072,-0.20596939658732824,0,70,255.0,255.0,255.0
187,9.35,2.913913263926245,-2.400715579918419,-8.61538745030306,-0.035080944002349485,0.24555975501689933,-1.4791192715641888,-0.004380681875980773,0.034155242977820466,-0.2027473188407985,0,70,255.0,255.0,255.0
188,9.4,2.91215367273842,-2.388394995514504,-8.689595505497426,-0.03530406621789957,0.24726167312664235,-1.4891760855625658,-0.004544206746022806,0.03392148141190021,-0.19952524109426867,0,70,255.0,255.0,255.0
189,9.450000000000001,2.91038272103373,-2.3759896074070594,-8.76430237379453,-0.035535364676951765,0.2489519031580894,-1.4990717956736161,-0.0047077316160648395,0.03368771984597995,-0.1963031633477388,0,70,255.0,255.0,255.0
190,9.5,2.9086,-2.3635,-8.8395,-0.035774839379506054,0.2506304451112404,-1.5088064018973393,-0.0048712564861068675,0.033453958280059926,-0.1930810856012002,0,70,255.0,255.0,255.0
191,9.55,2.906805136453297,-2.3509266846763803,-8.915180588376673,-0.036020352630978913,0.25230168023769384,-1.5183954716657009,-0.0049492735728072345,0.033395446778076106,-0.1904817051332642,0,70,255.0,255.0,255.0
192,9.600000000000001,2.9049978997226633,-2.3382698807358158,-8.991337381016184,-0.03626976673678678,0.25396998978904806,-1.527854572410666,-0.0050272906595076015,0.03333693527609229,-0.18788232466532825,0,70,255.0,255.0,255.0
193,9.65,2.9031780947653796,-2.325529734457061,-9.06796387946735,-0.03652308169692967,0.25563537376530304,-1.5371837041322338,-0.005105307746207966,0.03327842377410848,-0.18528294419739239,0,70,255.0,255.0,255.0
194,9.700000000000001,2.901345526538731,-2.31270639211887,-9.145053585279015,-0.03678029751140758,0.25729783216645885,-1.5463828668304052,-0.005183324832908333,0.03321991227212466,-0.1826835637294564,0,70,255.0,255.0,255.0
195,9.75,2.8995,-2.2998,-9.2226,-0.0370414141802205,0.2589573649925155,-1.5554520605051794,-0.0052613419196085864,0.033161400770141736,-0.18008418326152054,0,70,255.0,255.0,255.0
196,9.8,2.89764155077743,-2.2868112850795885,-9.30059618308751,-0.03729259144578048,0.26057913022036844,-1.564364759658711,-0.00478574870279073,0.031709208343975594,-0.17642378287973623,0,70,255.0,255.0,255.0
197,9.850000000000001,2.8957711371831025,-2.2737432971383176,-9.379033425632223,-0.03751998905049958,0.26212828582691305,-1.5730944387931534,-0.004310155485972875,0.03025701591780945,-0.17276338249795192,0,70,255.0,255.0,255.0
198,9.9,2.8938899482000604,-2.2605996666572525,-9.457902576633174,-0.037723606994377774,0.2636048318121494,-1.581641097908506,-0.0038345622691550365,0.02880482349164336,-0.16910298211616773,0,70,255.0,255.0,255.0
199,9.950000000000001,2.891999172811346,-2.247384024117458,-9.53719448508942,-0.03790344527741508,0.26500876817607744,-1.59000473700477,-0.0033589690523371804,0.02735263106547722,-0.16544258173438342,0,70,255.0,255.0,255.0
200,10.0,2.8901,-2.2341,-9.6169,-0.038059503899611484,0.2663400949186971,-1.5981853560819441,-0.002883375835519175,0.025900438639312018,-0.16178218135259392,0,70,255.0,255.0,255.0
201,10.05,2.8881934604369826,-2.220750575005263,-9.697009879273287,-0.03820128158590119,0.26763779888082945,-1.606177489699452,-0.0027877316160692988,0.026007719845981204,-0.1579031633477203,0,70,255.0,255.0,255.0
202,10.100000000000001,2.886279951544926,-2.207336130710911,-9.777514516454943,-0.038338277061218416,0.2689408669032953,-1.6139756724167165,-0.002692087396619422,0.02611500105265039,-0.1540241453428467,0,70,255.0,255.0,255.0
203,10.15,2.884359712434377,-2.1938563989139284,-9.858404213999952,-0.03847049032556314,0.27024929898609445,-1.6215799042337367,-0.002596443177169549,0.026222282259319576,-0.15014512733797322,0,70,255.0,255.0,255.0
204,10.200000000000001,2.8824329822158856,-2.1803111114112967,-9.939669274363313,-0.03859792137893537,0.2715630951292272,-1.6289901851505135,-0.002500798957719672,0.026329563465988762,-0.1462661093330996,0,70,255.0,255.0,255.0
205,10.25,2.8805,-2.1667,-10.0213,-0.03872057022133511,0.2728822553326933,-1.6362065151670466,-0.0024051547382698546,0.0264368446726575,-0.14238709132822258,0,70,255.0,255.0,255.0
206,10.3,2.8785606074746375,-2.153023214899358,-10.103287499819347,-0.03886228221061447,0.2741816742563131,-1.6432772815434886,-0.0032633248329042696,0.02553991227213429,-0.14044356372945221,0,70,255.0,255.0,255.0
207,10.350000000000001,2.876613056637193,-2.139282580018035,-10.18562610854802,-0.03904690270462555,0.27543624655990673,-1.650250871539992,-0.004121494927538685,0.024642979871611077,-0.13850003613068185,0,70,255.0,255.0,255.0
208,10.4,2.8746552020624296,-2.125480337687034,-10.268310967367015,-0.039274431703368334,0.27664597224347415,-1.6571272851565568,-0.004979665022173069,0.0237460474710879,-0.13655650853191154,0,70,255.0,255.0,255.0
209,10.450000000000001,2.8726848983251108,-2.1116187302373555,-10.35133721745734,-0.03954486920684285,0.2778108513070155,-1.663906522393183,-0.005837835116807484,0.02284911507056469,-0.13461298093314117,0,70,255.0,255.0,255.0
210,10.5,2.8707,-2.0977,-10.4347,-0.03985821521504908,0.2789308837505306,-1.670588583249871,-0.006696005211441869,0.021952182670040177,-0.13266945333436553,0,70,255.0,255.0,255.0
211,10.55,2.868699309664466,-2.0837261653973043,-10.518393721449328,-0.040157589571643657,0.28001950409391846,-1.6771293841265893,-0.005278969052341111,0.021592631065473794,-0.12896258173436048,0,70,255.0,255.0,255.0
212,10.600000000000001,2.866685421906301,-2.069698349216945,-10.602409849352993,-0.040386112120283195,0.281090146857078,-1.6834848414233072,-0.003861932893240354,0.02123307946090741,-0.1252557101343554,0,70,255.0,255.0,255.0
213,10.65,2.8646618793159035,-2.055617450337934,-10.686739116531992,-0.04054378286096769,0.2821428120400092,-1.6896549551400248,-0.002444896734139647,0.020873527856341043,-0.1215488385343505,0,70,255.0,255.0,255.0
214,10.700000000000001,2.8626322244836704,-2.0414843676392813,-10.771372255807329,-0.04063060179369716,0.2831774996427121,-1.6956397252767423,-0.0010278605750388891,0.02051397625177466,-0.11784196693434544,0,70,255.0,255.0,255.0
215,10.75,2.8606,-2.0273,-10.8563,-0.040646568918471584,0.2841942096651866,-1.7014391518334595,0.00038917558406159625,0.020154424647207847,-0.11413509533434585,0,70,255.0,255.0,255.0
216,10.8,2.858567753867497,-2.0130657235114233,-10.941513614383341,-0.04065135950281273,0.28516430936801646,-1.707085181950147,-0.0005807989577072541,0.01864956346598523,-0.11170610933314681,0,70,255.0,255.0,255.0
217,10.850000000000001,2.8565340557376,-1.998784823114182,-11.027006494040016,-0.04070464881424231,0.28605916601178516,-1.7126097627667742,-0.0015507734994761044,0.017144702284762614,-0.10927712333194776,0,70,255.0,255.0,255.0
218,10.9,2.8544964806739546,-1.9844610609612297,-11.112772566505017,-0.040806436852760336,0.28687877959649266,-1.7180128942833417,-0.0025207480412449204,0.015639841103540053,-0.10684813733074881,0,70,255.0,255.0,255.0
219,10.950000000000001,2.8524526037402063,-1.9700981992055173,-11.198805759313348,-0.0409567236183668,0.2876231501221391,-1.7232945764998493,-0.003490722583013771,0.014134979922317437,-0.10441915132954976,0,70,255.0,255.0,255.0
220,11.0,2.8504,-1.9557,-11.2851,-0.041155509111061715,0.2882922775887244,-1.7284548094162966,-0.004460697124782864,0.012630118741091767,-0.10199016532834726,0,70,255.0,255.0,255.0
221,11.05,2.848336874865544,-1.941269340557,-11.37164862101731,-0.041364972417101804,0.2889392584340157,-1.7334578880728333,-0.003917835116820493,0.013249115070559822,-0.0981329809331203,0,70,255.0,255.0,255.0
222,11.100000000000001,2.846263955143297,-1.9268055583263235,-11.458442574486956,-0.041547292622743766,0.2896171890957804,-1.738268107509609,-0.0033749731088581216,0.013868111400027878,-0.09427579653789334,0,70,255.0,255.0,255.0
223,11.15,2.844182597988276,-1.9123071058171475,-11.545472217447942,-0.041702469727987614,0.29032606957401846,-1.7428854677266226,-0.002832111100895769,0.01448710772949591,-0.0904186121426665,0,70,255.0,255.0,255.0
224,11.200000000000001,2.8420941605555043,-1.897772435538647,-11.632727906939289,-0.04183050373283335,0.29106589986873,-1.7473099687238753,-0.002289249092933398,0.015106104058963968,-0.08656142774743954,0,70,255.0,255.0,255.0
225,11.25,2.84,-1.8832,-11.7202,-0.041931394637280954,0.2918366799799148,-1.7515416105013668,-0.0017463870849712682,0.015725100388431557,-0.08270424335220383,0,70,255.0,255.0,255.0
226,11.3,2.837901546670325,-1.8685889142605756,-11.80787910154742,-0.042000750828781214,0.2925986568959201,-1.75559526575853,-0.001027860575039031,0.014753976251779818,-0.07944196693433193,0,70,255.0,255.0,255.0
227,11.350000000000001,2.835800523689213,-1.8539409435805212,-11.895756808012173,-0.04203418069478486,0.2933120776050928,-1.7594858071948,-0.00030933406510679396,0.01378285211512808,-0.07617969051646005,0,70,255.0,255.0,255.0
228,11.4,2.8336987273729384,-1.83925851577018,-11.983824963703215,-0.04203168423529189,0.29397694210743286,-1.7632132348101763,0.00040919244482541745,0.012811727978476376,-0.07291741409858828,0,70,255.0,255.0,255.0
229,11.450000000000001,2.831597954037776,-1.824544058639892,-12.07207541292951,-0.04199326145030231,0.2945932504029405,-1.7667775486046589,0.0011277189547576547,0.01184060384182464,-0.06965513768071638,0,70,255.0,255.0,255.0
230,11.5,2.8295,-1.8098,-12.1605,-0.041918912339816136,0.2951610024916154,-1.7701787485782479,0.0018462454646898108,0.010869479705174268,-0.06639286126283395,0,70,255.0,255.0,255.0
231,11.55,2.8274057384531535,-1.7950286024006972,-12.24909097279302,-0.04186402426777403,0.2956901139823027,-1.7734410488930572,0.00034927741699424344,0.01029497992231673,-0.06409915132953753,0,70,255.0,255.0,255.0
232,11.600000000000001,2.8253123500998494,-1.7802314673515884,-12.337842193464365,-0.041883984598116715,0.2961905004838471,-1.7765886637112016,-0.0011476906307013239,0.009720480139459193,-0.06180544139624111,0,70,255.0,255.0,255.0
233,11.65,2.8232160925199685,-1.7654100311021315,-12.426747927739196,-0.041978793330844165,0.2966621619962486,-1.7796215930326813,-0.002644658678396838,0.009145980356601675,-0.05951173146294478,0,70,255.0,255.0,255.0
234,11.700000000000001,2.821113223293392,-1.7505657299017825,-12.515802441342686,-0.042148450465956395,0.2971050985195072,-1.782539836857496,-0.004141626726092406,0.008571480573744138,-0.05721802152964836,0,70,255.0,255.0,255.0
235,11.75,2.819,-1.7357,-12.605,-0.0423929560034534,0.297519310053623,-1.785343395185646,-0.005638594773787697,0.007996980790885289,-0.054924311596348474,0,70,255.0,255.0,255.0
236,11.8,2.8168738995170606,-1.7208142761366352,-12.69433380728051,-0.04263915210012153,0.2979048871748692,-1.7879685386692403,-0.00420924909293743,0.007426104058963815,-0.05008142774742048,0,70,255.0,255.0,255.0
237,11.850000000000001,2.814737275911389,-1.7059099870131227,-12.783792818130385,-0.04281388091274715,0.2982619204595194,-1.7903515379603883,-0.002779903412087163,0.0068552273270423405,-0.04523854389849248,0,70,255.0,255.0,255.0
238,11.9,2.8125937025471863,-1.690988559821293,-12.873364925340006,-0.04291714244133025,0.29859040990757346,-1.7924923930590895,-0.0013505577312369465,0.006284350595120887,-0.040395660049564665,0,70,255.0,255.0,255.0
239,11.950000000000001,2.810446752788656,-1.6760514217529754,-12.963038021699752,-0.04294893668587084,0.2988903555190314,-1.7943911039653446,7.878794961332057e-05,0.005713473863199413,-0.03555277620063667,0,70,255.0,255.0,255.0
240,12.0,2.8083,-1.6611,-13.0528,-0.04290926364636891,0.2991617572938934,-1.7960476706791533,0.0015081336304637039,0.0051425971312779595,-0.030709892351705292,0,70,255.0,255.0,255.0
241,12.05,2.806156263478605,-1.6461358930527616,-13.142640198084951,-0.04284336733173838,0.2993943373182209,-1.797548796429965,0.0011277189547575675,0.004160603841822294,-0.02933513768077132,0,70,255.0,255.0,255.0
242,12.100000000000001,2.804015346254596,-1.6311613845959188,-13.232553734014106,-0.04279649175089316,0.2995778176780756,-1.7989811844472305,0.0007473042790514309,0.0031786105523666282,-0.027960383009837348,0,70,255.0,255.0,255.0
243,12.15,2.8018762972912854,-1.6161789296126952,-13.322537170900782,-0.042768636903833236,0.29971219837345753,-1.800344834730949,0.000366889603345308,0.0021966172629109978,-0.026585628338903423,0,70,255.0,255.0,255.0
244,12.200000000000001,2.7997381655519833,-1.6011909830863142,-13.412587071858308,-0.042759802790558625,0.2997974794043667,-1.8016397472811208,-1.3525072360828609e-05,0.0012146239734553326,-0.025210873667969452,0,70,255.0,255.0,255.0
245,12.25,2.7976,-1.5862,-13.5027,-0.04276998941106932,0.2998336607708031,-1.8028659220977459,-0.0003939397480668405,0.00023263068399970166,-0.02383611899702842,0,70,255.0,255.0,255.0
246,12.3,2.795461046568521,-1.5712077516523173,-13.592871000379692,-0.04278737857292331,0.2998617635522467,-1.8039322756109124,-0.000301626726092695,0.0008914805737442061,-0.018818021529631964,0,70,255.0,255.0,255.0
247,12.350000000000001,2.793321339070226,-1.5562132746032002,-13.683089045813206,-0.04280015208367859,0.2999228088281775,-1.804747724250709,-0.00020931370411854958,0.0015503304634887105,-0.013799924062235505,0,70,255.0,255.0,255.0
248,12.4,2.791181108287671,-1.5412149217279247,-13.773341591056871,-0.04280830994333516,0.3000167965985956,-1.8053122680171358,-0.00011700068214440739,0.0022091803532331912,-0.008781826594839224,0,70,255.0,255.0,255.0
249,12.450000000000001,2.789040585003411,-1.5262110459017657,-13.863616090867026,-0.04281185215189303,0.3001437268635008,-1.805625906910193,-2.4687660170261952e-05,0.002868030242977696,-0.003763729127442765,0,70,255.0,255.0,255.0
250,12.5,2.7869,-1.5112,-13.9539,-0.042810778709352196,0.3003035996228933,-1.80568864092988,6.762536180382472e-05,0.0035268801327230648,0.0012543683399623973,0,70,255.0,255.0,255.0
251,12.55,2.784759550247313,-1.4961811003379684,-14.044182200396296,-0.04280711837656698,0.30043860847279147,-1.8055861011263956,7.878794960485284e-05,0.0018734738632044433,0.0028472237994126683,0,70,255.0,255.0,255.0
252,12.600000000000001,2.7826192974645,-1.4811575169912783,-14.134457282733093,-0.04280289991439171,0.3004909470092138,-1.8054039185499386,8.995053740588098e-05,0.00022006759368582186,0.004440079258862939,0,70,255.0,255.0,255.0
253,12.65,2.7804792695580303,-1.4661333834756047,-14.224721264871741,-0.04279812332282639,0.3004606152321601,-1.8051420932005093,0.0001011131252069087,-0.0014333386758327415,0.006032934718313155,0,70,255.0,255.0,255.0
254,12.700000000000001,2.778339494434374,-1.4511128333066206,-14.314970164673595,-0.042792788601871024,0.3003476131416305,-1.8048006250781075,0.00011227571300793684,-0.003086744945351363,0.007625790177763426,0,70,255.0,255.0,255.0
255,12.75,2.7762,-1.4361,-14.4052,-0.04278689575152559,0.300151940737625,-1.804379514182733,0.00012343830080935314,-0.0047401512148703695,0.009218645637206535,0,70,255.0,255.0,255.0
256,12.8,2.774060752442227,-1.4210982469958084,-14.495405798035137,-0.04278414792081416,0.29991980255658957,-1.8038193198835026,-1.3525072352118264e-05,-0.0045453760265488944,0.013189126332007518,0,70,255.0,255.0,255.0
257,12.850000000000001,2.771921471071774,-1.4061078574316836,-14.585578623254442,-0.042788248258760805,0.2996974031349701,-1.8030606015495323,-0.00015048844551358967,-0.004350600838227419,0.0171596070268085,0,70,255.0,255.0,255.0
258,12.9,2.7697818134802072,-1.391128344369655,-14.675708549456175,-0.04279919676536552,0.2994847424727668,-1.8021033591808218,-0.00028745181867505617,-0.004155825649905952,0.02113008772160934,0,70,255.0,255.0,255.0
259,12.950000000000001,2.767641437259093,-1.3761592208717501,-14.76578565043861,-0.04281699344062831,0.29928182056997954,-1.8009475927773713,-0.0004244151918365276,-0.003961050461584477,0.025100568416410327,0,70,255.0,255.0,255.0
260,13.0,2.7655,-1.3612,-14.8558,-0.04284163828454916,0.2990886374266083,-1.7995933023391806,-0.0005613785649977165,-0.0037662752732670057,0.029071049111212943,0,70,255.0,255.0,255.0
261,13.05,2.7633574399837766,-1.3462507116787958,-14.94574180746317,-0.04285628994017815,0.29887418130085097,-1.7980486193395866,-2.468766016178528e-05,-0.004811969757026639,0.032716270872546055,0,70,255.0,255.0,255.0
262,13.100000000000001,2.7612148182484026,-1.3313134532819841,-15.035601824249161,-0.04284410705056534,0.29860744045090565,-1.796321675251926,0.000512003244674146,-0.005857664240786271,0.03636149263387917,0,70,255.0,255.0,255.0
263,13.15,2.7590734765211407,-1.316390839045775,-15.125370937303563,-0.04280508961571074,0.2982884148767723,-1.7944124700761988,0.0010486941495100582,-0.006903358724545868,0.04000671439521215,0,70,255.0,255.0,255.0
264,13.200000000000001,2.7569347565292524,-1.301485483206377,-15.215040033571979,-0.04273923763561434,0.29791710457845105,-1.7923210038124047,0.0015853850543459894,-0.0079490532083055,0.043651936156545265,0,70,255.0,255.0,255.0
265,13.25,2.7548,-1.2866,-15.3046,-0.04264655111027614,0.2974935095559418,-1.7900472764605442,0.0021220759591820126,-0.00899474769206865,0.04729715791787825,0,70,255.0,255.0,255.0
266,13.3,2.752670287622666,-1.2717365062890067,-15.394042172112188,-0.04254269231847149,0.2970474722400064,-1.787618202758153,0.0020322757130036384,-0.00884674494534696,0.0498657901777641,0,70,255.0,255.0,255.0
267,13.350000000000001,2.7505456559346144,-1.2568951294403765,-15.483359679748935,-0.04244332353897577,0.29660883506140706,-1.7850606974427679,0.001942475466825264,-0.008698742198625271,0.05243442243764996,0,70,255.0,255.0,255.0
268,13.4,2.7484258804352297,-1.2420754994472436,-15.572546101329584,-0.04234844477178897,0.2961775980201439,-1.782374760514388,0.0018526752206468927,-0.008550739451903587,0.05500305469753572,0,70,255.0,255.0,255.0
269,13.450000000000001,2.746310736623897,-1.22727724630274,-15.66159501527349,-0.042258056016911086,0.2957537611162167,-1.7795603919730143,0.0017628749744685182,-0.008402736705181898,0.057571686957421576,0,70,255.0,255.0,255.0
270,13.5,2.7442,-1.2125,-15.7505,-0.04217215727434212,0.2953373243496256,-1.776617591818646,0.001673074728290258,-0.008254733958461546,0.06014031921731444,0,70,255.0,255.0,255.0
271,13.55,2.7420934095255602,-1.197744063165176,-15.839254304088078,-0.04209294078593109,0.29488792973912437,-1.7735265696278015,0.001495584808150638,-0.009721050461589551,0.06350056841646183,0,70,255.0,255.0,255.0
272,13.600000000000001,2.7399905580131403,-1.1830124289565065,-15.927849856755117,-0.04202259879352705,0.29436521930346665,-1.7702675349769998,0.0013180948880110181,-0.011187366964717557,0.06686081761560923,0,70,255.0,255.0,255.0
273,13.65,2.7378910017379408,-1.168308763165249,-16.016278257378115,-0.04196113129712999,0.2937691930426526,-1.7668404878662407,0.0011406049678714045,-0.012653683467845511,0.07022106681475651,0,70,255.0,255.0,255.0
274,13.700000000000001,2.7357942969751603,-1.1536367315826603,-16.104531105334075,-0.04190853829673991,0.2930998509566821,-1.763245428295524,0.0009631150477317847,-0.014119999970973516,0.0735813160139039,0,70,255.0,255.0,255.0
275,13.75,2.7337,-1.139,-16.1926,-0.04186481979235681,0.29235719304555524,-1.7594823562648503,0.0007856251275923376,-0.015586316474102357,0.07694156521304762,0,70,255.0,255.0,255.0
276,13.8,2.731608074275094,-1.1244016410502873,-16.280476611535498,-0.04180554453780814,0.291576808803495,-1.7555555187306118,0.0015853850543545713,-0.015629053208306144,0.08013193615649147,0,70,255.0,255.0,255.0
277,13.850000000000001,2.7295201120128247,-1.1098423547335952,-16.36815289323061,-0.04170628128692135,0.2907942877247246,-1.751469162649201,0.002385144981116805,-0.01567178994250993,0.08332230709993534,0,70,255.0,255.0,255.0
278,13.9,2.7274381126130076,-1.0953222478917604,-16.455620869157965,-0.04156703003969646,0.290009629809244,-1.7472232880206182,0.0031849049078790104,-0.015714526676713712,0.08651267804337907,0,70,255.0,255.0,255.0
279,13.950000000000001,2.725364075475461,-1.080841427366616,-16.54287256339022,-0.041387790796133445,0.28922283505705326,-1.7428178948448632,0.003984664834641244,-0.0157572634109175,0.08970304898682294,0,70,255.0,255.0,255.0
280,14.0,2.7233,-1.0664,-16.6299,-0.04116856355623233,0.2884339034681523,-1.738252983121936,0.004784424761403505,-0.015800000145122173,0.09289341993027023,0,70,255.0,255.0,255.0
281,14.05,2.7212470933740622,-1.0519981726336738,-16.716695249769923,-0.040956881062835425,0.28763683504689475,-1.733531355449744,0.0036828749744725565,-0.016082736705179904,0.09597168695740525,0,70,255.0,255.0,255.0
282,14.100000000000001,2.719203393935561,-1.03763655210911,-16.803250570322454,-0.040800276058785064,0.28682562979763426,-1.7286558144261954,0.0025813251875416074,-0.016365473265237636,0.09904995398454028,0,70,255.0,255.0,255.0
283,14.15,2.717166147810028,-1.0233158452677102,-16.88955826599002,-0.040698748544081266,0.28600028772037095,-1.72362636005129,0.0014797754006106978,-0.01664820982529536,0.10212822101167521,0,70,255.0,255.0,255.0
284,14.200000000000001,2.7151326011229964,-1.0090367589508733,-16.97561064110506,-0.040652298518724005,0.28516080881510475,-1.7184429923250277,0.0003782256136797488,-0.016930946385353092,0.10520648803881023,0,70,255.0,255.0,255.0
285,14.25,2.7131,-0.9948,-17.0614,-0.040660925982713286,0.2843071930818356,-1.7131057112474093,-0.0007233241732511608,-0.017213682945413034,0.10828475506594692,0,70,255.0,255.0,255.0
286,14.3,2.7110667522286565,-0.9806064684150172,-17.14691838938481,-0.04065493121085148,0.28342785100892587,-1.7075990594704125,0.0009631150477233748,-0.017959999970976002,0.11198131601391635,0,70,255.0,255.0,255.0
287,14.350000000000001,2.709035912244932,-0.9664578368299617,-17.232156825479585,-0.04056461447794095,0.282511193084738,-1.7019075796460175,0.0026495542686979104,-0.018706316996538973,0.11567787696188578,0,70,255.0,255.0,255.0
288,14.4,2.7070116961468793,-0.952355971037398,-17.317106066881955,-0.040389975783981694,0.28155721930927197,-1.696031271774224,0.004335993489672386,-0.019452634022101917,0.11937443790985508,0,70,255.0,255.0,255.0
289,14.450000000000001,2.7049983200325514,-0.9383027368298892,-17.40175687218955,-0.040131015128973706,0.2805659296825278,-1.689970135855032,0.006022432710646922,-0.020198951047664886,0.12307099885782449,0,70,255.0,255.0,255.0
290,14.5,2.703,-0.9243,-17.4861,-0.03978773251291701,0.2795373242045055,-1.6837241718884417,0.007708871931621619,-0.02094526807322783,0.1267675598057938,0,70,255.0,255.0,255.0
291,14.55,2.7010194977113113,-0.9103495537062568,-17.57012639269084,-0.03944739409376011,0.2784757609174019,-1.6773044066686251,0.0059046648346539245,-0.021517263410916785,0.13002304898686642,0,70,255.0,255.0,255.0
292,14.600000000000001,2.6990537570847097,-0.8964529005710409,-17.653827727759214,-0.03919726602945161,0.2773855978634138,-1.6707218669897548,0.00410045773768623,-0.02208925874860574,0.13327853816793908,0,70,255.0,255.0,255.0
293,14.65,2.697098267602452,-0.882611470582697,-17.737195866482164,-0.039037348319991484,0.2762668350425413,-1.6639765528518313,0.0022962506407185985,-0.02266125408629467,0.1365340273490116,0,70,255.0,255.0,255.0
294,14.700000000000001,2.6951485187467963,-0.8688266937295683,-17.820222670136747,-0.03896764096537975,0.2751194724547843,-1.6570684642548537,0.000492043543750903,-0.023233249423983627,0.13978951653008423,0,70,255.0,255.0,255.0
295,14.75,2.6932,-0.8551,-17.9029,-0.03898814396561639,0.273943510100143,-1.6499976011988229,-0.001312163553216783,-0.02380524476167123,0.14304500571116385,0,70,255.0,255.0,255.0
296,14.8,2.6912496569260975,-0.8414329167599545,-17.985220039851832,-0.03901149241410503,0.2727331053214673,-1.642783313855074,0.0003782256136711699,-0.02461094638535527,0.14552648803878693,0,70,255.0,255.0,255.0
297,14.850000000000001,2.6893002594162287,-0.8278273608858726,-18.067176263483567,-0.03895032140424927,0.27148241546160745,-1.635444952394944,0.002068614780559123,-0.02541664800903931,0.14800797036641,0,70,255.0,255.0,255.0
298,14.9,2.6873560334433115,-0.8142853466318136,-18.14876246718939,-0.03880463093604912,0.2701914405205634,-1.6279825168184332,0.003759003947447016,-0.026222349632723324,0.150489452694033,0,70,255.0,255.0,255.0
299,14.950000000000001,2.685421204980263,-0.8008088882518362,-18.22997244726347,-0.03857442100950457,0.26886018049833516,-1.6203960071255408,0.005449393114334969,-0.027028051256407365,0.15297093502165607,0,70,255.0,255.0,255.0
300,15.0,2.6835,-0.7874,-18.3108,-0.038259691624615635,0.2674886353949226,-1.6126854233162673,0.007139782281222584,-0.02783375288009271,0.15545241734928794,0,70,255.0,255.0,255.0
301,15.05,2.6815954745842996,-0.7740603792539237,-18.391238247901832,-0.03793063624981889,0.26609581779672864,-1.6048103379110898,0.0060224327106468915,-0.02787895104766669,0.15955099885780874,0,70,255.0,255.0,255.0
302,15.100000000000001,2.6797060052503756,-0.7607904558854663,-18.471277618306523,-0.037657448353550935,0.2647007402901559,-1.5967303234304862,0.0049050831400712,-0.027924149215240668,0.16364958036632954,0,70,255.0,255.0,255.0
303,15.15,2.677828798624302,-0.7475903428900477,-18.55090786476029,-0.03744012793581177,0.26330340287520454,-1.5884453798744569,0.003787733569495547,-0.027969347382814647,0.16774816187485017,0,70,255.0,255.0,255.0
304,15.200000000000001,2.6759610613321527,-0.7344601532630857,-18.630118740809376,-0.03727867499660139,0.2619038055518745,-1.5799555072430012,0.002670383998919855,-0.028014545550388625,0.17184674338337097,0,70,255.0,255.0,255.0
305,15.25,2.6741,-0.7214,-18.7089,-0.037173089535919794,0.2605019483201657,-1.5712607055361196,0.0015530344283442576,-0.028059743717962604,0.17594532489189696,0,70,255.0,255.0,255.0
306,15.3,2.672243644736704,-0.7084103662243499,-18.787242168540843,-0.03707396258661752,0.2590756234916171,-1.5624073345005687,0.0024120435437466016,-0.028993249423979798,0.17818951653013326,0,70,255.0,255.0,255.0
307,15.350000000000001,2.670393319582268,-0.6954932155722595,-18.865138863290362,-0.036931885181545124,0.2576026233777677,-1.553441753883106,0.0032710526591489455,-0.029926755129996988,0.18043370816836954,0,70,255.0,255.0,255.0
308,15.4,2.6685511720594794,-0.6826508818079948,-18.942584473769454,-0.03674685732070263,0.25608294797861747,-1.544363963683732,0.004130061774551259,-0.030860260836014147,0.18267789980660576,0,70,255.0,255.0,255.0
309,15.450000000000001,2.6667193496911272,-0.6698856986958197,-19.019573389499033,-0.03651887900409,0.25451659729416626,-1.5351739639024455,0.004989070889953602,-0.03179376654203134,0.18492209144484203,0,70,255.0,255.0,255.0
310,15.5,2.6649,-0.6572,-19.0961,-0.03624795023170727,0.2529035713244143,-1.525871754539248,0.005848080005355805,-0.03272727224804761,0.18716628308308358,0,70,255.0,255.0,255.0
311,15.55,2.663094746468883,-0.644595755848676,-19.1721578779348,-0.03596551340371479,0.25126568823680295,-1.5164083240866297,0.005449393114343254,-0.03278805125640716,0.19137093502164154,0,70,255.0,255.0,255.0
312,15.600000000000001,2.6613031164205525,-0.632073481825493,-19.24773732853205,-0.035703010920272935,0.24962476619877355,-1.5067346610370835,0.005050706223330703,-0.032848830264766704,0.1955755869601995,0,70,255.0,255.0,255.0
313,15.65,2.65952411313778,-0.6196333298779724,-19.322827840161896,-0.035460442781381725,0.24798080521032628,-1.4968507653906098,0.004652019332318166,-0.03290960927312625,0.19978023889875732,0,70,255.0,255.0,255.0
314,15.700000000000001,2.6577567399033386,-0.6072754519536341,-19.39741890119449,-0.035237808987041125,0.24633380527146095,-1.4867566371472078,0.004253332441305616,-0.032970388281485796,0.20398489083731527,0,70,255.0,255.0,255.0
315,15.75,2.656,-0.595,-19.4715,-0.03503510953725116,0.2446837663821777,-1.4764522763068781,0.0038546455502930788,-0.03303116728984534,0.20818954277588197,0,70,255.0,255.0,255.0
316,15.8,2.6542533693877624,-0.5828074103809451,-19.545061519719955,-0.03482398379852073,0.24301362356117173,-1.4659913691528972,0.004590383998923952,-0.03377454555039244,0.21024674338335425,0,70,255.0,255.0,255.0
317,15.850000000000001,2.6525182147355215,-0.5706992571257663,-19.618097422581453,-0.034576071137358756,0.2413063118271384,-1.4554276019685424,0.005326122447554825,-0.034517923810939544,0.21230394399082653,0,70,255.0,255.0,255.0
318,15.9,2.6507963753894,-0.5586773986801152,-19.690602565582967,-0.03429137155376526,0.23956183118007782,-1.4447609747538144,0.006061860896185672,-0.03526130207148662,0.21436114459829875,0,70,255.0,255.0,255.0
319,15.950000000000001,2.649089690695519,-0.5467436934896424,-19.76257180572299,-0.03396988504774019,0.23778018161998976,-1.4339914875087127,0.006797599344816545,-0.03600468033203372,0.21641834520577102,0,70,255.0,255.0,255.0
320,16.0,2.6474,-0.5349,-19.834,-0.0336116116192836,0.23596136314687446,-1.4231191402332375,0.007533337793447392,-0.036748058592580124,0.21847554581324324,0,70,255.0,255.0,255.0
321,16.05,2.645728575980068,-0.5231482026275425,-19.90488084318538,-0.0332505514021989,0.2341038175185092,-1.4120741993017858,0.00690907088994053,-0.037553766542029146,0.22332209144482007,0,70,255.0,255.0,255.0
322,16.1,2.644074424637361,-0.51149028967144,-19.975203381142155,-0.032920704530289537,0.23220598649267152,-1.4007869310887553,0.006284803986433667,-0.03835947449147816,0.2281686370763969,0,70,255.0,255.0,255.0
323,16.150000000000002,2.6424359853046195,-0.4999282754015662,-20.044955497506237,-0.032622071003555526,0.23026787006936134,-1.3892573355941458,0.0056605370829268045,-0.03916518244092718,0.23301518270797372,0,70,255.0,255.0,255.0
324,16.2,2.6408116973145854,-0.4884641740877956,-20.114125075913538,-0.03235465082199687,0.22828946824857885,-1.3774854128179583,0.0050362701794199865,-0.03997089039037614,0.23786172833955022,0,70,255.0,255.0,255.0
325,16.25,2.6392,-0.4771,-20.1827,-0.032118443985613546,0.22627078103032383,-1.3654711627601912,0.004412003275912846,-0.04077659833982494,0.2427082739711306,0,70,255.0,255.0,255.0
326,16.3,2.6375995266919667,-0.4658373791088841,-20.25066950753852,-0.031901810592683086,0.22423510636479108,-1.3532958336399785,0.004253332441305544,-0.04065038828148406,0.2443048908373637,0,70,255.0,255.0,255.0
327,16.35,2.636009686715036,-0.454676384188472,-20.318028252849942,-0.03169311074148298,0.22220574220217537,-1.3410406736764544,0.004094661606698242,-0.04052417822314318,0.2459015077035968,0,70,255.0,255.0,255.0
328,16.400000000000002,2.6344300833921226,-0.44361669971361767,-20.384772244392114,-0.03149234443201326,0.2201826885424767,-1.3287056828696187,0.00393599077209094,-0.040397968164802296,0.24749812456982995,0,70,255.0,255.0,255.0
329,16.45,2.63286032004614,-0.43265801015917615,-20.45089749062285,-0.0312995116642739,0.21816594538569523,-1.3162908612194721,0.0037773199374836496,-0.04027175810646142,0.24909474143606294,0,70,255.0,255.0,255.0
330,16.5,2.6313,-0.4218,-20.5164,-0.031114612438264903,0.21615551273183062,-1.3037962087260127,0.0036186491028764034,-0.04014554804812209,0.25069135830230493,0,70,255.0,255.0,255.0
331,16.55,2.6297493172520663,-0.4110430809369201,-20.581274726660546,-0.03090220622707246,0.21410775702232665,-1.2911584661383093,0.004877599344821133,-0.041764680332035356,0.25481834520581975,0,70,255.0,255.0,255.0
332,16.6,2.6282108285024943,-0.4003905735746703,-20.645512407458078,-0.030626852503782786,0.21197904469862702,-1.2783143742054304,0.006136549586765863,-0.04338381261594861,0.25894533210933457,0,70,255.0,255.0,255.0
333,16.650000000000002,2.6266876811268896,-0.38984652574396034,-20.709102724925337,-0.03028855126839587,0.20976937576073174,-1.2652639329273756,0.007395499828710593,-0.045002944899861876,0.2630723190128494,0,70,255.0,255.0,255.0
334,16.7,2.625183022500856,-0.37941498527550077,-20.772035361595062,-0.029887302520911745,0.20747875020864096,-1.252007142304146,0.008654450070655233,-0.04662207718377502,0.2671993059163639,0,70,255.0,255.0,255.0
335,16.75,2.6237,-0.3691,-20.8343,-0.029423106261330354,0.2051071680423543,-1.2385440023357397,0.009913400312600046,-0.048241209467688506,0.27132629281987874,0,70,255.0,255.0,255.0
336,16.8,2.6222408042997687,-0.3589046971434345,-20.895886785819293,-0.02895336449902965,0.20270986554590265,-1.224902301806756,0.008876270179427928,-0.04765089039037579,0.27434172833946496,0,70,255.0,255.0,255.0
337,16.85,2.620803799274986,-0.348828521512845,-20.956787717317745,-0.02853547924338755,0.20034207900331663,-1.2111098295017928,0.00783914004625581,-0.04706057131306308,0.2773571638590512,0,70,255.0,255.0,255.0
338,16.900000000000002,2.619386392100319,-0.33886999731053813,-21.016995255906544,-0.028169450494404058,0.19800380841459628,-1.1971665854208504,0.00680200991308369,-0.04647025223575036,0.28037259937863734,0,70,255.0,255.0,255.0
339,16.95,2.6179859899504345,-0.3290276487388214,-21.076501862996896,-0.027855278252079188,0.19569505377974172,-1.1830725695639297,0.005764879779911645,-0.04587993315843769,0.28338803489822334,0,70,255.0,255.0,255.0
340,17.0,2.6166,-0.3193,-21.1353,-0.02759296251641291,0.1934158150987526,-1.1688277819310287,0.004727749646739499,-0.045289614081124974,0.28640347041780956,0,70,255.0,255.0,255.0
341,17.05,2.615226665548859,-0.30968613048934085,-21.193382130062272,-0.02733233577680744,0.1911327807940629,-1.1544323266346805,0.005697319937479165,-0.046031758106462574,0.28941474143611007,0,70,255.0,255.0,255.0
342,17.1,2.6138675743975615,-0.30018734037394784,-21.250740723270955,-0.027023230522664986,0.18881263928810627,-1.1398863077874173,0.00666689022821883,-0.04677390213180017,0.2924260124544106,0,70,255.0,255.0,255.0
343,17.150000000000002,2.6125251504718343,-0.29080548501388437,-21.3073682514485,-0.02666564675398555,0.1864553905808828,-1.1251897253892391,0.007636460518958495,-0.04751604615713777,0.29543728347271114,0,70,255.0,255.0,255.0
344,17.2,2.6112018176974057,-0.28154241976921446,-21.363257186417364,-0.026259584470769155,0.1840610346723926,-1.1103425794401467,0.008606030809698092,-0.04825819018247531,0.29844855449101143,0,70,255.0,255.0,255.0
345,17.25,2.6099,-0.2724,-21.4184,-0.02580504367301575,0.18162957156263534,-1.0953448699401382,0.009575601100437953,-0.0490003342078118,0.30145982550931016,0,70,255.0,255.0,255.0
346,17.3,2.6086213335047956,-0.2633803808992012,-21.472788693931616,-0.025349292393738624,0.17914301127784563,-1.0801683916544969,0.008654450070646828,-0.05046207718377482,0.305599305916341,0,70,255.0,255.0,255.0
347,17.35,2.6073643031347675,-0.2544869169913618,-21.526413389598442,-0.024939598665951055,0.1765833638442578,-1.0647849393485038,0.007733299040855703,-0.051923820159737843,0.3097387863233718,0,70,255.0,255.0,255.0
348,17.400000000000002,2.6061266060123423,-0.24572326263392175,-21.57926373829946,-0.024575962489653044,0.1739506292618718,-1.049194513022159,0.006812148011064578,-0.05338556313570086,0.31387826673040264,0,70,255.0,255.0,255.0
349,17.45,2.604905939259945,-0.23709307218432163,-21.63132939133365,-0.02425838386484461,0.17124480753068783,-1.0333971126754642,0.005890996981273518,-0.054847306111663774,0.31801774713743314,0,70,255.0,255.0,255.0
350,17.5,2.6037,-0.2286,-21.6826,-0.023986862791525704,0.16846589865070555,-1.0173927383084167,0.004969845951482421,-0.05630904908762746,0.3221572275444622,0,70,255.0,255.0,255.0
351,17.55,2.602507200431958,-0.22024674591385363,-21.733066294211262,-0.023718494648240638,0.16567117409455387,-1.00124610674735,0.005764879779920096,-0.055479933158437765,0.3237080348981984,0,70,255.0,255.0,255.0
352,17.6,2.601328813063366,-0.2120321916606034,-21.78272331833528,-0.023410374813533686,0.1629179053348617,-0.9850219348185965,0.006559913608357771,-0.05465081722924807,0.3252588422519346,0,70,255.0,255.0,255.0
353,17.650000000000002,2.600166825478795,-0.20395426445042625,-21.83156719535366,-0.02306250328740485,0.16020609237162897,-0.9687202225221561,0.007354947436795446,-0.053821701300058374,0.3268096496056707,0,70,255.0,255.0,255.0
354,17.7,2.5990232252628163,-0.19601089149349982,-21.879594048248027,-0.02267488006985416,0.15753573520485598,-0.95234096985803,0.008149981265233064,-0.05299258537086874,0.3283604569594068,0,70,255.0,255.0,255.0
355,17.75,2.5979,-0.1882,-21.9268,-0.02224750516088156,0.15490683383454223,-0.9358841768262159,0.00894501509367085,-0.05216346944167949,0.3299112643131439,0,70,255.0,255.0,255.0
356,17.8,2.5967986647673715,-0.18052063544538355,-21.973179729223347,-0.021808729013297327,0.15225229234393836,-0.9192631813561105,0.008606030809698234,-0.05401819018247445,0.33492855449106346,0,70,255.0,255.0,255.0
357,17.85,2.595718844611767,-0.1729763163662233,-22.01872213706046,-0.021386902079911726,0.1495050148162947,-0.9023913213771091,0.00826704652572562,-0.05587291092326941,0.3399458446689831,0,70,255.0,255.0,255.0
358,17.900000000000002,2.594659692072477,-0.16557167956437122,-22.06341468028591,-0.02098202436072475,0.14666500125161133,-0.8852685968892117,0.007928062241753006,-0.057727631664064374,0.34496313484690266,0,70,255.0,255.0,255.0
359,17.95,2.5936203596887912,-0.1583113618416798,-22.10724481567424,-0.020594095855736436,0.1437322516498884,-0.8678950078924197,0.007589077957780415,-0.0595823524048592,0.3499804250248219,0,70,255.0,255.0,255.0
360,18.0,2.5926,-0.1512,-22.1502,-0.02022311656494673,0.14070676601112553,-0.8502705543867303,0.007250093673807717,-0.06143707314565461,0.3549977152027415,0,70,255.0,255.0,255.0
361,18.05,2.5915981404985566,-0.1442411123046115,-22.19226918889536,-0.019846589298569806,0.13765565652969253,-0.8324851678282262,0.007810996981269028,-0.06060730611166444,0.35641774713741,0,70,255.0,255.0,255.0
362,18.1,2.5906158084895656,-0.13743374287450222,-22.23344733342288,-0.019442016866819817,0.134646035399959,-0.8146287796729889,0.008371900288730338,-0.05977753907767427,0.3578377790720785,0,70,255.0,255.0,255.0
363,18.150000000000002,2.5896544062312974,-0.13077581729208712,-22.27373088350272,-0.01900939926969676,0.131677902621925,-0.7967013899210179,0.008932803596191648,-0.058947772043684094,0.359257811006747,0,70,255.0,255.0,255.0
364,18.2,2.5887153359820196,-0.12426526113978167,-22.31311628905503,-0.018548736507200674,0.12875125819559072,-0.7787029985723148,0.009493706903652917,-0.05811800500969398,0.3606778429414154,0,70,255.0,255.0,255.0
365,18.25,2.5878,-0.1179,-22.3516,-0.018060028579331488,0.12586610212095575,-0.7606336056268771,0.010054610211114229,-0.057288237975702705,0.36209787487608214,0,70,255.0,255.0,255.0
366,18.3,2.5869095732384033,-0.11167891533616975,-22.389177115195217,-0.017556913792422694,0.12296508153729142,-0.7424121473309884,0.010069981265237189,-0.05875258537086869,0.36676045695945403,0,70,255.0,255.0,255.0
367,18.35,2.5860443214299695,-0.10560471213576667,-22.42583732924803,-0.017053030452807753,0.1199908435838688,-0.7239575599309311,0.010085352319360147,-0.06021693276603468,0.37142303904282586,0,70,255.0,255.0,255.0
368,18.400000000000002,2.5852042830023345,-0.09968105126727866,-22.461568985703245,-0.016548378560486663,0.11694338826068787,-0.7052698434267053,0.010100723373483106,-0.06168128016120066,0.37608562112619776,0,70,255.0,255.0,255.0
369,18.45,2.5843894963831326,-0.09391159359919407,-22.496360428105632,-0.016042958115459464,0.11382271556774887,-0.6863489978183122,0.010116094427606064,-0.06314562755636655,0.38074820320956926,0,70,255.0,255.0,255.0
370,18.5,2.5836,-0.0883,-22.5302,-0.015536769117726083,0.11062882550505135,-0.6671950231057493,0.01013146548172901,-0.06460997495153253,0.3854107852929385,0,70,255.0,255.0,255.0
371,18.55,2.582835566547831,-0.08284962635070899,-22.563076750323784,-0.015045755531738453,0.10738001732114151,-0.6478502428478056,0.009509077957775879,-0.06534235240485954,0.3883804250248005,0,70,255.0,255.0,255.0
372,18.6,2.5820949057905564,-0.07756260858243015,-22.594982549585005,-0.014585861321948482,0.1040945902645653,-0.6283569806032686,0.00888669043382275,-0.06607472985818655,0.3913500647566626,0,70,255.0,255.0,255.0
373,18.650000000000002,2.581376461759366,-0.07244077763879676,-22.625909973684333,-0.014157086488356167,0.10077254433532275,-0.6087152363721388,0.008264302909869618,-0.06680710731151354,0.39431970448852466,0,70,255.0,255.0,255.0
374,18.7,2.5806786784854507,-0.0674859644634425,-22.655851598522442,-0.013759431030961536,0.09741387953341409,-0.588925010154417,0.007641915385916532,-0.0675394847648405,0.39728934422038653,0,70,255.0,255.0,255.0
375,18.75,2.58,-0.0627,-22.6848,-0.013392894949764532,0.09401859585883886,-0.5689863019501009,0.007019527861963457,-0.06827186221816806,0.40025898395225035,0,70,255.0,255.0,255.0
376,18.8,2.5793393605702737,-0.058084179260993844,-22.71274788350965,-0.013028064080624003,0.09061884917814227,-0.5489068812777598,0.007573706903657434,-0.06771800500969369,0.4029178429413858,0,70,255.0,255.0,255.0
377,18.85,2.578697655407806,-0.053637653534511914,-22.739688472411952,-0.012635524259398777,0.0872467953578694,-0.5286945176559618,0.008127885945351411,-0.06716414780121932,0.4055767019305212,0,70,255.0,255.0,255.0
378,18.900000000000002,2.5780762699602016,-0.049359038177533045,-22.765615119559424,-0.01221527548608885,0.08390243439802024,-0.508349211084707,0.00868206498704539,-0.06661029059274495,0.4082355609196566,0,70,255.0,255.0,255.0
379,18.95,2.577476589675065,-0.045246948547036335,-22.790521177804596,-0.01176731776069426,0.08058576629859504,-0.487870961563997,0.009236244028739328,-0.06605643338427061,0.41089441990879183,0,70,255.0,255.0,255.0
380,19.0,2.5769,-0.0413,-22.8144,-0.011291651083214936,0.0772967910595933,-0.46725976909382877,0.00979042307043336,-0.06550257617579713,0.4135532788979259,0,70,255.0,255.0,255.0
381,19.05,2.5763477911710764,-0.03751765660531527,-22.837244515637607,-0.010793988145764157,0.07398458596628917,-0.4464902320411415,0.01011609442759754,-0.06698562755636668,0.4172282032095504,0,70,255.0,255.0,255.0
382,19.1,2.575820872578222,-0.03390277727952146,-22.859045960767187,-0.010280041640455168,0.07059822830395654,-0.4255369487728731,0.010441765784761721,-0.06846867893693621,0.4209031275211748,0,70,255.0,255.0,255.0
383,19.150000000000002,2.5753200583998286,-0.03045906965106999,-22.879795148077967,-0.00974981156728797,0.06713771807259544,-0.4043999192890235,0.010767437141925901,-0.06995173031750576,0.4245780518327993,0,70,255.0,255.0,255.0
384,19.200000000000003,2.57484616281429,-0.027190241348412292,-22.899482890259165,-0.009203297926262562,0.06360305527220587,-0.3830791435895926,0.01109310849909008,-0.07143478169807531,0.4282529761444237,0,70,255.0,255.0,255.0
385,19.25,2.5744,-0.0241,-22.9181,-0.008640500717378987,0.05999423990278806,-0.36157462167458204,0.011418779856254252,-0.07291783307864486,0.4319279004560488,0,70,255.0,255.0,255.0
386,19.3,2.573982274745422,-0.02119159431774478,-22.935638053939922,-0.008067983336324505,0.05633880695670087,-0.3399321905576712,0.011481915385924643,-0.07329948476484063,0.4337693442203711,0,70,255.0,255.0,255.0
387,19.35,2.5735932542793085,-0.018466437347401665,-22.952091684519296,-0.0074923091787865055,0.05266429142630389,-0.3181976872525443,0.011545050915595037,-0.07368113645103641,0.43561078798469344,0,70,255.0,255.0,255.0
388,19.400000000000002,2.5732330964404846,-0.015925483218186143,-22.96745628812871,-0.006913478244764987,0.04897069331159712,-0.2963711117592013,0.011608186445265428,-0.07406278813723219,0.43745223174901576,0,70,255.0,255.0,255.0
389,19.450000000000003,2.572901959067774,-0.01356968605931371,-22.98172726115875,-0.0063314905342599466,0.04525801261258056,-0.2744524640776421,0.01167132197493582,-0.07444443982342797,0.43929367551333803,0,70,255.0,255.0,255.0
390,19.5,2.5726,-0.0114,-22.9949,-0.005746346047271429,0.041526249329254486,-0.2524417442078684,0.011734457504606222,-0.07482609150962405,0.44113511927765936,0,70,255.0,255.0,255.0
391,19.55,2.5723271098472353,-0.009417566123705381,-23.006966468602702,-0.0051740785089376806,0.03776418620690705,-0.23013300572820578,0.011156244028743403,-0.07565643338427117,0.45121441990883315,0,70,255.0,255.0,255.0
392,19.6,2.572082110304543,-0.007624273330871447,-23.017904901155628,-0.004630721644397073,0.033960605990827265,-0.20732030221698444,0.010578030552880585,-0.07648677525891827,0.46129372054000695,0,70,255.0,255.0,255.0
393,19.650000000000002,2.5718635558382323,-0.006022197476184814,-23.027690099407206,-0.0041162754536496066,0.030115508681015115,-0.18400363367420444,0.009999817077017767,-0.07731711713356539,0.4713730211711807,0,70,255.0,255.0,255.0
394,19.700000000000003,2.5716700009146147,-0.0046134144143321,-23.036296865105857,-0.003630739936695282,0.026228894277470615,-0.16018300009986572,0.00942160360115495,-0.0781474590082125,0.4814523218023545,0,70,255.0,255.0,255.0
395,19.75,2.5715,-0.0034,-23.0437,-0.0031741150935341296,0.022300762780194036,-0.13585840149397005,0.008843390125292176,-0.07897780088285966,0.4915316224335282,0,70,255.0,255.0,255.0
396,19.8,2.571352485865636,-0.0023821411874335326,-23.04988887164928,-0.0027237026279246686,0.01844444821567061,-0.11190378652951972,0.009173108499086018,-0.07527478169807518,0.4666529761444709,0,70,255.0,255.0,255.0
397,19.85,2.5712279045025186,-0.0015524693291122588,-23.054911110858193,-0.0022568042436255146,0.014773284610386411,-0.0891931038795223,0.00950282687287986,-0.07157176251329071,0.44177432985541354,0,70,255.0,255.0,255.0
398,19.900000000000002,2.5711270802065846,-0.0009017268770742167,-23.05882891424247,-0.0017734199406366689,0.011287271964341436,-0.06772635354397774,0.0098325452466737,-0.06786874332850623,0.4168956835663562,0,70,255.0,255.0,255.0
399,19.950000000000003,2.571050837273767,-0.0004206562833574454,-23.061704478417834,-0.0012735497189581308,0.007986410277535692,-0.04750353552288609,0.010162263620467543,-0.06416572414372176,0.39201703727729886,0,70,255.0,255.0,255.0
400,20.0,2.571,-0.0001,-23.0636,-0.0007571935785899377,0.004870699549969385,-0.02852464981624861,0.010491981994261358,-0.060462704958937505,0.3671383909882433,0,70,255.0,255.0,255.0
401,20.05,2.570974146690222,7.413087343959453e-05,-23.06460524480019,-0.000299110979359992,0.0022180209304102135,-0.012443848153709618,0.007831321974936207,-0.04564443982342784,0.27609367551330727,0,70,255.0,255.0,255.0
402,20.1,2.570967871685381,0.00013415064732061628,-23.0649202554116,2.593861890369417e-05,0.0003062555676265361,-0.0009152822649174924,0.005170661955611054,-0.030826174687918175,0.18504896003837124,0,70,255.0,255.0,255.0
403,20.150000000000002,2.5709745233354298,0.0001171049844818403,-23.064772643622913,0.00021795521620112063,-0.0008645965383816466,0.006061047850127774,0.0025100019362859025,-0.016007909552408515,0.0940042445634352,0,70,255.0,255.0,255.0
404,20.200000000000003,2.5709874499903185,6.003954776204201e-05,-23.06439002122282,0.000276938812532288,-0.0012945353876143376,0.00848514219142616,-0.00015065808303925052,-0.0011896444168988454,0.0029595290884991687,0,70,255.0,255.0,255.0
405,20.25,2.571,0.0,-23.064,0.00020288940789720558,-0.0009835609800715823,0.006357000758977997,-0.002811318102364212,0.013628620718609765,-0.08808518638643044,0,70,255.0,255.0,255.0
406,20.3,2.571006927373477,-3.358230632482646e-05,-23.063782949149953,8.014654536679202e-05,-0.0003885319373116434,0.002511179144375525,-0.0020983963988522618,0.010172540991787452,-0.06574767819766625,0,70,255.0,255.0,255.0
407,20.35,2.5710086087559563,-4.173326017018357e-05,-23.063730267495405,-6.950231988023524e-06,3.369311910717741e-05,-0.00021776706078872107,-0.0013854746953403112,0.006716461264965139,-0.043410170008902044,0,70,255.0,255.0,255.0
408,20.400000000000002,2.5710068264516974,-3.309306085312733e-05,-23.063786111265877,-5.840092416724109e-05,0.0002831141891848798,-0.0018298378565147402,-0.0006725529918283606,0.003260381538142827,-0.021072661820137853,0,70,255.0,255.0,255.0
409,20.450000000000003,2.571003362764959,-1.630190769071383e-05,-23.0638946366909,-7.420553117086054e-05,0.0003597312729214648,-0.0023250332428025357,4.036871168358949e-05,-0.00019569818867948632,0.0012648463686263517,0,70,255.0,255.0,255.0
410,20.5,2.571,0.0,-23.064,-5.436405299888471e-05,0.00026354437031694404,-0.0017033532196521883,0.0007532904151954892,-0.003651777915501554,0.023602354557388957,0,70,255.0,255.0,255.0
411,20.55,2.5709981438158716,8.998351859711834e-06,-23.064058158599988,-2.1475202107176024e-05,0.00010410681883635443,-0.0006728684237852997,0.0005622636204728396,-0.00272572414372194,0.017617037277286002,0,70,255.0,255.0,255.0
412,20.6,2.570997693290794,1.1182393360118625e-05,-23.064072274606776,1.862309048400044e-06,-9.028044055253825e-06,5.8350508076436916e-05,0.00037123682575018995,-0.0017996703719423259,0.011631719997183047,0,70,255.0,255.0,255.0
413,20.650000000000002,2.5709981708577807,8.867258930669472e-06,-23.06405731131358,1.5648480467843493e-05,-7.586021835788068e-05,0.0004903035759330212,0.00018021003102754033,-0.0008736166001627119,0.0056464027170800915,0,70,255.0,255.0,255.0
414,20.700000000000003,2.5709990989498452,4.3680830008134836e-06,-23.064028232013584,1.988331215115433e-05,-9.638970407152623e-05,0.0006229907797844539,-1.0816763695109294e-05,5.243717161690234e-05,-0.00033891456302286363,0,70,255.0,255.0,255.0
415,20.75,2.571,0.0,-23.064,1.4566804098333266e-05,-7.061650119619384e-05,0.0004564121196307568,-0.00020184355841774545,0.0009784909433964506,-0.006324231843125399,0,70,255.0,255.0,255.0
416,20.8,2.5710004973630385,-2.411101114020874e-06,-23.0639844164501,5.754263061912077e-06,-2.7895338033774295e-05,0.0001802945507656737,-0.00015065808303909713,0.0007303555831003072,-0.004720470911477769,0,70,255.0,255.0,255.0
417,20.85,2.571000618080869,-2.996313270290927e-06,-23.06398063407748,-4.990042055766597e-07,2.4190571138379087e-06,-1.563497151702684e-05,-9.947260766044881e-05,0.0004822202228041638,-0.0031167099798301403,0,70,255.0,255.0,255.0
418,20.900000000000002,2.571000490117181,-2.3759748695505375e-06,-23.06398464347981,-4.192997704132943e-06,2.0326684246642766e-05,-0.00013137644721734475,-4.82871322818005e-05,0.00023408486250802037,-0.0015129490481825113,0,70,255.0,255.0,255.0
419,20.950000000000003,2.5710002414356614,-1.1704243125400792e-06,-23.063992435254757,-5.327717433756776e-06,2.5827543364640278e-05,-0.00016692987633528007,2.8983430968478193e-06,-1.4050497788123048e-05,9.081188346511844e-05,0,70,255.0,255.0,255.0
420,21.0,2.571,0.0,-23.064,-3.903163394448352e-06,1.8921634467831355e-05,-0.0001222952588708388,5.40838184754925e-05,-0.00026218585808424907,0.0016945728151126337,0,70,255.0,255.0,255.0
421,21.05,2.5709998667319756,6.460525963716614e-07,-23.06400417559961,-1.5418501404722831e-06,7.4745332987427366e-06,-4.830977927739507e-05,4.0368711683548896e-05,-0.0001956981886792892,0.0012648463686250736,0,70,255.0,255.0,255.0
422,21.1,2.5709998343857308,8.028597210450857e-07,-23.0640051890833,1.3370777390659526e-07,-6.481844000978418e-07,4.18937799167035e-06,2.665360489160529e-05,-0.0001292105192743293,0.0008351199221375134,0,70,255.0,255.0,255.0
423,21.150000000000002,2.570999868673497,6.366405475326777e-07,-23.064004114767183,1.123510348688283e-06,-5.446518628690375e-06,3.520221293635748e-05,1.2938498099661686e-05,-6.272284986936943e-05,0.00040539347564995344,0,70,255.0,255.0,255.0
424,21.200000000000003,2.5709999353075093,3.1361424934684196e-07,-23.064002026967376,1.4275575838727824e-06,-6.920469387034871e-06,4.4728725556666244e-05,-7.766086922819155e-07,3.7648195355904457e-06,-2.4332970837606877e-05,0,70,255.0,255.0,255.0
425,21.25,2.571,0.0,-23.064,1.0458494794601414e-06,-5.070036675131576e-06,3.2768915852598365e-05,-1.4491715484224551e-05,7.025248894054561e-05,-0.0004540594173251366,0,70,255.0,255.0,255.0
426,21.3,2.5710000357090594,-1.7310927146577148e-07,-23.06399888115146,4.1313749997705747e-07,-2.0027951611966538e-06,1.2944566343906539e-05,-1.0816763695098447e-05,5.2437171616849556e-05,-0.00033891456302252514,0,70,255.0,255.0,255.0
427,21.35,2.57100004437621,-2.1512561388941532e-07,-23.06399860958932,-3.582689004971852e-08,1.736804865534533e-07,-1.1225404496546306e-06,-7.1418119059723416e-06,3.46218542931535e-05,-0.0002237697087199137,0,70,255.0,255.0,255.0
428,21.400000000000002,2.5710000351888302,-1.7058732058017306e-07,-23.063998897451455,-3.0104369062018666e-07,1.4593902681187454e-06,-9.432404528085146e-06,-3.4668601168462363e-06,1.680653696945744e-05,-0.00010862485441730225,0,70,255.0,255.0,255.0
429,21.450000000000003,2.571000017334301,-8.403268484728583e-08,-23.063999456875727,-3.825129017343469e-07,1.854334183499222e-06,-1.1985025891385005e-05,2.080916722798682e-07,-1.0087803542386126e-06,6.51999988530923e-06,0,70,255.0,255.0,255.0
430,21.5,2.571,0.0,-23.064,-2.8023452339221375e-07,1.358512232694951e-06,-8.780404539554655e-06,3.883043461405712e-06,-1.8824097677933397e-05,0.00012166485418791236,0,70,255.0,255.0,255.0
431,21.55,2.570999990431787,4.6384489491424634e-08,-23.064000299794564,-1.1069985943594612e-07,5.36647346043878e-07,-3.4684860982310995e-06,2.898343096844897e-06,-1.4050497788109057e-05,9.081188346502685e-05,0,70,255.0,255.0,255.0
432,21.6,2.5709999881094308,5.764273451257562e-08,-23.064000372559416,9.599786292280072e-09,-4.653754611597473e-08,3.007838069481586e-07,1.9136427322840823e-06,-9.276897898284716e-06,5.995891274214133e-05,0,70,255.0,255.0,255.0
433,21.650000000000002,2.5709999905711816,4.570873478801415e-08,-23.06400029542699,8.066441379246476e-08,-3.910424437846067e-07,2.5274051759831185e-06,9.289423677232672e-07,-4.503298008460376e-06,2.9105942019255827e-05,0,70,255.0,255.0,255.0
434,21.700000000000003,2.570999995355288,2.2516490042301426e-08,-23.06400014552971,1.0249402306460807e-07,-4.968673469620191e-07,3.2113780088737807e-06,-5.575799683754708e-08,2.7030188136396426e-07,-1.747028703629692e-06,0,70,255.0,255.0,255.0
435,21.75,2.571,0.0,-23.064,7.508861410871356e-08,-3.640122556482276e-07,2.352702305620265e-06,-1.0404583613982928e-06,5.0439017711879675e-06,-3.2599999426513e-05,0,70,255.0,255.0,255.0
436,21.8,2.571000002563795,-1.242868649992706e-08,-23.06399991967029,2.9661937766727138e-08,-1.4379422297885876e-07,9.293780490178609e-07,-7.766086922811384e-07,3.7648195355866616e-06,-2.4332970837582357e-05,0,70,255.0,255.0,255.0
437,21.85,2.5710000031860685,-1.54453241608872e-08,-23.063999900173002,-2.5722551194013873e-09,1.2469697910443916e-08,-8.05947781380051e-08,-5.127590231639841e-07,2.4857372999853556e-06,-1.6065942248651712e-05,0,70,255.0,255.0,255.0
438,21.900000000000002,2.5710000025264446,-1.2247618571883768e-08,-23.063999920840576,-2.1613964549672005e-08,1.0477950701968031e-07,-6.772161758473334e-07,-2.489093540468298e-07,1.2066550643840501e-06,-7.798913659721067e-06,0,70,255.0,255.0,255.0
439,21.950000000000003,2.571000001244547,-6.033275321920129e-09,-23.063999961005436,-2.746319052408471e-08,1.3313520434885058e-07,-8.604861441101225e-07,1.494031507032457e-08,-7.242717121725625e-08,4.6811492920957804e-07,0,70,255.0,255.0,255.0
440,22.0,2.571,0.0,-23.064,-2.0119933042640528e-08,9.753678989795932e-08,-6.304046829264053e-07,2.7878998418746006e-07,-1.3515094068184711e-06,8.735143518139635e-06,0,70,255.0,255.0,255.0
441,22.05,2.5709999993130332,3.330256508283603e-09,-23.064000021524283,-7.947891630962416e-09,3.852954587155699e-08,-2.490260978403448e-07,2.0809167227965755e-07,-1.0087803542375882e-06,6.519999885302568e-06,0,70,255.0,255.0,255.0
442,22.1,2.570999999146296,4.138562130973164e-09,-23.06400002674856,6.892341853255229e-10,-3.3412455258009417e-09,2.1595305603860797e-08,1.3739336037185506e-07,-6.660513016567054e-07,4.3048562524655015e-06,0,70,255.0,255.0,255.0
443,22.150000000000002,2.5709999993230412,3.2817394995209157e-09,-23.064000021210703,5.791444406223288e-09,-2.807558429411449e-08,1.814595274062114e-07,6.669504846405255e-08,-3.2332224907582244e-07,2.0897126196284347e-06,0,70,255.0,255.0,255.0
444,22.200000000000003,2.570999999666525,1.616611245379086e-09,-23.064000010448567,7.3587390317308694e-09,-3.567347043338363e-08,2.305665675667071e-07,-4.003263443749934e-09,1.940680350506032e-08,-1.254310132086321e-07,0,70,255.0,255.0,255.0
445,22.25,2.571,0.0,-23.064,5.391118061848548e-09,-2.613490394360973e-08,1.6891642608535626e-07,-7.470157535154744e-08,3.6213585608591883e-07,-2.3405746460455422e-06,0,70,255.0,255.0,255.0
446,22.3,2.5710000001840725,-8.923395332073555e-10,-23.063999994232585,2.129628757122522e-09,-1.032396050736921e-08,6.67263423435183e-08,-5.575799683749174e-08,2.703018813636929e-07,-1.7470287036279187e-06,0,70,255.0,255.0,255.0
447,22.35,2.571000000228749,-1.1089243630054593e-09,-23.063999992832745,-1.8468162190070513e-10,8.952841927599465e-10,-5.7864442774380704e-09,-3.681441832343603e-08,1.7846790664146698e-07,-1.153482761210295e-06,0,70,255.0,255.0,255.0
448,22.400000000000002,2.5710000001813906,-8.793394261998834e-10,-23.063999994316607,-1.5518130752211335e-09,7.522830156777738e-09,-4.8621933777512816e-08,-1.7870839809380328e-08,8.663393191924107e-08,-5.599368187926713e-07,0,70,255.0,255.0,255.0
449,22.450000000000003,2.5710000000893545,-4.3316965959619793e-10,-23.06399999720032,-1.9717656028387622e-09,9.558677384684175e-09,-6.178012615670599e-08,1.0727387046753772e-09,-5.200042802984865e-09,3.360912362495207e-08,0,70,255.0,255.0,255.0
450,22.5,2.571,0.0,-23.064,-1.4445392047536655e-09,7.002825876479603e-09,-4.526102141501977e-08,2.001631721872974e-08,-9.70340175252042e-08,6.271550660425339e-07,0,70,255.0,255.0,255.0
451,22.55,2.5709999999506783,2.3910162454581873e-10,-23.06400000154537,-5.706233975276741e-10,2.7662961579198522e-09,-1.7879271533728375e-08,1.4940315070309417e-08,-7.242717121718343e-08,4.6811492920910624e-07,0,70,255.0,255.0,255.0
452,22.6,2.5709999999387083,2.971353210486737e-10,-23.06400000192046,4.949230227729772e-11,-2.3989124523884194e-10,1.5504715058915215e-09,9.864312921889099e-09,-4.782032490916265e-08,3.090747923756785e-07,0,70,255.0,255.0,255.0
453,22.650000000000002,2.5709999999513977,2.356182052786187e-10,-23.06400000152286,4.1580789466124955e-10,-2.0157363329964803e-09,1.3028207703839909e-08,4.78831077346878e-09,-2.3213478601141874e-08,1.5003465554225088e-07,0,70,255.0,255.0,255.0
454,22.700000000000003,2.5709999999760584,1.1606739300570722e-10,-23.064000000750173,5.283233796241823e-10,-2.561239105353062e-09,1.6553937060116814e-08,-2.876913749515416e-10,1.3933677068788913e-09,-9.005481291176911e-09,0,70,255.0,255.0,255.0
455,22.75,2.571,0.0,-23.064,3.8703875716611386e-10,-1.8763995623086817e-09,1.2127659574722805e-08,-5.3636935233715e-09,2.600021401489791e-08,-1.6804561812459319e-07,0,70,255.0,255.0,255.0
456,22.8,2.5710000000132145,-6.406696497591934e-11,-23.063999999585917,1.5286483298817485e-10,-7.412241243101993e-10,4.790743791395218e-09,-4.003263443745927e-09,1.940680350504074e-08,-1.2543101320850613e-07,0,70,255.0,255.0,255.0
457,22.85,2.57100000001642,-7.961692118923546e-11,-23.063999999485414,-1.3287587208484563e-11,6.428078819542e-11,-4.1544174612798586e-10,-2.6428333641203543e-09,1.2813392995183574e-08,-8.281640829241908e-08,0,70,255.0,255.0,255.0
458,22.900000000000002,2.571000000013019,-6.313339491459166e-11,-23.06399999959195,-1.1141850342386429e-10,5.401151752081764e-10,-3.4908970378468067e-09,-1.2824032844947813e-09,6.219982485326406e-09,-4.020180337633203e-08,0,70,255.0,255.0,255.0
459,22.950000000000003,2.5710000000064124,-3.1099912426631534e-11,-23.06399999979899,-1.4152791565796453e-10,6.862790367280694e-10,-4.435622083761245e-09,7.802679513079161e-11,-3.734280245307626e-10,2.4128015397550193e-09,0,70,255.0,255.0,255.0
460,23.0,2.571,0.0,-23.064,-1.0361582391079017e-10,5.027723727551245e-10,-3.2496168838714616e-09,1.4384568747562682e-09,-6.966838534387462e-09,4.502740645583905e-08,0,70,255.0,255.0,255.0
461,23.05,2.5709999999964652,1.7166235357858656e-11,-23.06400000011095,-4.08359344250252e-11,1.9860033932094472e-10,-1.2837036318524952e-09,1.0727387046742948e-09,-5.200042802979557e-09,3.360912362491848e-08,0,70,255.0,255.0,255.0
462,23.1,2.570999999995612,2.1332363708268045e-11,-23.064000000137888,3.658046556640834e-12,-1.7231907542838593e-11,1.1129547862043411e-10,7.070205345923216e-10,-3.4332470715716526e-09,2.2190840793997904e-08,0,70,255.0,255.0,255.0
463,23.150000000000002,2.570999999996526,1.6915374379748066e-11,-23.064000000109342,2.986611903420795e-11,-1.4472436783622535e-10,9.353804475473262e-10,3.413023645103483e-10,-1.6664513401637486e-09,1.0772557963077329e-08,0,70,255.0,255.0,255.0
464,23.200000000000003,2.5709999999982935,8.332256700818578e-12,-23.064000000053863,3.7788283007676136e-11,-1.8387704155921574e-10,1.188551274928182e-09,-2.4415805571625056e-11,1.0034439124415657e-10,-6.457248678432458e-10,0,70,255.0,255.0,255.0
465,23.25,2.571,0.0,-23.064,2.7424538477046808e-11,-1.3468992871181628e-10,8.70807960763042e-10,-3.9013397565357236e-10,1.867140122651936e-09,-1.2064007698763023e-08,0,70,255.0,255.0,255.0
466,23.3,2.5710000000009265,-4.597976455515282e-12,-23.063999999970264,1.0478904711925954e-11,-5.317723297357957e-11,3.440707360147647e-10,-2.8769137495125217e-10,1.3933677068774859e-09,-9.005481291167767e-09,0,70,255.0,255.0,255.0
467,23.35,2.571000000001133,-5.7125336438367526e-12,-23.063999999963045,-1.3445990180788166e-12,4.646841975934283e-12,-2.974016835374765e-11,-1.8524877424893192e-10,9.195952911030355e-10,-5.946954883572512e-09,0,70,255.0,255.0,255.0
468,23.400000000000002,2.5710000000008773,-4.5281026044005665e-12,-23.06399999997069,-8.045972712967493e-12,3.8782296136725254e-11,-2.5062475234249513e-10,-8.280617354661168e-11,4.458228753285852e-10,-2.8884284759772573e-09,0,70,255.0,255.0,255.0
469,23.450000000000003,2.571000000000414,-2.2291143766428874e-12,-23.06399999998556,-9.625216372740103e-12,4.922912950879342e-11,-3.1858301595147736e-10,1.9636427155708512e-11,-2.794954044586494e-11,1.7009793161799851e-10,0,70,255.0,255.0,255.0
470,23.5,2.571,0.0,-23.064,-6.082329997397065e-12,3.5987342092140554e-11,-2.3361495918070614e-10,1.2207902785802142e-10,-5.017219562202813e-10,3.2286243392130368e-09,0,70,255.0,255.0,255.0
471,23.55,2.5709999999998305,1.2256704642024755e-12,-23.064000000007987,-1.0796844226786124e-12,1.4108592573373577e-11,-9.257931220656341e-11,7.802679513071385e-11,-3.734280245303854e-10,2.4128015397525928e-09,0,70,255.0,255.0,255.0
472,23.6,2.570999999999855,1.5177708670789609e-12,-23.064000000009937,1.720349515674431e-12,-1.3554603608985139e-12,7.665194794556534e-12,3.3974562403406275e-11,-2.4513409284048945e-10,1.5969787402921486e-09,0,70,255.0,255.0,255.0
473,23.650000000000002,2.570999999999966,1.1970360378542048e-12,-23.064000000007898,2.3177718176620634e-12,-1.0404816710675722e-11,6.711856182265375e-11,-1.0077670323901301e-11,-1.1684016115059357e-10,7.811559408317044e-10,0,70,255.0,255.0,255.0
474,23.700000000000003,2.571000000000051,5.842008057529575e-13,-23.064000000003904,7.125824832842869e-13,-1.3039476475958034e-11,8.578078887772807e-11,-5.4129903051208865e-11,1.1453770539302361e-11,-3.46668586287396e-11,0,70,255.0,255.0,255.0
475,23.75,2.571,0.0,-23.064,-3.095218487458548e-12,-9.259439656745952e-12,6.365187595978272e-11,-9.818213577851326e-11,1.3974770222918914e-10,-8.504896580891259e-10,0,70,255.0,255.0,255.0
476,23.8,2.5709999999997537,-3.047054012946189e-13,-23.063999999997794,-6.160167021211505e-12,-3.257137319914746e-12,2.6246512811488925e-11,-2.4415805571603226e-11,1.0034439124405568e-10,-6.457248678426045e-10,0,70,255.0,255.0,255.0
477,23.85,2.570999999999446,-3.585498244790914e-13,-23.063999999997204,-5.536799044618906e-12,7.749994676597583e-13,-9.206108244786514e-13,4.935052463530681e-11,6.09410802589222e-11,-4.4096007759608306e-10,0,70,255.0,255.0,255.0
478,23.900000000000002,2.5709999999992617,-2.6004154701625407e-13,-23.06399999999772,-1.2251145576807509e-12,2.8369707059775587e-12,-1.784949494812001e-11,1.2311685484221683e-10,2.1537769273788726e-11,-2.361952873495617e-10,0,70,255.0,255.0,255.0
479,23.950000000000003,2.5709999999993847,-1.0768884636894354e-13,-23.06399999999882,6.774886439602955e-12,2.9287763950386623e-12,-2.4540139559435156e-11,1.968831850491269e-10,-1.7865541711344737e-11,-3.143049710304022e-11,0,70,255.0,255.0,255.0
480,24.0,2.571,0.0,-23.064,1.8463203947231255e-11,1.050416534843263e-12,-2.0992544658424696e-11,2.7064951525603163e-10,-5.7268852696475416e-11,1.733342931434666e-10,0,70,255.0,255.0,255.0
481,24.05,2.571000000001157,-6.848859023999562e-15,-23.06400000000083,2.572035250752463e-11,-1.080043293714588e-12,-1.240673903939228e-11,1.963642715569905e-11,-2.7949540445837416e-11,1.7009793161782514e-10,0,70,255.0,255.0,255.0
482,24.1,2.571000000002363,-8.357156916259463e-14,-23.064000000001244,2.0426846662801187e-11,-1.7445375097405181e-12,-3.98275149664194e-12,-2.3137666094463353e-10,1.369771804800583e-12,1.6686157009218366e-10,0,70,255.0,255.0,255.0
483,24.150000000000002,2.5710000000029902,-1.5686984978918818e-13,-23.064000000001233,2.5826864130609417e-12,-9.430661132345268e-13,4.279417969826323e-12,-4.823897490449661e-10,3.0689084055438595e-11,1.636252085665422e-10,0,70,255.0,255.0,255.0
484,24.200000000000003,2.571000000002412,-1.53445420277183e-13,-23.064000000000817,-2.7812128241696106e-11,1.3243708958033844e-12,1.2379769360012515e-11,-7.334028371452987e-10,6.000839630607659e-11,1.6038884704090074e-10,0,70,255.0,255.0,255.0
485,24.25,2.571,0.0,-23.064,-7.075759730146646e-11,5.057773517372901e-12,2.0318302673916068e-11,-9.844159252456132e-10,8.932770855671252e-11,1.5715248551525952e-10,0,70,255.0,255.0,255.0
486,24.3,2.5709999999956192,3.321008373906171e-13,-23.063999999998867,-9.672124300888697e-11,7.577310494773099e-12,2.3380443346080198e-11,-5.412990305119297e-11,1.1453770539293986e-11,-3.4666858628696043e-11,0,70,255.0,255.0,255.0
487,24.35,2.5709999999911033,6.9283610112947e-13,-23.063999999997822,-7.617058760658584e-11,6.203150571302316e-12,1.685161681104641e-11,8.761561191432273e-10,-6.642016747812455e-11,-2.264862027726516e-10,0,70,255.0,255.0,255.0
488,24.400000000000002,2.5709999999887776,8.875209461730069e-13,-23.06399999999734,-9.105631094563003e-12,9.352937469605486e-13,7.318230688147119e-13,1.8064421413376473e-09,-1.442941054955431e-10,-4.1830554691660714e-10,0,70,255.0,255.0,255.0
489,24.450000000000003,2.5709999999909683,7.214705274776758e-13,-23.063999999997908,1.044736265271815e-10,-8.2262599782522e-12,-2.4978937880614898e-11,2.736728163532068e-09,-2.2216804351296161e-10,-6.101248910605627e-10,0,70,255.0,255.0,255.0
490,24.5,2.571,0.0,-23.064,2.645671852586346e-10,-2.1281510604334865e-11,-6.028066603723958e-11,3.6670141857264214e-09,-3.0004198153037457e-10,-8.019442352045047e-10,0,70,255.0,255.0,255.0
491,24.55,2.5710000000163666,-1.321554490538469e-12,-23.064000000003695,3.611646195280233e-10,-2.9229198685377804e-11,-8.111503434492851e-11,1.9688318504907318e-10,-1.7865541711338404e-11,-3.1430497103041046e-11,0,70,255.0,255.0,255.0
492,24.6,2.5710000000332247,-2.687772835355285e-12,-23.06400000000747,2.8425550376354215e-10,-2.3068064775468733e-11,-6.342371574754373e-11,-3.273247815628275e-09,2.6431089810769776e-10,7.390832409984226e-10,0,70,255.0,255.0,255.0
493,24.650000000000002,2.5710000000419004,-3.3932139349028388e-12,-23.064000000009393,3.3839837965191186e-11,-2.7981088746076456e-12,-7.206710245085183e-12,-6.743378816305624e-09,5.464873379267338e-10,1.5095969790998863e-09,0,70,255.0,255.0,255.0
494,24.700000000000003,2.571000000033717,-2.7324366896335182e-12,-23.06400000000755,-3.900823778670298e-10,3.1580669017205435e-11,8.753598216244704e-11,-1.0213509816982971e-08,8.286637777457701e-10,2.28011071720135e-09,0,70,255.0,255.0,255.0
495,24.75,2.571,0.0,-23.064,-9.875111437330718e-10,8.006826889996656e-11,2.2080436147504223e-10,-1.3683640817660073e-08,1.110840217564786e-09,3.0506244553027593e-09,0,70,255.0,255.0,255.0
496,24.8,2.570999999938916,4.954117124763259e-12,-23.06399999998635,-1.3479372351032063e-09,1.0933948424673813e-10,3.0107969403363384e-10,-7.334028371450997e-10,6.000839630606015e-11,1.6038884704085994e-10,0,70,255.0,255.0,255.0
497,24.85,2.570999999875998,1.0058255240291672e-11,-23.063999999972303,-1.0608514274475827e-09,8.606910853057263e-11,2.3684324617912845e-10,1.2216835143369873e-08,-9.908234249526658e-10,-2.7298467612210394e-09,0,70,255.0,255.0,255.0
498,24.900000000000002,2.5709999998436226,1.268533479343835e-11,-23.063999999965073,-1.2625372076620135e-10,1.0257141751470111e-11,2.8095017911525994e-11,2.516707312388485e-08,-2.041655246211392e-09,-5.620082369482938e-09,0,70,255.0,255.0,255.0
499,24.950000000000003,2.5709999998741653,1.0208276231056399e-11,-23.0639999999719,1.4558558849409382e-09,-1.180964160905695e-10,-3.2516499076917337e-10,3.811731110439982e-08,-3.0924870674701176e-09,-8.510317977744838e-09,0,70,255.0,255.0,255.0
500,25.0,2.571,0.0,-23.064,3.6854773896736526e-09,-2.989915649955314e-10,-8.229367798629293e-10,5.106754908491387e-08,-4.143318888728768e-09,-1.140055358600653e-08,0,70,255.0,255.0,255.0
501,25.05,2.5710000002279707,-1.8494914008514566e-11,-23.0640000000509,5.030584320884802e-09,-4.0812873830157464e-10,-1.1232037417896068e-09,2.73672816353133e-09,-2.2216804351290064e-10,-6.10124891060398e-10,0,70,255.0,255.0,255.0
502,25.1,2.571000000462783,-3.75452481258114e-11,-23.06400000010333,3.95915020602679e-09,-3.212083693468217e-10,-8.839492689689699e-10,-4.559409275785121e-08,3.6989828017029664e-09,1.0180303803885734e-08,0,70,255.0,255.0,255.0
503,25.150000000000002,2.57100000058361,-4.734812523885055e-11,-23.064000000130303,4.711750450996134e-10,-3.82304581312725e-11,-1.0517336140101859e-10,-9.392491367923377e-08,7.620133646918833e-09,2.0970732498831864e-08,0,70,255.0,255.0,255.0
504,25.200000000000003,2.5710000004696245,-3.8100668234592054e-11,-23.06400000010485,-5.43334116189672e-09,4.4080499534507244e-10,1.2131239809142467e-09,-1.4225573460061628e-07,1.15412844921347e-08,3.1761161193777995e-08,0,70,255.0,255.0,255.0
505,25.25,2.571,0.0,-23.064,-1.3754398414961538e-08,1.1158979910821588e-09,3.070942757976675e-09,-1.9058655552199534e-07,1.5462435337350293e-08,4.2551589888723354e-08,0,70,255.0,255.0,255.0
506,25.3,2.5709999991492025,6.9025538909295e-11,-23.06399999981004,-1.8774400048436e-08,1.5231754689595604e-09,4.191735273124792e-09,-1.0213509816980172e-08,8.286637777455467e-10,2.2801107172007296e-09,0,70,255.0,255.0,255.0
507,25.35,2.570999998272871,1.4012273726295392e-10,-23.06399999961439,-1.4775749396659569e-08,1.1987643688567143e-09,3.2989538296967514e-09,1.70159535888035e-07,-1.38051077818592e-08,-3.7991368454321895e-08,0,70,255.0,255.0,255.0
508,25.400000000000002,2.5709999978219384,1.7670716616196386e-10,-23.063999999513705,-1.758446459632256e-09,1.4266469077362068e-10,3.9259842769254774e-10,3.505325815930501e-07,-2.8438879341463947e-08,-7.826284762584451e-08,0,70,255.0,255.0,255.0
509,25.450000000000003,2.5709999982473377,1.4219439670731189e-10,-23.063999999608686,2.027750876264594e-08,-1.6451235652897203e-09,-4.527330932887812e-09,5.309056272980653e-07,-4.307265090106869e-08,-1.1853432679736714e-07,0,70,255.0,255.0,255.0
510,25.5,2.571,0.0,-23.064,5.13321162701725e-08,-4.164600399333104e-09,-1.146083425204377e-08,7.112786730030675e-07,-5.7706422460672384e-08,-1.588058059688869e-07,0,70,255.0,255.0,255.0
511,25.55,2.57100000317522,-2.5760724162866544e-10,-23.064000000708926,7.006701587285918e-08,-5.6845731375366676e-09,-1.5643737350709565e-08,3.811731110438941e-08,-3.092487067469283e-09,-8.510317977742519e-09,0,70,255.0,255.0,255.0
512,25.6,2.571000006445734,-5.229457009260043e-10,-23.064000001439126,5.514384738061151e-08,-4.4738491060800355e-09,-1.231186604981803e-08,-6.350440507942887e-07,5.152144832573382e-08,1.4178517001340186e-07,0,70,255.0,255.0,255.0
513,25.650000000000002,2.571000008128637,-6.59480539409005e-10,-23.064000001814865,6.562610793429412e-09,-5.32428304963213e-10,-1.4652203493691724e-09,-1.3082054126929667e-06,1.0613538371893693e-07,2.9208065800454625e-07,0,70,255.0,255.0,255.0
514,25.700000000000003,2.5710000065410274,-5.306769185946553e-10,-23.064000001460403,-7.567669388868703e-08,6.139689265813809e-09,1.6896199750637013e-08,-1.981366774591645e-06,1.6074931911214001e-07,4.4237614599569063e-07,0,70,255.0,255.0,255.0
515,25.75,2.571,0.0,-23.064,-1.9157406666572845e-07,1.5542503606250256e-08,4.2772394250198406e-08,-2.6545281364902747e-06,2.1536325450533924e-07,5.926716339868245e-07,0,70,255.0,255.0,255.0
516,25.8,2.570999988149917,9.614034276053667e-10,-23.06399999735425,-2.614936634430007e-07,2.1215117081187105e-08,5.838321412971348e-08,-1.4225573460057732e-07,1.1541284492131604e-08,3.176116119376947e-08,0,70,255.0,255.0,255.0
517,25.85,2.570999975944194,1.9516600664410632e-09,-23.063999994629103,-2.0579964012578637e-07,1.6696632055463432e-08,4.59485103695754e-08,2.37001666728912e-06,-1.9228068552107603e-07,-5.291493115992855e-07,0,70,255.0,255.0,255.0
518,25.900000000000002,2.570999969663513,2.4612149914740554e-09,-23.063999993226826,-2.449199671408532e-08,1.987048529079224e-09,5.468282969784165e-09,4.882289069178817e-06,-3.961026555342837e-07,-1.0900597843923405e-06,0,70,255.0,255.0,255.0
519,25.950000000000003,2.570999975588555,1.98051327767131e-09,-23.0639999945497,2.8242926679210234e-07,-2.2913633497965503e-08,-6.305746806966021e-08,7.394561471068515e-06,-5.999246255474913e-07,-1.6509702571853956e-06,0,70,255.0,255.0,255.0
520,26.0,2.571,0.0,-23.064,7.149641503927412e-07,-5.800541402566792e-08,-1.5962874274874986e-07,9.906833872958032e-06,-8.037465955606845e-07,-2.21188072997841e-06,0,70,255.0,255.0,255.0
521,26.05,2.571000044225113,-3.5880064687928003e-09,-23.06400000987406,9.759076378991438e-07,-7.917589518721176e-08,-2.1788911916814428e-07,5.309056272979206e-07,-4.307265090105698e-08,-1.18534326797335e-07,0,70,255.0,255.0,255.0
522,26.1,2.57100008977749,-7.283694564838246e-09,-23.064000020044457,7.680547131225338e-07,-6.231267911577368e-08,-1.7148217542848353e-07,-8.845022618362191e-06,7.176012937585706e-07,1.97481207638374e-06,0,70,255.0,255.0,255.0
523,26.150000000000002,2.571000113217311,-9.185379426487218e-09,-23.06400002527782,9.140537606291179e-08,-7.415765811353656e-09,-2.0407911529767494e-08,-1.8220950864022304e-05,1.4782752384181982e-06,4.068158479564815e-06,0,70,255.0,255.0,255.0
524,26.200000000000003,2.571000091104754,-7.391376192090579e-09,-23.064000020340792,-1.0540403732797223e-06,8.551484472604824e-08,2.3533367252800387e-07,-2.7596879109682414e-05,2.2389491830778255e-06,6.16150488274589e-06,0,70,255.0,255.0,255.0
525,26.25,2.571,0.0,-23.064,-2.6682825349052367e-06,2.164791524964214e-07,5.95742576744801e-07,-3.697280735534187e-05,2.9996231277373995e-06,8.254851285926817e-06,0,70,255.0,255.0,255.0
526,26.3,2.570999834949631,1.3390622447565838e-08,-23.063999963149506,-3.642136888153575e-06,2.954884636676599e-07,8.131732625428638e-07,-1.981366774591113e-06,1.6074931911209663e-07,4.423761459955699e-07,0,70,255.0,255.0,255.0
527,26.35,2.570999664945845,2.7183118192911933e-08,-23.06399992519307,-2.866419212364351e-06,2.3255408440763126e-07,6.399801913443586e-07,3.301007380615964e-05,-2.6781244895132063e-06,-7.3700989939356775e-06,0,70,255.0,255.0,255.0
528,26.400000000000002,2.570999577467244,3.4280302714474816e-08,-23.063999905661884,-3.411295075375631e-07,2.7676014716335433e-08,7.616336314928573e-08,6.800151438691039e-05,-5.51699829813851e-06,-1.5182574133866921e-05,0,70,255.0,255.0,255.0
529,26.450000000000003,2.5709996599924283,2.7584991490691043e-08,-23.06399992408713,3.933732226326785e-06,-3.1914574540622754e-07,-8.782772220423553e-07,0.00010299295496766115,-8.355872106763813e-06,-2.2995049273798172e-05,0,70,255.0,255.0,255.0
530,26.5,2.571,0.0,-23.064,9.958165989228207e-06,-8.079111959600177e-07,-2.2233415642304543e-06,0.00013798439554840936,-1.1194745915388909e-05,-3.0807524413728864e-05,0,70,255.0,255.0,255.0
531,26.55,2.571000615976363,-4.997448332147054e-08,-23.06400013752792,1.3592639914715155e-05,-1.102777959483428e-06,-3.034803931003311e-06,7.394561471066503e-06,-5.99924625547328e-07,-1.6509702571849487e-06,0,70,255.0,255.0,255.0
532,26.6,2.57100125043913,-1.0144877820680946e-07,-23.064000279183265,1.0697622136334867e-05,-8.679036585147514e-07,-2.3884385899489517e-06,-0.00012319527260627635,9.994896664294253e-06,2.7505583899358966e-05,0,70,255.0,255.0,255.0
533,26.650000000000002,2.571001576913715,-1.2793583143141202e-07,-23.064000352074647,1.273112654087342e-06,-1.0328829305398831e-07,-2.842455410673752e-07,-0.00025378510668361927,2.0589717954135832e-05,5.6662138055902885e-05,0,70,255.0,255.0,255.0
534,26.700000000000003,2.5710012689255337,-1.0294858977067353e-07,-23.06400028331069,-1.4680888532027416e-05,1.1910681368988616e-06,3.2777752156414163e-06,-0.00038437494076096207,3.118453924397741e-05,8.58186922124468e-05,0,70,255.0,255.0,255.0
535,26.75,2.571,0.0,-23.064,-3.7164381422007584e-05,3.015165631343649e-06,8.297623680177016e-06,-0.0005149647748382957,4.1779360533818235e-05,0.00011497524636898864,0,70,255.0,255.0,255.0
536,26.8,2.570997701144917,1.8650731083831632e-07,-23.06399948673882,-5.0728422770707046e-05,4.115623374266051e-06,1.1326042461470381e-05,-2.7596879109674933e-05,2.2389491830772173e-06,6.161504882744239e-06,0,70,255.0,255.0,255.0
537,26.85,2.5709953332976365,3.786119946343259e-07,-23.063998958073874,-3.992406933297511e-05,3.2390605496513742e-06,8.91377416845145e-06,0.0004597710166189458,-3.73014621676638e-05,-0.00010265223660350016,0,70,255.0,255.0,255.0
538,26.900000000000002,2.570994114877897,4.774630230111733e-07,-23.06399868603952,-4.7513211088118045e-06,3.854771574996173e-07,1.0608188011202185e-06,0.0009471389123475663,-7.684187351840482e-05,-0.00021146597808974454,0,70,255.0,255.0,255.0
539,26.950000000000003,2.5709952643054383,3.8420936759200303e-07,-23.06399894267011,5.478982190178287e-05,-4.4451268021892175e-06,-1.2232823640523312e-05,0.0014345068080761872,-0.00011638228486914583,-0.00032027971957598894,0,70,255.0,255.0,255.0
540,27.0,2.571,0.0,-23.064,0.00013869935969880212,-1.1252751329414579e-05,-3.096715315647761e-05,0.001921874703804773,-0.00015592269621988406,-0.00042909346106222553,0,70,255.0,255.0,255.0
541,27.05,2.571008579443969,-6.960547600317948e-07,-23.064001915516815,0.00018932105116811299,-1.535971553758078e-05,-4.226936591487821e-05,0.00010299295496763328,-8.355872106761546e-06,-2.2995049273791853e-05,0,70,255.0,255.0,255.0
542,27.1,2.5710174163703265,-1.412999200330494e-06,-23.06400388852125,0.00014899865519556562,-1.2088338540090746e-05,-3.326665808385683e-05,-0.0017158887938695064,0.00013921095200636097,0.0003831033625146418,0,70,255.0,255.0,255.0
543,27.150000000000002,2.5710219635746983,-1.781916260613281e-06,-23.06400490376728,1.7732171781159893e-05,-1.43862033694448e-06,-3.95902966341347e-06,-0.0035347705427066466,0.00028677777611948346,0.0007892017743030754,0,70,255.0,255.0,255.0
544,27.200000000000003,2.571017673852714,-1.433888880597339e-06,-23.06400394600887,-0.00020447839907510403,1.6589439071858014e-05,4.565351934645185e-05,-0.005353652291543786,0.000434344600232606,0.0011953001860915092,0,70,255.0,255.0,255.0
545,27.25,2.571,0.0,-23.064,-0.0005176330573732009,4.199583968631466e-05,0.00011557098894573342,-0.007172534040380797,0.0005819114243457177,0.0016013985978799135,0,70,255.0,255.0,255.0
546,27.3,2.5709615810792057,2.597711729288862e-06,-23.063992051193935,-0.0010905557819019267,5.732323877605704e-05,0.00020575142119793195,-0.015744374940767913,3.1184539243968887e-05,0.002005818692207976,0,70,255.0,255.0,255.0
547,27.35,2.5708838012210595,5.273384806687649e-06,-23.063979087841137,-0.0020920705514500147,4.51142936107116e-05,0.00031615285816653387,-0.024316215841155026,-0.0005195423458577799,0.0024102387865360384,0,70,255.0,255.0,255.0
548,27.400000000000002,2.5707452308233103,6.650202019441948e-06,-23.06396009889137,-0.003522177366017464,5.369004190278301e-06,0.0004467752998515392,-0.032888056741542146,-0.0010702692309595288,0.002814658880864101,0,70,255.0,255.0,255.0
549,27.450000000000003,2.5705244402837075,5.351346154797348e-06,-23.063934073294405,-0.005380876225604275,-6.191262948524281e-05,0.000597618746252948,-0.041459897641929255,-0.0016209961160612775,0.0032190789751921633,0,70,255.0,255.0,255.0
550,27.5,2.5702,0.0,-23.0639,-0.0076681671302102706,-0.00015673060741584405,0.0007686831973707473,-0.05003173854231573,-0.002171723001162986,0.003623499069520195,0,70,255.0,255.0,255.0
551,27.55,2.5697554962392073,-1.0494792157123686e-05,-23.063857079707457,-0.010083097923566054,-0.00026193323956664875,0.0009472636811191313,-0.046565493191914234,-0.002036382284869141,0.0035197202804150654,0,70,255.0,255.0,255.0
552,27.6,2.5691945787454347,-2.6080540026420372e-05,-23.063805360114213,-0.01232471644940176,-0.0003603688359027611,0.0011206552254122587,-0.04309924784151273,-0.0019010415685752967,0.003415941491309936,0,70,255.0,255.0,255.0
553,27.650000000000002,2.5685259131320595,-4.641889181715543e-05,-23.06374510066724,-0.014393022707717388,-0.0004520373964241811,0.0012888578302501297,-0.03963300249111122,-0.0017657008522814518,0.0033121627022048065,0,70,255.0,255.0,255.0
