idx,t,px,py,pz,vx,vy,vz,ax,ay,az,yaw,mode,ledr,ledg,ledb
0,0.0,3.0,3.0,0.0,8.615417930057798e-13,3.103174571761936e-12,0.043130123124221154,-1.0338501516069358e-11,-3.723809486114323e-11,-1.1887614774906539,0,70,255.0,255.0,255.0
1,0.05,3.000000000000031,3.0000000000001115,0.0006790844324719614,3.9630922478265866e-13,1.4274603030104905e-12,-0.015796143362858277,-8.270801212855487e-12,-2.9790475888914586e-11,-1.1682891819925232,0,70,255.0,255.0,255.0
2,0.1,3.0000000000000417,3.000000000000149,-0.0015625540900373858,3.446167172023116e-14,1.2412698287047739e-13,-0.07369879507503117,-6.203100909641614e-12,-2.2342856916685938e-11,-1.1478168864943925,0,70,255.0,255.0,255.0
3,0.15000000000000002,3.000000000000036,3.0000000000001306,-0.006673734828782714,-2.2400086618150297e-13,-8.068253886581036e-13,-0.13057783201229756,-4.135400606427742e-12,-1.489523794445729e-11,-1.1273445909962616,0,70,255.0,255.0,255.0
4,0.2,3.0000000000000204,3.0000000000000746,-0.014603277045018698,-3.7907838892254307e-13,-1.3653968115752517e-12,-0.18643325417465734,-2.067700303213871e-12,-7.447618972228645e-12,-1.106872295498131,0,70,255.0,255.0,255.0
5,0.25,3.0,3.0,-0.0253,-4.307708965028899e-13,-1.551587285880968e-12,-0.24126506156211058,0.0,0.0,-1.0863999999999998,0,70,255.0,255.0,255.0
6,0.30000000000000004,2.999999999999979,2.9999999999999254,-0.03871272295498133,-3.79078388922543e-13,-1.3653968115752515e-12,-0.29507325417465735,2.0677003032138733e-12,7.447618972228653e-12,-1.065927704501869,0,70,255.0,255.0,255.0
7,0.35000000000000003,2.999999999999964,2.99999999999987,-0.0547902651712173,-2.240008661815026e-13,-8.068253886581028e-13,-0.34785783201229753,4.135400606427744e-12,1.4895237944457296e-11,-1.045455409003738,0,70,255.0,255.0,255.0
8,0.4,2.9999999999999583,2.9999999999998512,-0.07348144590996263,3.446167172023129e-14,1.241269828704778e-13,-0.3996187950750311,6.203100909641616e-12,2.234285691668594e-11,-1.0249831135056073,0,70,255.0,255.0,255.0
9,0.45,2.999999999999969,2.999999999999888,-0.09473508443247196,3.963092247826589e-13,1.427460303010491e-12,-0.45035614336285823,8.270801212855487e-12,2.9790475888914586e-11,-1.0045108180074764,0,70,255.0,255.0,255.0
10,0.5,3.0,3.0,-0.1185,8.615417930057798e-13,3.103174571761936e-12,-0.5000698768757788,1.0338501516069358e-11,3.723809486114323e-11,-0.9840385225093407,0,70,255.0,255.0,255.0
11,0.55,3.0000000000000515,3.000000000000186,-0.14472339261254674,1.1200043309075137e-12,4.0341269432905165e-12,-0.5486628399385123,-9.693522803355793e-27,-3.2311742677852644e-26,-0.9596799999999988,0,70,255.0,255.0,255.0
12,0.6000000000000001,3.000000000000103,3.000000000000372,-0.17334598522509348,8.615417930057788e-13,3.1031745717619326e-12,-0.5960378768757787,-1.0338501516069377e-11,-3.7238094861143295e-11,-0.9353214774906569,0,70,255.0,255.0,255.0
13,0.65,3.0000000000001292,3.0000000000004654,-0.2043068815313668,8.615417930057782e-14,3.1031745717619326e-13,-0.6421949876875779,-2.067700303213872e-11,-7.447618972228647e-11,-0.910962954981315,0,70,255.0,255.0,255.0
14,0.7000000000000001,3.0000000000001035,3.0000000000003726,-0.23754518522509346,-1.2061585102080939e-12,-4.344444400466719e-12,-0.6871341723739102,-3.1015504548208086e-11,-1.1171428458342974e-10,-0.8866044324719731,0,70,255.0,255.0,255.0
15,0.75,3.0,3.0,-0.273,-3.0153962755202293e-12,-1.0861111001166776e-11,-0.7308554309347751,-4.135400606427743e-11,-1.4895237944457297e-10,-0.8622459099626321,0,70,255.0,255.0,255.0
16,0.8,2.999999999999814,2.99999999999933,-0.31061050659483186,-4.100938934707512e-12,-1.4771110961586817e-11,-0.7733633860712943,-2.0677003032138418e-12,-7.44761897222856e-12,-0.8380722954981318,0,70,255.0,255.0,255.0
17,0.8500000000000001,2.9999999999996225,2.9999999999986406,-0.3503161939284091,-3.222166305841613e-12,-1.160587289838963e-11,-0.8146626604845884,3.7218605457849747e-11,1.3405714150011585e-10,-0.8138986810336314,0,70,255.0,255.0,255.0
18,0.9,2.999999999999524,2.999999999998287,-0.3920566279645703,-3.7907838892254337e-13,-1.3653968115752517e-12,-0.8547532541746573,7.650491121891326e-11,2.7556190197245995e-10,-0.7897250665691311,0,70,255.0,255.0,255.0
19,0.9500000000000001,2.9999999999996176,2.9999999999986224,-0.43577137466715443,4.4283248160497145e-12,1.5950317298856377e-11,-0.8936351671415015,1.1579121697997685e-10,4.1706666244480437e-10,-0.7655514521046308,0,70,255.0,255.0,255.0
20,1.0,3.0,3.0,-0.4814,1.1200043309075137e-11,4.034126943290517e-11,-0.9313083993851206,1.5507752274104032e-10,5.585714229171486e-10,-0.7413778376401314,0,70,255.0,255.0,255.0
21,1.05,3.000000000000693,3.000000000002495,-0.5288817810081259,1.5283751407922534e-11,5.505031690305675e-11,-0.9677556157763106,8.270801212855341e-12,2.979047588891414e-11,-0.7165108180074735,0,70,255.0,255.0,255.0
22,1.1,3.000000000001406,3.0000000000050644,-0.5781548390612706,1.2027123430360672e-11,4.332031702179658e-11,-1.002959481185868,-1.3853592031532964e-10,-4.989904711393203e-10,-0.6916437983748156,0,70,255.0,255.0,255.0
23,1.1500000000000001,3.0000000000017732,3.0000000000063864,-0.6291570066103522,1.4301593763895545e-12,5.1512697891246486e-12,-1.0369199956137922,-2.853426418435146e-10,-1.0277714181675548e-09,-0.6667767787421578,0,70,255.0,255.0,255.0
24,1.2000000000000002,3.000000000001427,3.000000000005139,-0.6818261161062894,-1.6507140753990812e-11,-5.9456824794959e-11,-1.069637159060084,-4.321493633716996e-10,-1.5565523651957892e-09,-0.6419097591094999,0,70,255.0,255.0,255.0
25,1.25,3.0,3.0,-0.7361,-4.178477696078032e-11,-1.505039667304539e-10,-1.1011109715247425,-5.789560848998841e-10,-2.085333312224021e-09,-0.6170427394768563,0,70,255.0,255.0,255.0
26,1.3,2.999999999997415,2.9999999999906906,-0.7919175693726646,-5.703406669698263e-11,-2.0543015665064018e-10,-1.1314061508234634,-3.10155045482077e-11,-1.117142845834279e-10,-0.5947644324719806,0,70,255.0,255.0,255.0
27,1.35,2.9999999999947535,2.999999999981102,-0.849222049826509,-4.48863274156011e-11,-1.616753951887967e-10,-1.1605874147719406,5.169250758034687e-10,1.8619047430571652e-09,-0.5724861254671051,0,70,255.0,255.0,255.0
28,1.4000000000000001,2.999999999993383,2.9999999999761675,-0.9079577455940213,-5.3415591166357035e-12,-1.9239682344923446e-11,-1.1886547633701738,1.0648656561551452e-09,3.835523770697759e-09,-0.5502078184622294,0,70,255.0,255.0,255.0
29,1.4500000000000002,2.999999999994676,2.9999999999808225,-0.9680689609076891,6.160023819991352e-11,2.218769818809795e-10,-1.2156081966181638,1.6128062365068216e-09,5.8091427983383514e-09,-0.5279295114573539,0,70,255.0,255.0,255.0
30,1.5,3.0,3.0,-1.0295,1.5593906453404614e-10,5.616745974889104e-10,-1.2414477145159093,2.1607468168584966e-09,7.782761825978935e-09,-0.5056512044524712,0,70,255.0,255.0,255.0
31,1.55,3.0000000000096456,3.0000000000347433,-1.092193541501216,2.1285251538000802e-10,7.666703096995039e-10,-1.2660757809298369,1.157912169799753e-10,4.170666624447969e-10,-0.47947145210462344,0,70,255.0,255.0,255.0
32,1.6,3.0000000000195812,3.000000000070529,-1.156085761632694,1.6751818623204366e-10,6.033812637333902e-10,-1.2893948597263716,-1.929164382898546e-09,-6.948628501089341e-09,-0.45329169975677563,0,70,255.0,255.0,255.0
33,1.6500000000000001,3.000000000024694,3.0000000000889435,-1.2211112110135636,1.993607709015324e-11,7.180745959056921e-11,-1.3114049509055143,-3.974119982777067e-09,-1.4314323664623478e-08,-0.4271119474089278,0,70,255.0,255.0,255.0
34,1.7000000000000002,3.0000000000198708,3.0000000000715716,-1.2872044402629557,-2.298938120456634e-10,-8.280511027289588e-10,-1.3321060544672645,-6.0190755826555885e-09,-2.1680018828157617e-08,-0.40093219506107997,0,70,255.0,255.0,255.0
35,1.75,3.0,3.0,-1.3543,-5.819714811754043e-10,-2.0961944232251878e-09,-1.3514981704116225,-8.064031182534097e-09,-2.904571399169172e-08,-0.37475244271324115,0,70,255.0,255.0,255.0
36,1.8,2.9999999999640017,2.999999999870337,-1.4223338646224712,-7.943759948230492e-10,-2.861251082147375e-09,-1.3696667254571913,-4.321493633716912e-10,-1.5565523651957619e-09,-0.35198975910950947,0,70,255.0,255.0,255.0
37,1.85,2.9999999999269225,2.9999999997367826,-1.491247703642716,-6.251864175125735e-10,-2.2518496597447643e-09,-1.3866971463225735,7.199732455790714e-09,2.5932609261300197e-08,-0.3292270755057778,0,70,255.0,255.0,255.0
38,1.9000000000000001,2.999999999907843,2.9999999996680593,-1.5609846103517255,-7.44027492439769e-11,-2.6799015601735315e-10,-1.402589433007769,1.4831614274953118e-08,5.3421770887796156e-08,-0.3064643919020461,0,70,255.0,255.0,255.0
39,1.9500000000000002,2.9999999999258415,2.999999999732891,-1.63148767804049,8.579750099827399e-10,3.0903274290348568e-09,-1.4173435855127783,2.2463496094115525e-08,8.091093251429211e-08,-0.2837017082983144,0,70,255.0,255.0,255.0
40,2.0,3.0,3.0,-1.7027,2.171946860167571e-09,7.82310309541184e-09,-1.4309596038376005,3.009537791327791e-08,1.0840009414078797e-07,-0.2609390246945935,0,70,255.0,255.0,255.0
41,2.0500000000000003,3.0000000001343485,3.000000000483909,-1.7745638000089,2.9646514639121896e-09,1.0678334018890001e-08,-1.443385317241399,1.6128062365066704e-09,5.809142798337799e-09,-0.2360895114573515,0,70,255.0,255.0,255.0
42,2.1,3.00000000027273,3.000000000982341,-1.8470178237964425,2.33322748381825e-09,8.404017375245668e-09,-1.4545685549833356,-2.6869765440264316e-08,-9.678180854411144e-08,-0.2112399982201097,0,70,255.0,255.0,255.0
43,2.15,3.000000000343936,3.000000001238818,-1.9199999475795353,2.776749198857667e-10,1.0001531644788907e-09,-1.46450931706341,-5.5352337117035306e-08,-1.993727598865607e-07,-0.18639048498286787,0,70,255.0,255.0,255.0
44,2.2,3.0000000002767617,3.0000000009968635,-1.993448047575086,-3.202006227885297e-09,-1.1533258613410465e-08,-1.4732076034816226,-8.383490879380654e-08,-3.0196371122901087e-07,-0.16154097174562584,0,70,255.0,255.0,255.0
45,2.25,3.0,3.0,-2.0673,-8.10581595949488e-09,-2.919621795842218e-08,-1.4806634142379727,-1.1231748047057751e-07,-4.045546625714601e-07,-0.1366914585083805,0,70,255.0,255.0,255.0
46,2.3000000000000003,2.999999999498603,2.999999998194027,-2.1414941353419312,-1.1064229860825708e-08,-3.985208499341263e-08,-1.4869040055772094,-6.019075582655015e-09,-2.1680018828155526e-08,-0.11293219506108715,0,70,255.0,255.0,255.0
47,2.35,2.9999999989821595,2.9999999963338535,-2.215970601171515,-8.707723517760429e-09,-3.136421984123791e-08,-1.4919566337440813,1.0027932930526655e-07,3.611946249151456e-07,-0.089172931613794,0,70,255.0,255.0,255.0
48,2.4000000000000004,2.9999999987164134,2.999999995376667,-2.2906699993301336,-1.0362969302989977e-09,-3.7326225018978615e-09,-1.4958212987385888,2.0657773419318902e-07,7.440692686584503e-07,-0.06541366816650065,0,70,255.0,255.0,255.0
49,2.45,2.999999998967111,2.9999999962796537,-2.365532931659168,1.1950049901558447e-08,4.3042707024607015e-08,-1.4984980005607316,3.128761390811106e-07,1.1269439124017513e-06,-0.04165440471920752,0,70,255.0,255.0,255.0
50,2.5,3.0,3.0,-2.4405,3.025131697781195e-08,1.0896176873827687e-07,-1.4999867392105097,4.1917454396903224e-07,1.5098185561450522e-06,-0.017895141271919712,0,70,255.0,255.0,255.0
51,2.5500000000000003,3.0000000018712374,3.0000000067399837,-2.5155116586233763,4.129226797939065e-08,1.487300059547605e-07,-1.5002786604497658,2.2463496094113493e-08,8.09109325142843e-08,0.006218291701681752,0,70,255.0,255.0,255.0
52,2.6,3.0000000037986343,3.0000000136822442,-2.590507771517499,3.249766658722347e-08,1.1705286198970597e-07,-1.4993649100403417,-3.7424755178080176e-07,-1.3479966911164709e-06,0.030331724675283,0,70,255.0,255.0,255.0
53,2.6500000000000004,3.0000000047904116,3.0000000172545134,-2.665428055099933,3.867512801310263e-09,1.3930336843112635e-08,-1.4972454879822374,-7.709585996557206e-07,-2.7769043147472387e-06,0.05444515764888447,0,70,255.0,255.0,255.0
54,2.7,3.000000003854793,3.0000000138845215,-2.7402122257882446,-4.459819337834847e-08,-1.6063756948501748e-07,-1.493920394275453,-1.1676696475306358e-06,-4.205811938377994e-06,0.07855859062248571,0,70,255.0,255.0,255.0
55,2.75,3.0,3.0,-2.8148,-1.1289945195175292e-07,-4.066508569946853e-07,-1.489389628919989,-1.564380695405551e-06,-5.63471956200875e-06,0.10267202359607808,0,70,255.0,255.0,255.0
56,2.8000000000000003,2.999999993016446,2.9999999748460393,-2.889131230164564,-1.5410484205673689e-07,-5.550679388256294e-07,-1.4836613526237277,-8.383490879379835e-08,-3.019637112289818e-07,0.12645902825437658,0,70,255.0,255.0,255.0
57,2.85,2.999999985823304,2.9999999489371696,-2.963146312758491,-1.2128294283113341e-07,-4.3684722811758586e-07,-1.4767437260945515,1.3967108778179413e-06,5.030792139550739e-06,0.15024603291267485,0,70,255.0,255.0,255.0
58,2.9000000000000004,2.999999982121939,2.9999999356052798,-3.036785780270137,-1.4433754274941935e-08,-5.1988724870552784e-08,-1.4686367493324601,2.877256664429694e-06,1.0363547990330507e-05,0.17403303757097338,0,70,255.0,255.0,255.0
59,2.95,2.9999999856137167,2.99999994818226,-3.109990165187855,1.6644272361183554e-07,5.995075709154633e-07,-1.4593404223374542,4.357802451041434e-06,1.5696303841110228e-05,0.19782004222927163,0,70,255.0,255.0,255.0
60,3.0,3.0,3.0,-3.1827,4.2134649082919975e-07,1.5176416592404643e-06,-1.448854745109533,5.838348237653173e-06,2.1029059691889945e-05,0.22160704688756994,0,70,255.0,255.0,255.0
61,3.0500000000000003,3.0000000260629793,3.000000093875859,-3.254855420718371,5.75127100247557e-07,2.071541749347757e-06,-1.4371559290553242,3.1287613908108133e-07,1.126943912401643e-06,0.24634559528078498,0,70,255.0,255.0,255.0
62,3.1,3.00000005290815,3.0000001905690783,-3.326394977448538,4.5263410473731027e-07,1.6303360504806378e-06,-1.4242201855814545,-5.212595959490962e-06,-1.8775171867086476e-05,0.2710841436739998,0,70,255.0,255.0,255.0
63,3.1500000000000004,3.00000006672183,3.000000240324368,-3.3972568238195215,5.386750429845787e-08,1.9402456263909834e-07,-1.410047514687924,-1.0738068058063054e-05,-3.867728764657478e-05,0.2958226920672148,0,70,255.0,255.0,255.0
64,3.2,3.00000005369034,3.0000001933864384,-3.4673791134603364,-6.211727010689936e-07,-2.2373927141768346e-06,-1.394637916374733,-1.6263540156635095e-05,-5.85794034260629e-05,0.3205612404604296,0,70,255.0,255.0,255.0
65,3.25,3.0,3.0,-3.5367,-1.572486511365046e-06,-5.663915779967172e-06,-1.377991390641881,-2.1789012255207134e-05,-7.848151920555104e-05,0.3452997888536462,0,70,255.0,255.0,255.0
66,3.3000000000000003,2.999999902731635,2.9999996496505235,-3.605157486961957,-2.1464035589334903e-06,-7.731099058565398e-06,-1.3600989311549776,-1.1676696475305225e-06,-4.205811938377593e-06,0.37039859062249125,0,70,255.0,255.0,255.0
67,3.35,2.9999998025440964,2.999999288786517,-3.6726889774473577,-1.6892534761181076e-06,-6.084496973804964e-06,-1.3409515315796319,1.9453672960145906e-05,7.00698953287952e-05,0.39549739239133613,0,70,255.0,255.0,255.0
68,3.4000000000000004,2.9999997509907397,2.999999103097249,-3.7392317244517796,-2.0103626291888834e-07,-7.241095256858419e-07,-1.3205491919158439,4.0075015567822515e-05,0.00014434560259596864,0.4205961941601812,0,70,255.0,255.0,255.0
69,3.45,2.9999997996249217,2.999999278271987,-3.804722980970801,2.318248080664139e-06,8.35006328579188e-06,-1.2988919121636138,6.069635817549895e-05,0.00021862130986314145,0.44569499592902606,0,70,255.0,255.0,255.0
70,3.5,3.0,3.0,-3.8691,5.868599554630984e-06,2.1138021460628223e-05,-1.2759796923229414,8.131770078317538e-05,0.0002928970171303142,0.47079379769786733,0,70,255.0,255.0,255.0
71,3.5500000000000003,3.000000363010479,3.000001307522047,-3.932303431433804,8.010487135486406e-06,2.885285448491384e-05,-1.252016346324763,4.357802451041012e-06,1.5696303841108733e-05,0.48774004222925926,0,70,255.0,255.0,255.0
72,3.6,3.0000007369154646,3.000002654284854,-3.9942875127620336,6.3043797997351215e-06,2.2707651844739218e-05,-1.2272056881000153,-7.260209588109265e-05,-0.0002615044094480943,0.5046862867606511,0,70,255.0,255.0,255.0
73,3.6500000000000004,3.000000929315211,3.000003347286637,-4.055009878373363,7.50277547377101e-07,2.7024135401042623e-06,-1.201547717648698,-0.00014956199421322703,-0.0005387051227372997,0.521632531292043,0,70,255.0,255.0,255.0
74,3.7,3.000000747809971,3.0000026935256137,-4.114428162656461,-8.651819621587559e-06,-3.116286042899068e-05,-1.175042434970811,-0.00022652189254536068,-0.0008159058360265028,0.5385787758234347,0,70,255.0,255.0,255.0
75,3.75,3.0,3.0,-4.1725,-2.190191170715889e-05,-7.888817006254572e-05,-1.1476898400663547,-0.00030348179087749433,-0.0010931065493157057,0.5555250203548265,0,70,255.0,255.0,255.0
76,3.8000000000000003,2.999998645226447,2.999995120261288,-4.229167987302831,-2.9895544983012133e-05,-0.00010768031888108995,-1.118587683545973,-1.6263540156633536e-05,-5.857940342605733e-05,0.6085612404604347,0,70,255.0,255.0,255.0
77,3.85,2.999997249794044,2.999990094074067,-4.284314571504511,-2.3528265722822373e-05,-8.474611040515192e-05,-1.086833716020311,0.00027095471056422476,0.000975947742463582,0.6615974605660424,0,70,255.0,255.0,255.0
78,3.9000000000000004,2.999996531748417,2.9999875077562024,-4.337807162054775,-2.8000739265895004e-06,-1.0085544634731204e-05,-1.0524279374893686,0.0005581729612850856,0.0020104748883532303,0.7146336806716505,0,70,255.0,255.0,255.0
79,3.95,2.9999972091351936,2.999989947625558,-4.389513168403359,3.228903040568611e-05,0.00011630137843017085,-1.0153703479531462,0.0008453912120059439,0.0030450020342428696,0.7676699007772582,0,70,255.0,255.0,255.0
80,4.0,3.0,3.0,-4.4393,8.173904727400457e-05,0.00029441465878955465,-0.9756609474116431,0.0011326094627268019,0.00407952918013251,0.8207061208828659,0,70,255.0,255.0,255.0
81,4.05,3.0000050560837317,3.000019811432802,-4.487038219354877,0.00011157169279656207,0.0004978684210394347,-0.9334889194913455,6.069635817550255e-05,0.004058621309862719,0.866174995929042,0,70,255.0,255.0,255.0
82,4.1000000000000005,3.0000102639083592,3.000049769418879,-4.53261100121993,8.780868309155391e-05,0.0007002767897758286,-0.8890434478187385,-0.0010112167463758159,0.004037713439592928,0.9116438709752189,0,70,255.0,255.0,255.0
83,4.15,3.0000129436911203,3.000089821688554,-4.575904673407545,1.045001815898092e-05,0.0009016397649987296,-0.8423245323938232,-0.0020831298509271148,0.004016805569323137,0.9571127460213951,0,70,255.0,255.0,255.0
84,4.2,3.0000104156492546,3.0001399159721536,-4.616805563730106,-0.00012050430200115684,0.0011019573467081411,-0.7933321732165993,-0.0031550429554784145,0.0039958976990533464,1.0025816210675713,0,70,255.0,255.0,255.0
85,4.25,3.0,3.0002,-4.6552,-0.0003050542773888594,0.0013012295349040628,-0.7420663702870665,-0.004226956060029715,0.003974989828783554,1.0480504961137491,0,70,255.0,255.0,255.0
86,4.3,2.999980330438625,3.000268834007504,-4.691018335277665,-0.0004643912262033373,0.00142820663472309,-0.6911686384886374,-0.0021465218925494204,0.0011040941639775593,0.9878587758234203,0,70,255.0,255.0,255.0
87,4.3500000000000005,2.999955294572519,3.0003404282504182,-4.724367023615773,-0.0005197064666438007,0.0014116389513018168,-0.643280492704724,-6.608772506908837e-05,-0.0017668015008284865,0.9276670555330903,0,70,255.0,255.0,255.0
88,4.4,2.9999300934871007,3.0004076054895803,-4.7553965443150465,-0.000470999998710248,0.001251526484640243,-0.5984019329353278,0.002014346442411207,-0.0046376971656344815,0.8674753352427614,0,70,255.0,255.0,255.0
89,4.45,2.9999099282677872,3.000463188485828,-4.784257376676214,-0.00031827182240268086,0.0009478692347383703,-0.5565329591804482,0.004094780609891502,-0.007508592830440475,0.8072836149524325,0,70,255.0,255.0,255.0
90,4.5,2.9999,3.0005,-4.8111,-6.152193772109918e-05,0.0005006672015961983,-0.5176735714400849,0.006175214777371796,-0.010379488495246472,0.7470918946621019,0,70,255.0,255.0,255.0
91,4.55,2.999904022161766,3.0005112525371818,-4.836063639534461,0.000209993212013546,-6.669495992906055e-05,-0.4811485265541013,0.004685391212014052,-0.012314997965763963,0.7139099007772459,0,70,255.0,255.0,255.0
92,4.6000000000000005,2.9999197578015635,3.000491717579448,-4.85924250431698,0.0004070171834803072,-0.0007308325949802063,-0.44628258136235993,0.0031955676466562805,-0.014250507436281487,0.6807279068923894,0,70,255.0,255.0,255.0
93,4.65,2.9999434823604765,3.000436556353125,-4.880719549332269,0.0005295499766791772,-0.0014917457035572151,-0.41307573586486196,0.001705744081298536,-0.016186016906798977,0.6475459130075334,0,70,255.0,255.0,255.0
94,4.7,2.999971471279593,3.0003409300845343,-4.900577729565037,0.0005775915916101601,-0.002349434285660098,-0.3815279900616068,0.0002159205159407906,-0.01812152637731647,0.6143639191226774,0,70,255.0,255.0,255.0
95,4.75,3.0,3.0002,-4.9189,0.0005511420282732561,-0.0033038983412888557,-0.3516393439525945,-0.0012739030494169556,-0.020057035847833974,0.5811819252378201,0,70,255.0,255.0,255.0
96,4.800000000000001,3.0000267809143075,3.0000085558437704,-4.935772706584487,0.0005364183781508618,-0.004377426795008313,-0.3236132552949592,0.0006849570445211931,-0.02288410230094374,0.5398616210675753,0,70,255.0,255.0,255.0
97,4.8500000000000005,3.0000552742212268,2.9997599014317884,-4.951295759116305,0.000619637732725374,-0.005592308571383239,-0.29765318184583667,0.002643817138459307,-0.025711168754053455,0.4985413168973313,0,70,255.0,255.0,255.0
98,4.9,3.000090377070992,2.9994469690979213,-4.9655724583558785,0.0008008000919967916,-0.0069485436704136505,-0.27375912360522625,0.004602677232397421,-0.02853823520716317,0.45722101272708726,0,70,255.0,255.0,255.0
99,4.95,3.0001369866138377,2.999062691176036,-4.978706105063636,0.0010799054559651146,-0.008446132092099545,-0.2519310805731281,0.006561537326335535,-0.03136530166027288,0.41590070855684325,0,70,255.0,255.0,255.0
100,5.0,3.0002,2.9986,-4.9908,0.001456953824630343,-0.010085073836440927,-0.23216905274954208,0.008520397420273646,-0.03419236811338261,0.37458040438659923,0,70,255.0,255.0,255.0
101,5.050000000000001,3.0002832541810025,2.998052124087738,-5.001955934127592,0.0018683332753842534,-0.011847597860036556,-0.21438245226606592,0.007934780609882536,-0.03630859283044159,0.3368836149524367,0,70,255.0,255.0,255.0
102,5.1000000000000005,3.0003863453135295,2.997413476693399,-5.012269659217802,0.0022504318856186012,-0.013715933119485104,-0.19848069125429818,0.0073491637994914346,-0.03842481754750053,0.29918682551827486,0,70,255.0,255.0,255.0
103,5.15,3.0005078093555557,2.9966787672551916,-5.021835417244217,0.002603249655333394,-0.015690079614786596,-0.18446376971423856,0.006763546989100334,-0.04054104226455948,0.261490036084113,0,70,255.0,255.0,255.0
104,5.2,3.0006461822650543,2.995842705211323,-5.030747450180421,0.0029267865845286323,-0.01777003734594104,-0.172331687645887,0.006177930178709233,-0.042657266981618425,0.22379324664995112,0,70,255.0,255.0,255.0
105,5.25,3.0008,2.9949,-5.0391,0.0032210426732043156,-0.019955806312948424,-0.16208444504924352,0.0055923133683181275,-0.04477349169867734,0.18609645721579016,0,70,255.0,255.0,255.0
106,5.300000000000001,3.000968202361682,2.99384534780528,-5.046988356905148,0.0035102485203108835,-0.02224818176484833,-0.15378493564078127,0.005975920515944427,-0.04692152637731758,0.145883919122694,0,70,255.0,255.0,255.0
107,5.3500000000000005,3.001151344524654,2.992673391794616,-5.054512004012489,0.0038186347247987614,-0.024647958950680206,-0.147496053136974,0.00635952766357072,-0.04906956105595778,0.10567138102959854,0,70,255.0,255.0,255.0
108,5.4,3.001350385506785,2.991378761881313,-5.061771472667256,0.004146201286667953,-0.02715513787044409,-0.1432177975378215,0.006743134811197013,-0.05121759573459798,0.06545884293650309,0,70,255.0,255.0,255.0
109,5.45,3.001566284325944,2.989956087978673,-5.068867294214682,0.0044929482059184594,-0.029769718524139982,-0.14095016884332373,0.007126741958823306,-0.053365630413238184,0.02524630484340762,0,70,255.0,255.0,255.0
110,5.5,3.0018,2.9884,-5.0759,0.004858875482550281,-0.03249170091176789,-0.1406931670534807,0.007510349106449557,-0.05551366509187844,-0.014966233249687155,0,70,255.0,255.0,255.0
111,5.550000000000001,3.0020527363722684,2.986704884691143,-5.082969038251816,0.005258672643370016,-0.03533567508057143,-0.14238180517080226,0.008481537326339578,-0.058245301660261456,-0.052579291443173796,0,70,255.0,255.0,255.0
112,5.6000000000000005,3.0023266765878533,2.9848641561281357,-5.090169524732241,0.005707029215184243,-0.03831623107779406,-0.14595109619779806,0.009452725546229581,-0.060976938228644424,-0.09019234963665976,0,70,255.0,255.0,255.0
113,5.65,3.0026242486173036,2.982870985219557,-5.097595492086757,0.00620394519799297,-0.041433368903435845,-0.15140104013446817,0.010423913766119584,-0.06370857479702739,-0.12780540783014574,0,70,255.0,255.0,255.0
114,5.7,3.002947880431169,2.9807185428739853,-5.10534097296085,0.006749420591796198,-0.044687088557496785,-0.1587316369808126,0.011395101986009588,-0.06644021136541037,-0.1654184660236317,0,70,255.0,255.0,255.0
115,5.75,3.0033,2.9784,-5.1135,0.007343455396593925,-0.04807739003997686,-0.16794288673683128,0.012366290205899563,-0.06917184793379344,-0.20303152421711657,0,70,255.0,255.0,255.0
116,5.800000000000001,3.0036824521492425,2.9759087134301474,-5.122169090087586,0.007951060906209244,-0.051593117912862446,-0.17918384367601087,0.011937930178712855,-0.07145726698162809,-0.24660675335006096,0,70,255.0,255.0,255.0
117,5.8500000000000005,3.0040947491239316,2.9732387836928407,-5.131454697058546,0.008537248414465218,-0.055223116738139705,-0.19260356207183746,0.011509570151526153,-0.0737426860294627,-0.2901819824830046,0,70,255.0,255.0,255.0
118,5.9,3.004535820023999,2.97038449724046,-5.141465758985713,0.009102017921361855,-0.05896738651580869,-0.20820204192431124,0.011081210124339453,-0.07602810507729729,-0.33375721161594823,0,70,255.0,255.0,255.0
119,5.95,3.005004593949378,2.967340140525386,-5.15231121394192,0.009645369426899158,-0.06282592724586941,-0.22597928323343217,0.010652850097152751,-0.0783135241251319,-0.37733244074889183,0,70,255.0,255.0,255.0
120,6.0,3.0055,2.9641,-5.1641,0.010167302931077125,-0.06679873892832186,-0.24593528599920025,0.01022449006996598,-0.08059894317296679,-0.4209076698818348,0,70,255.0,255.0,255.0
121,6.050000000000001,3.0060214550307616,2.9606586615882677,-5.176932201397844,0.01069708373179664,-0.07086785326797727,-0.2675388201251604,0.010966741958814336,-0.0821656304132479,-0.4432336951565577,0,70,255.0,255.0,255.0
122,6.1000000000000005,3.0065703269164206,2.9570119091005016,-5.190872487033579,0.011263977126958563,-0.0750153019696467,-0.2902586555148562,0.011708993847662677,-0.08373231765352897,-0.4655597204312802,0,70,255.0,255.0,255.0
123,6.15,3.007148471286698,2.953155825818603,-5.205976671970392,0.011867983116562904,-0.07924108503333016,-0.31409479216828823,0.012451245736511019,-0.08529900489381005,-0.4878857457060026,0,70,255.0,255.0,255.0
124,6.2,3.0077577437713177,2.9490864950244693,-5.22230057127147,0.012509101700609662,-0.08354520245902766,-0.33904723008545634,0.01319349762535936,-0.08686569213409112,-0.5102117709807251,0,70,255.0,255.0,255.0
125,6.25,3.0084,2.9448,-5.2399,0.013187332879098835,-0.08792765424673925,-0.36511596926636053,0.013935749514207701,-0.0884323793743721,-0.5325377962554465,0,70,255.0,255.0,255.0
126,6.300000000000001,3.009076527727711,2.940295840216782,-5.258795704321041,0.01386860416660438,-0.09218346901523361,-0.39019687582333834,0.01331510198601363,-0.08180021136539992,-0.47069846602365173,0,70,255.0,255.0,255.0
127,6.3500000000000005,3.009786343210387,2.9355871799051503,-5.2788681548071406,0.014518843077700206,-0.09610767538327929,-0.41218581586872605,0.01269445445781957,-0.07516804335642785,-0.40885913579185806,0,70,255.0,255.0,255.0
128,6.4,3.0105278948292074,2.9306905994851284,-5.2999627531327205,0.01513804961238633,-0.09970027335087638,-0.43108278940252404,0.01207380692962551,-0.0685358753474558,-0.3470198055600644,0,70,255.0,255.0,255.0
129,6.45,3.011299630965352,2.9256226793767373,-5.3219249009722,0.015726223770662753,-0.10296126291802483,-0.4468877964247323,0.011453159401431448,-0.061903707338483736,-0.28518047532827073,0,70,255.0,255.0,255.0
130,6.5,3.0121,2.9204,-5.3446,0.01628336555252947,-0.1058906440847247,-0.459600836935351,0.010832511873237333,-0.055271539329511565,-0.22334114509647707,0,70,255.0,255.0,255.0
131,6.550000000000001,3.012927634058395,2.9150355775446037,-5.367864181317994,0.01682049960178923,-0.10870227067109058,-0.47106567658148596,0.010652850097152692,-0.057193524125121645,-0.23525244074891585,0,70,255.0,255.0,255.0
132,6.6000000000000005,3.013781900242032,2.9095281712788945,-5.391716493737859,0.017348650562244747,-0.1116099964972369,-0.4831260810102427,0.010473188321068054,-0.059115508920731696,-0.24716373640135444,0,70,255.0,255.0,255.0
133,6.65,3.014662349396472,2.903872976240884,-5.4161867154987275,0.01786781843389603,-0.11461382156316371,-0.4957820502216213,0.010293526544983415,-0.06103749371634174,-0.259075032053793,0,70,255.0,255.0,255.0
134,6.7,3.015568532367275,2.8980651874685814,-5.441304624839732,0.018378003216743086,-0.11771374586887105,-0.5090335842156218,0.010113864768898778,-0.06295947851195179,-0.2709863277062316,0,70,255.0,255.0,255.0
135,6.75,3.0165,2.8921,-5.4671,0.0188792049107859,-0.12090976941435888,-0.5228806829922443,0.009934202992814112,-0.06488146330756184,-0.28289762335866975,0,70,255.0,255.0,255.0
136,6.800000000000001,3.0174561360387107,2.8859738496048037,-5.4935955704069865,0.019361397426240046,-0.12412744830040053,-0.5369004178507284,0.009353497625351263,-0.06382569213410222,-0.2778917709806861,0,70,255.0,255.0,255.0
137,6.8500000000000005,3.0184356558214844,2.879688134979271,-5.520785870241426,0.019814554673321036,-0.12729233862776915,-0.550669860090313,0.008772792257888422,-0.06276992096064261,-0.2728859186027026,0,70,255.0,255.0,255.0
138,6.9,3.0194371075849036,2.873245495551338,-5.54865838487237,0.020238676652028883,-0.13040444039646476,-0.5641890097109986,0.008192086890425583,-0.06171414978718301,-0.2678800662247191,0,70,255.0,255.0,255.0
139,6.95,3.0204590395655484,2.8666485707489358,-5.577200599668877,0.02063376336236359,-0.1334637536064874,-0.5774578667127849,0.007611381522962744,-0.060658378613723404,-0.26287421384673554,0,70,255.0,255.0,255.0
140,7.0,3.0215,2.8599,-5.6064,0.020999814804325157,-0.13647027825783709,-0.590476431095672,0.0070306761554999875,-0.059602607440263355,-0.2578683614687538,0,70,255.0,255.0,255.0
141,7.050000000000001,3.022559021786763,2.8530026240361837,-5.636244737054062,0.021365910693248672,-0.13941193612730604,-0.603284652015598,0.007613159401440408,-0.0580637073384924,-0.2544604753282751,0,70,255.0,255.0,255.0
142,7.1000000000000005,3.0236370764720295,2.845960088804021,-5.6667256252964435,0.0217611307444692,-0.14227664899168635,-0.6159224786284997,0.008195642647380819,-0.05652480723672147,-0.25105258918779644,0,70,255.0,255.0,255.0
143,7.15,3.0247356202639155,2.8387762415537665,-5.697834145011794,0.02218547495798675,-0.14506441685097815,-0.6283899109343776,0.00877812589332123,-0.05498590713495054,-0.24764470304731778,0,70,255.0,255.0,255.0
144,7.2,3.0258561093705336,2.8314549295356746,-5.729561776484764,0.02263894333380132,-0.1477752397051814,-0.6406869489332313,0.009360609139261641,-0.05344700703317961,-0.24423681690683913,0,70,255.0,255.0,255.0
145,7.25,3.027,2.824,-5.7619,0.023121535871912912,-0.1504091175542961,-0.6528135926250614,0.009943092385202051,-0.051908106931407794,-0.24082893076635958,0,70,255.0,255.0,255.0
146,7.300000000000001,3.0281685768142377,2.816414054250462,-5.7948414813767695,0.02362295980076544,-0.15304080719037982,-0.6648409740868769,0.010113864768898737,-0.053359478511939805,-0.2402663277062503,0,70,255.0,255.0,255.0
147,7.3500000000000005,3.0293624382903963,2.808694709804645,-5.828383628572804,0.02413292234880279,-0.1557450654054901,-0.6768402253956867,0.010284637152595418,-0.05481085009247179,-0.23970372464614104,0,70,255.0,255.0,255.0
148,7.4,3.0305820113594373,2.800838338233596,-5.862525035080455,0.024651423516024975,-0.15852189219962698,-0.6888113465514908,0.0104554095362921,-0.05626222167300378,-0.23914112158603176,0,70,255.0,255.0,255.0
149,7.45,3.0318277229523187,2.792841311108365,-5.89726429439207,0.025178463302431998,-0.16137128757279046,-0.7007543375542897,0.010626181919988782,-0.05771359325353576,-0.23857851852592252,0,70,255.0,255.0,255.0
150,7.5,3.0331,2.7847,-5.9326,0.02571404170802385,-0.1642932515249805,-0.7126691984040829,0.010796954303685352,-0.059164964834067524,-0.23801591546581058,0,70,255.0,255.0,255.0
151,7.550000000000001,3.034398670956289,2.7764123589619665,-5.968529337438863,0.026222250103689948,-0.16719283511117533,-0.7244714516368967,0.009531381522958259,-0.05681837861372384,-0.23407421384673477,0,70,255.0,255.0,255.0
152,7.6000000000000005,3.035721170366385,2.7679826719773994,-6.005043860412341,0.026667179860319683,-0.16997508938635292,-0.7360766197887566,0.008265808742231187,-0.0544717923933802,-0.23013251222765904,0,70,255.0,255.0,255.0
153,7.65,3.037064334298337,2.7594168055118486,-6.042133714666389,0.027048830977913066,-0.17264001435051335,-0.7474847028596625,0.007000235961504116,-0.05212520617303656,-0.22619081060858331,0,70,255.0,255.0,255.0
154,7.7,3.038424998820193,2.7507206260308648,-6.079789045946957,0.027367203456470094,-0.17518761000365654,-0.7586957008496148,0.005734663180777045,-0.04977861995269292,-0.2222491089895076,0,70,255.0,255.0,255.0
155,7.75,3.0398,2.7419,-6.118,0.02762229729599077,-0.1776178763457826,-0.7697096137586132,0.0044690904000500575,-0.04743203373234928,-0.21830740737043186,0,70,255.0,255.0,255.0
156,7.800000000000001,3.041187139360608,2.7329597099016696,-6.156757968867785,0.02787203978447358,-0.17999585236492074,-0.7806012193655446,0.005520609139262115,-0.04768700703317568,-0.2173568169068172,0,70,255.0,255.0,255.0
157,7.8500000000000005,3.0425880802440632,2.723900202285757,-6.196059329777835,0.028174358209916983,-0.1823865770491002,-0.7914452954492951,0.006572127878474155,-0.04794198033400208,-0.2164062264432026,0,70,255.0,255.0,255.0
158,7.9,3.0440054514472155,2.714720839719009,-6.235901706253995,0.02852925257232099,-0.18479005039832094,-0.8022418420098648,0.007623646617686193,-0.048196953634828475,-0.21545563597958797,0,70,255.0,255.0,255.0
159,7.95,3.0454418817669118,2.7054209847681743,-6.276282721820102,0.028936722871685604,-0.18720627241258303,-0.8129908590472539,0.008675165356898232,-0.04845192693565488,-0.21450504551597332,0,70,255.0,255.0,255.0
160,8.0,3.0469,2.696,-6.3172,0.029396769108010812,-0.18963524309188645,-0.8236923465614621,0.009726684096110327,-0.04870690023648239,-0.21355445505235693,0,70,255.0,255.0,255.0
161,8.05,3.04838157160128,2.686457601431353,-6.358649987090003,0.02985759075841341,-0.19205575542913708,-0.8342756709009196,0.008706181919993202,-0.048113593253541156,-0.2097785185259361,0,70,255.0,255.0,255.0
162,8.1,3.0498849086573614,2.676794918879572,-6.400624420476319,0.03026738730001013,-0.19444660241724057,-0.8446701984140556,0.007685679743876113,-0.04752028627059995,-0.20600258199951543,0,70,255.0,255.0,255.0
163,8.15,3.0514074599128014,2.667013435612115,-6.443113860317635,0.030626158732801015,-0.19680778405619703,-0.8548759291008711,0.006665177567758988,-0.04692697928765872,-0.2022266454730946,0,70,255.0,255.0,255.0
164,8.200000000000001,3.052946674112161,2.657114634896438,-6.4861088667726365,0.030933905056786042,-0.1991393003460065,-0.8648928629613654,0.005644675391641863,-0.04633367230471749,-0.1984507089466738,0,70,255.0,255.0,255.0
165,8.25,3.0545,2.6471,-6.5296,0.0311906262719652,-0.2014411512866688,-0.8747209999955384,0.004624173215524774,-0.045740365321776055,-0.194674772420254,0,70,255.0,255.0,255.0
166,8.3,3.05606577423427,2.636970684372918,-6.573578882772208,0.03144959718187275,-0.2037331259185308,-0.8844240970307825,0.005734663180777104,-0.04593861995270143,-0.19344910898950668,0,70,255.0,255.0,255.0
167,8.35,3.057645885126492,2.6267265221959546,-6.618041388316886,0.03176409259004291,-0.20603501328193893,-0.8940659108944891,0.006845153146029396,-0.04613687458362681,-0.1922234455587594,0,70,255.0,255.0,255.0
168,8.4,3.059243108901579,2.6163670178325313,-6.662984452475463,0.032134112496475686,-0.20834681337689345,-0.9036464415866584,0.007955643111281725,-0.046335129214552184,-0.19099778212801208,0,70,255.0,255.0,255.0
169,8.450000000000001,3.0608602217844436,2.6058916756460726,-6.708405011089361,0.03255965690117109,-0.2106685262033942,-0.9131656891072906,0.009066133076534057,-0.04653338384547757,-0.18977211869726476,0,70,255.0,255.0,255.0
170,8.5,3.0625,2.5953,-6.7543,0.0330407258041291,-0.21300015176144121,-0.9226236534563849,0.010176623041786292,-0.04673163847640227,-0.1885464552665157,0,70,255.0,255.0,255.0
171,8.55,3.06416413146164,2.5845924610769746,-6.800665681821173,0.033512020514096214,-0.21528374089674226,-0.9319799409759472,0.008675165356898175,-0.04461192693563844,-0.1857050455159706,0,70,255.0,255.0,255.0
172,8.6,3.065849950836672,2.57377339233661,-6.847495626256135,0.03390824233981891,-0.21746134445500506,-0.9411941580079819,0.0071737076720101095,-0.04249221539487468,-0.1828636357654256,0,70,255.0,255.0,255.0
173,8.65,3.0675537044808845,2.5628480930577573,-6.894782729780513,0.034229391281297226,-0.21953296243622972,-0.9502663045524896,0.005672249987121992,-0.04037250385411085,-0.18002222601488052,0,70,255.0,255.0,255.0
174,8.700000000000001,3.069271638750065,2.5518218625192706,-6.942519888869927,0.03447546733853112,-0.2214985948404162,-0.9591963806094702,0.004170792302233874,-0.038252792313347016,-0.17718081626433543,0,70,255.0,255.0,255.0
175,8.75,3.071,2.5407,-6.9907,0.03464647051152061,-0.2233582416675644,-0.9679843861789231,0.0026693346173456978,-0.03613308077258237,-0.17433940651378688,0,70,255.0,255.0,255.0
176,8.8,3.072736099919171,2.5294866713191846,-7.039315989943103,0.0348063207617452,-0.22517991049449726,-0.9766321390654351,0.0037246753916378144,-0.03673367230473118,-0.17157070894668514,0,70,255.0,255.0,255.0
177,8.85,3.0744815115268196,2.5181815084576074,-7.08836090665857,0.03501893805068439,-0.22703160889803753,-0.9851414570735916,0.004780016165929894,-0.03733426383687996,-0.1688020113795835,0,70,255.0,255.0,255.0
178,8.9,3.0762388731748844,2.5067830099364374,-7.137827828402489,0.03528432237833819,-0.22891333687818524,-0.9935123402033934,0.00583535694022201,-0.03793485536902877,-0.16603331381248176,0,70,255.0,255.0,255.0
179,8.950000000000001,3.078010823215299,2.4952896742768447,-7.187709833430938,0.0356024737447066,-0.23082509443494043,-1.00174478845484,0.006890697714514127,-0.03853544690117757,-0.16326461624538002,0,70,255.0,255.0,255.0
180,9.0,3.0798,2.4837,-7.238,0.03597339214978959,-0.23276688156830297,-1.0098388018279314,0.007946038488805929,-0.03913603843332569,-0.16049591867827928,0,70,255.0,255.0,255.0
181,9.05,3.081608268861679,2.4720128536462878,-7.288691958406421,0.036350696438923,-0.2347166171252729,-1.0178275027623194,0.0071461330765299255,-0.03885338384546979,-0.15905211869723385,0,70,255.0,255.0,255.0
182,9.1,3.0834344030560485,2.4602285738329623,-7.33978154710958,0.03668800545744258,-0.23665221995284993,-1.0257440136976548,0.006346227664253951,-0.038570729257613894,-0.1576083187161885,0,70,255.0,255.0,255.0
183,9.15,3.0852764028195794,2.448347867196493,-7.391265156609535,0.03698531920534839,-0.23857369005103427,-1.033588334633938,0.005546322251977947,-0.038288074669757984,-0.15616451873514306,0,70,255.0,255.0,255.0
184,9.200000000000001,3.0871322683887406,2.4363714403733483,-7.443139177406326,0.037242637682640384,-0.24048102741982577,-1.0413604655711695,0.004746416839701944,-0.03800542008190208,-0.15472071875409765,0,70,255.0,255.0,255.0
185,9.25,3.089,2.4243,-7.4954,0.037459960889318585,-0.24237423205922445,-1.049060406509348,0.003946511427425914,-0.03772276549404574,-0.1532769187730576,0,70,255.0,255.0,255.0
186,9.3,3.0908780246341143,2.412134714095663,-7.548043376431223,0.03766289348256029,-0.2442256210044092,-1.0566498498852832,0.00417079230224239,-0.03633279231334259,-0.15030081626434638,0,70,255.0,255.0,255.0
187,9.35,3.092766476248985,2.3998785962105433,-7.601062504903105,0.03787704011954282,-0.2460075112905587,-1.0640904881357827,0.00439507317705886,-0.03494281913263949,-0.1473247137556353,0,70,255.0,255.0,255.0
188,9.4,3.094665915546798,2.3875351212775913,-7.654449945159376,0.03810240080026618,-0.24771990291767312,-1.0713823212608466,0.0046193540518753365,-0.03355284595193634,-0.14434861124692408,0,70,255.0,255.0,255.0
189,9.450000000000001,3.096576903229741,2.3751077642297593,-7.708198256943766,0.03833897552473037,-0.2493627958857524,-1.0785253492604754,0.004843634926691814,-0.03216287277123319,-0.1413725087382129,0,70,255.0,255.0,255.0
190,9.5,3.0985,2.3626,-7.7623,0.03858676429293536,-0.25093619019479646,-1.085519572134668,0.0050679158015081716,-0.030772899590528535,-0.13839640622949823,0,70,255.0,255.0,255.0
191,9.55,3.100435632601862,2.350014689971059,-7.816748135868694,0.038837729630835816,-0.25247689885708935,-1.0923890976965407,0.004970697714509874,-0.03085544690118587,-0.13638461624540701,0,70,255.0,255.0,255.0
192,9.600000000000001,3.102383691948011,2.3373522413248646,-7.871537233278002,0.039083834064386355,-0.2540217348849151,-1.0991580337592088,0.004873479627511576,-0.030937994211843203,-0.13437282626131578,0,70,255.0,255.0,255.0
193,9.65,3.1043439349932282,2.3246124476931422,-7.926662262752962,0.03932507759358697,-0.25557069827827367,-1.1058263803226722,0.004776261540513282,-0.031020541522500535,-0.13236103627722462,0,70,255.0,255.0,255.0
194,9.700000000000001,3.1063161186922974,2.3117951027076127,-7.982118194818615,0.03956146021843768,-0.25712378903716515,-1.1123941373869313,0.004679043453514984,-0.031103088833157867,-0.1303492462931334,0,70,255.0,255.0,255.0
195,9.75,3.1083,2.2989,-8.0379,0.03979298193893847,-0.25868100716158937,-1.1188613049519853,0.004581825366516468,-0.031185636143813866,-0.12833745630903337,0,70,255.0,255.0,255.0
196,9.8,3.1102954449584352,2.2859273260201,-8.094002480094005,0.04002618799409393,-0.2602187835672323,-1.1252177593285633,0.0047464168397019085,-0.030325420081902785,-0.12592071875408092,0,70,255.0,255.0,255.0
197,9.850000000000001,3.11230275595897,2.2728788384899947,-8.150419761984896,0.040267623622908665,-0.26171354916977974,-1.1314533768273936,0.0049110083128873485,-0.029465204019991708,-0.12350398119912846,0,70,255.0,255.0,255.0
198,9.9,3.114322344480287,2.25975668794984,-8.207145803828782,0.04051728882538266,-0.26316530396923143,-1.137568157448476,0.005075599786072783,-0.02860498795808066,-0.1210872436441761,0,70,255.0,255.0,255.0
199,9.950000000000001,3.1163546220010696,2.2465630249397903,-8.264174563781781,0.04077518360151594,-0.26457404796558776,-1.1435621011918113,0.005240191259258223,-0.027744771896169577,-0.11867050608922364,0,70,255.0,255.0,255.0
200,10.0,3.1184,2.2333,-8.3215,0.04104130795130848,-0.2659397811588484,-1.1494352080573986,0.005404782732443658,-0.026884555834259416,-0.1162537685342766,0,70,255.0,255.0,255.0
201,10.05,3.120458587564395,2.2199696059485405,-8.37911634375529,0.041297518392787086,-0.2672719668739857,-1.15520386498921,0.004843634926700327,-0.026402872771229716,-0.11449250873817467,0,70,255.0,255.0,255.0
202,10.100000000000001,3.1225292842161076,2.2065732047151534,-8.437018918782426,0.04152567144397852,-0.2685800684359714,-1.1608844589312162,0.004282487120956997,-0.025921189708200017,-0.11273124894207273,0,70,255.0,255.0,255.0
203,10.15,3.1246106870856214,2.193112000507496,-8.495203321931916,0.04172576710488279,-0.26986408584480565,-1.1664769898834173,0.0037213393152136856,-0.025439506645170338,-0.11096998914597087,0,70,255.0,255.0,255.0
204,10.200000000000001,3.1267013933034242,2.1795871975332255,-8.55366515005427,0.04189780537549989,-0.27112401910048844,-1.1719814578458132,0.003160191509470355,-0.02495782358214064,-0.10920872934986892,0,70,255.0,255.0,255.0
205,10.25,3.1288,2.166,-8.6124,0.04204178625582982,-0.27235986820301966,-1.1773978628184043,0.002599043703726933,-0.024476140519109624,-0.10744746955377238,0,70,255.0,255.0,255.0
206,10.3,3.130905404783984,2.152351850185736,-8.671403344884837,0.042175738434760766,-0.27355734893682615,-1.1827187807145785,0.002759043453510803,-0.023423088833148926,-0.10538924629318697,0,70,255.0,255.0,255.0
207,10.350000000000001,3.133017707176601,2.1386451426493887,-8.730670162885408,0.0423176906011809,-0.2747021770863346,-1.1879367874477231,0.0029190432032946733,-0.02237003714718823,-0.10333102303260157,0,70,255.0,255.0,255.0
208,10.4,3.1351373071772266,2.124882510020174,-8.790195308443558,0.04246764275509023,-0.27579435265154495,-1.1930518830178385,0.003079042953078538,-0.02131698546122757,-0.10127279977201623,0,70,255.0,255.0,255.0
209,10.450000000000001,3.137264604785235,2.1110665849273063,-8.849973636001142,0.04262559489648876,-0.2768338756324573,-1.1980640674249248,0.003239042702862408,-0.020263933775266873,-0.09921457651143081,0,70,255.0,255.0,255.0
210,10.5,3.1394,2.0972,-8.91,0.042791547025376464,-0.2778207460290716,-1.2029733406689815,0.003399042452646106,-0.01921088208930577,-0.09715635325084904,0,70,255.0,255.0,255.0
211,10.55,3.141543793299671,2.083284593308515,-8.970268676705363,0.04295952786817376,-0.2788026373787087,-1.207745012152483,0.0033201912592456294,-0.02006477189617969,-0.09371050608921716,0,70,255.0,255.0,255.0
212,10.600000000000001,3.14369588707749,2.0693190246872897,-9.030771629675948,0.04312356615130103,-0.2798272232186896,-1.2123443912779035,0.003241340065845153,-0.02091866170305361,-0.09026465892758527,0,70,255.0,255.0,255.0
213,10.65,3.1458560842054735,2.0553011594118074,-9.091500244293853,0.043283661874758274,-0.28089450354901413,-1.2167714780452417,0.003162488872444679,-0.0217725515099275,-0.08681881176595352,0,70,255.0,255.0,255.0
214,10.700000000000001,3.1480241875556376,2.041228862757549,-9.152445905941171,0.0434398150385455,-0.28200447836968234,-1.2210262724544987,0.0030836376790442026,-0.022626441316801423,-0.08337296460432164,0,70,255.0,255.0,255.0
215,10.75,3.1502,2.0271,-9.2136,0.04359202564266269,-0.28315714768069417,-1.2251087745056741,0.003004786485643396,-0.023480331123675757,-0.0799271174426952,0,70,255.0,255.0,255.0
216,10.8,3.152383422017334,2.0129137765802025,-9.274954748293716,0.04374615009254075,-0.2842721015483395,-1.2290691706754875,0.0031601915094787514,-0.021117823582136507,-0.07848872934984177,0,70,255.0,255.0,255.0
217,10.850000000000001,3.1545747445134404,1.9986747586014502,-9.336505718410805,0.04390804479361057,-0.2852689300389078,-1.2329576474406585,0.003315596533314107,-0.01875531604059726,-0.07705034125698833,0,70,255.0,255.0,255.0
218,10.9,3.156774356000881,1.9843888523325968,-9.398249314381037,0.044077709745872155,-0.2861476331523992,-1.2367742048011865,0.003471001557149457,-0.016392808499058092,-0.07561195316413495,0,70,255.0,255.0,255.0
219,10.950000000000001,3.1589826449922143,1.970061964042495,-9.46018194023418,0.04425514494932552,-0.28690821088881363,-1.2405188427570717,0.0036264065809848123,-0.014030300957518843,-0.07417356507128152,0,70,255.0,255.0,255.0
220,11.0,3.1612,1.9557,-9.5223,0.04444035040397063,-0.28755066324815115,-1.2441915613083143,0.0037818116048199957,-0.011667793415979233,-0.07273517697841925,0,70,255.0,255.0,255.0
221,11.05,3.1634265186309953,1.9413075003706723,-9.584599530119778,0.04461587176166291,-0.2881569564279323,-1.2477703051455613,0.003239042702870857,-0.012583933775266778,-0.07041457651146171,0,70,255.0,255.0,255.0
222,11.100000000000001,3.1656611348687482,1.926883540906907,-9.647075096680833,0.04476425467425772,-0.28880905662567785,-1.2512330189594605,0.002696273800921718,-0.013500074134554322,-0.06809397604450418,0,70,255.0,255.0,255.0
223,11.15,3.167902491791003,1.9124258312578055,-9.709720898182,0.044885499141755075,-0.28950696384138774,-1.2545797027500118,0.0021535048989725983,-0.014416214493841834,-0.06577337557754673,0,70,255.0,255.0,255.0
224,11.200000000000001,3.1701492324755054,1.8979320810724687,-9.772531133122113,0.04497960516415498,-0.290250678075062,-1.2578103565172154,0.0016107359970234597,-0.015332354853129379,-0.0634527751105892,0,70,255.0,255.0,255.0
225,11.25,3.1724,1.8834,-9.8355,0.04504657274145742,-0.29104019932670067,-1.2609249802610707,0.0010679670950742293,-0.01624849521241778,-0.06113217464362464,0,70,255.0,255.0,255.0
226,11.3,3.1746537034586852,1.8688282219371057,-9.898621531227175,0.04510236286081007,-0.29182007273993116,-1.263913608742269,0.001163637679031483,-0.014946441316802587,-0.058412964604313763,0,70,255.0,255.0,255.0
227,11.350000000000001,3.176910316011568,1.8542190777709195,-9.961889094865862,0.045162936509360575,-0.29253484345838093,-1.2667662767215022,0.001259308262988737,-0.013644387421187395,-0.05569375456500288,0,70,255.0,255.0,255.0
228,11.4,3.1791700768351077,1.8395758226361807,-10.02529589289096,0.045228293687108935,-0.29318451148204994,-1.2694829841987694,0.0013549788469459875,-0.01234233352557225,-0.052974544525692106,0,70,255.0,255.0,255.0
229,11.450000000000001,3.1814332251057653,1.8249017116676276,-10.08883512727737,0.045298434394055176,-0.29376907681093817,-1.2720637311740712,0.001450649430903241,-0.011040279629957055,-0.050255334486381226,0,70,255.0,255.0,255.0
230,11.5,3.1837,1.8102,-10.1525,0.04537335863019926,-0.2942885394450456,-1.2745085176474078,0.0015463200148603806,-0.00973822573434191,-0.04753612444707578,0,70,255.0,255.0,255.0
231,11.55,3.1859706675342645,1.7954732118809031,-10.216283944971522,0.0454546767950955,-0.29478675261234216,-1.2768312598853668,0.0017064065809891638,-0.010190300957519233,-0.04537356507127829,0,70,255.0,255.0,255.0
232,11.600000000000001,3.1882456010849816,1.7807209480094128,-10.280181323855725,0.045543999288298186,-0.29530756954079757,-1.2790458741545356,0.001866493147117947,-0.010642376180696557,-0.0432110056954808,0,70,255.0,255.0,255.0
233,11.65,3.1905252008685663,1.7659420781974708,-10.344186730254162,0.0456413261098073,-0.2958509902304118,-1.2811523604549147,0.0020265797132467244,-0.011094451403873865,-0.04104844631968339,0,70,255.0,255.0,255.0
234,11.700000000000001,3.1928098671014338,1.751135472257019,-10.408294757768404,0.045746657259622854,-0.296417014681185,-1.283150718786504,0.002186666279375508,-0.011546526627051188,-0.0388858869438859,0,70,255.0,255.0,255.0
235,11.75,3.1951,1.7363,-10.4725,0.04585999273774484,-0.29700564289311693,-1.2850409491493036,0.0023467528455040076,-0.011998601850228496,-0.03672332756809027,0,70,255.0,255.0,255.0
236,11.8,3.197395626404257,1.7214357305392798,-10.536797088886734,0.04595892995880802,-0.2975449168107009,-1.2868253517162704,0.0016107359970233609,-0.009572354853130315,-0.03465277511058386,0,70,255.0,255.0,255.0
237,11.850000000000001,3.1996952796485068,1.706547530191427,-10.601180809711249,0.046021066337447174,-0.29796287837843,-1.288506226660362,0.0008747191485427143,-0.007146107856032133,-0.03258222265307745,0,70,255.0,255.0,255.0
238,11.9,3.201997119690628,1.6916414645739344,-10.66564598609239,0.046046401873662296,-0.29825952759630414,-1.2900835739815781,0.00013870230006209376,-0.004719860858934038,-0.030511670195571113,0,70,255.0,255.0,255.0
239,11.950000000000001,3.2042993064884993,1.6767235993042942,-10.730187441649026,0.04603493656745338,-0.2984348644643234,-1.291557393679919,-0.000597314548418553,-0.002293613861835856,-0.0284411177380647,0,70,255.0,255.0,255.0
240,12.0,3.2066,1.6618,-10.7948,0.04598667041882044,-0.29848888898248777,-1.2929276857553849,-0.0013333313968992289,0.0001326331352609067,-0.026370565280553038,0,70,255.0,255.0,255.0
241,12.05,3.2088980268487064,1.6468750659619755,-10.859478099481539,0.045941603369670646,-0.2985215801448551,-1.294171333249558,-0.0004693505690922516,-0.0014402796299541666,-0.023375334486375323,0,70,255.0,255.0,255.0
242,12.100000000000001,3.21119488032099,1.6319465312248764,-10.924214637299297,0.04593973536191121,-0.2986329169454832,-1.2952652192040224,0.0003946302587147256,-0.00301319239516924,-0.02038010369219761,0,70,255.0,255.0,255.0
243,12.15,3.213492720368921,1.61701046350679,-10.98900212537628,0.04598106639554212,-0.298822899384372,-1.2962093436187778,0.001258611086521672,-0.004586105160384257,-0.01738487289802,0,70,255.0,255.0,255.0
244,12.200000000000001,3.215793706944568,1.6020629305258016,-11.053833075635513,0.04606559647056338,-0.2990915274615216,-1.2970037064938245,0.0021225919143286493,-0.006159017925599331,-0.014389642103842285,0,70,255.0,255.0,255.0
245,12.25,3.2181,1.5871,-11.1187,0.04619332558697498,-0.29943880117693195,-1.297648307829162,0.002986572742135596,-0.007731930690815236,-0.01139441130965757,0,70,255.0,255.0,255.0
246,12.3,3.220413066200917,1.5721192056128162,-11.18359611318711,0.04632265656251255,-0.2997767626098786,-1.2981853152855007,0.002186666279366833,-0.005786526627051874,-0.01008588694388484,0,70,255.0,255.0,255.0
247,12.350000000000001,3.222731599067532,1.5571239449090648,-11.24851744109158,0.04641199221491167,-0.3000174538396371,-1.2986568965235505,0.0013867598165980704,-0.003841122563288513,-0.008777362578112109,0,70,255.0,255.0,255.0
248,12.4,3.2250535988336893,1.5421190813989056,-11.313460712402494,0.046461332544172354,-0.30016087486620746,-1.299063051543312,0.0005868533538293361,-0.00189571849952522,-0.007468838212339426,0,70,255.0,255.0,255.0
249,12.450000000000001,3.227377065733231,1.5271094785924975,-11.37842265580894,0.0464706775502946,-0.3002070256895896,-1.2994037803447844,-0.00021305310893942643,4.9685564238141286e-05,-0.006160313846566695,0,70,255.0,255.0,255.0
250,12.5,3.2297,1.5121,-11.4434,0.04644002723327841,-0.3001559063097836,-1.2996790829279683,-0.0010129595717082718,0.0019950896280027663,-0.004851789480785129,0,70,255.0,255.0,255.0
251,12.55,3.2320209083476255,1.4970945115867582,-11.508388647770024,0.04639977038027524,-0.30006736941562945,-1.2998394056084392,-0.0005973145484186311,0.0015463861381633075,-0.001561117738057003,0,70,255.0,255.0,255.0
252,12.600000000000001,3.2343403234088806,1.4820928891388618,-11.573381198334394,0.046380295778436546,-0.30000126769596724,-1.2998351947017739,-0.0001816695251289905,0.0010976826483238484,0.0017295540046711232,0,70,255.0,255.0,255.0
253,12.65,3.236659284296322,1.4670940108975867,-11.63836942501375,0.04638160342776234,-0.2999576011507971,-1.2996664502079724,0.00023397549816063534,0.0006489791584844053,0.005020225747399134,0,70,255.0,255.0,255.0
254,12.700000000000001,3.238978830122509,1.4520967551042074,-11.703345101128738,0.046403693328252615,-0.29993636978011884,-1.299333172127034,0.0006496205214502758,0.00020027566864494624,0.00831089749012726,0,70,255.0,255.0,255.0
255,12.75,3.2413,1.4371,-11.7683,0.046446565479907366,-0.2999375735839326,-1.2988353604589595,0.0010652655447396797,-0.00024842782119183227,0.011601569232858822,0,70,255.0,255.0,255.0
256,12.8,3.24362330040858,1.4221035480401498,-11.833226895732798,0.0464782619163844,-0.2999057597276024,-1.2982330622807339,0.00020259191434155333,0.0015209820744003263,0.012490357896165717,0,70,255.0,255.0,255.0
257,12.850000000000001,3.2459471072969466,1.4071108985354857,-11.898122565570855,0.04646682467134152,-0.2997854753764925,-1.2975863246693429,-0.0006600817160565731,0.003290391969992485,0.013379146559472612,0,70,255.0,255.0,255.0
258,12.9,3.2482692639810224,1.3921264750107472,-11.962984787542512,0.04641225374477874,-0.29957672053060314,-1.2968951476247867,-0.001522755346454669,0.005059801865584581,0.014267935222779478,0,70,255.0,255.0,255.0
259,12.950000000000001,3.250587613776732,1.377154700990672,-12.027811339676115,0.046314549136696054,-0.2992794951899341,-1.296159531147065,-0.0023854289768527955,0.006829211761176739,0.015156723886086373,0,70,255.0,255.0,255.0
260,13.0,3.2529,1.3622,-12.0926,0.046173710847093465,-0.2988937993544854,-1.295379475236178,-0.003248102607251113,0.008598621656771055,0.016045512549400343,0,70,255.0,255.0,255.0
261,13.05,3.255205090018053,1.3472656962526413,-12.157346969298787,0.046039181954188595,-0.29848559167396016,-1.2944603452686079,-0.002133053108943534,0.00772968556423813,0.020719686153411555,0,70,255.0,255.0,255.0
262,13.100000000000001,3.257504847403334,1.3323507167191933,-12.222042139382191,0.04596040553619911,-0.29812083079806156,-1.2933075066208368,-0.0010180036106359554,0.0068607494717052055,0.025393859757422765,0,70,255.0,255.0,255.0
263,13.15,3.259802059779588,1.3174528890594248,-12.286673824816202,0.045937381593125,-0.29779951672678967,-1.2919209592928655,9.704588767158427e-05,0.005991813379172311,0.03006803336143381,0,70,255.0,255.0,255.0
264,13.200000000000001,3.2620995147705614,1.302570040933104,-12.351230340166808,0.04597011012496627,-0.29752164946014437,-1.2903007032846934,0.0012120953859791634,0.0051228772866393855,0.03474220696544502,0,70,255.0,255.0,255.0
265,13.25,3.2644,1.2877,-12.4157,0.046058591131722906,-0.2972872289981257,-1.288446738596321,0.002327144884286314,0.00425394119410738,0.03941638056945962,0,70,255.0,255.0,255.0
266,13.3,3.2667051395192073,1.2728416669492841,-12.480073227072054,0.04613301026686611,-0.29703187357655686,-1.2864855566448312,0.0006496205214415502,0.005960275668645322,0.03903089749012522,0,70,255.0,255.0,255.0
267,13.350000000000001,3.2690119030897176,1.2579982345877392,-12.544348876900385,0.04612355318386706,-0.2966912014312612,-1.2845436488473085,-0.0010279038414032137,0.007666610143183265,0.03864541441079082,0,70,255.0,255.0,255.0
268,13.4,3.271316096900625,1.2431739687515535,-12.608527913192685,0.046030219882725786,-0.29626521256223853,-1.2826210152037523,-0.0027054282042479182,0.009372944617721146,0.03825993133145644,0,70,255.0,255.0,255.0
269,13.450000000000001,3.273613527141021,1.2283731352769112,-12.672611299656658,0.04585301036344227,-0.29575390696948906,-1.2807176557141626,-0.004382952567092682,0.01107927909225909,0.037874448252122044,0,70,255.0,255.0,255.0
270,13.5,3.2759,1.2136,-12.7366,0.04559192462601652,-0.29515728465301266,-1.27883357037854,-0.006060476929937386,0.012785613566796972,0.03748896517278766,0,70,255.0,255.0,255.0
271,13.55,3.278172751905119,1.198858035950222,-12.800492922412998,0.045332776978346666,-0.29452291401981323,-1.276845428152068,-0.004305428976856815,0.012589211761181305,0.04203672388609411,0,70,255.0,255.0,255.0
272,13.600000000000001,3.280434740237796,1.184147544929847,-12.864280753016281,0.04516138172833084,-0.2938983634768945,-1.2746298979899306,-0.0025503810237762436,0.012392809955565636,0.046584482599400574,0,70,255.0,255.0,255.0
273,13.65,3.2826903526179128,1.1694680359343612,-12.927952122413062,0.04507773887596904,-0.29328363302425664,-1.272186979892128,-0.0007953330706957345,0.012196408149949977,0.05113224131270687,0,70,255.0,255.0,255.0
274,13.700000000000001,3.284943976665353,1.1548190179592501,-12.991495661206566,0.04508184842126127,-0.29267872266189954,-1.2695166738586598,0.0009597148823848366,0.012000006344334308,0.05568000002601333,0,70,255.0,255.0,255.0
275,13.75,3.2872,1.1402,-13.0549,0.04517371036420752,-0.29208363238982327,-1.2666189798895269,0.0027147628354652342,0.011803604538718204,0.0602277587393214,0,70,255.0,255.0,255.0
276,13.8,3.2894614528603174,1.1256109892498272,-13.118155083275958,0.04527188181974405,-0.2914684703441893,-1.2635727307469073,0.001212095385995938,0.012802877286639017,0.0616222069654537,0,70,255.0,255.0,255.0
277,13.850000000000001,3.2917259359591005,1.1110539856928707,-13.181256111034504,0.04529491990280711,-0.29080334466115937,-1.2604567591929814,-0.0002905720634733583,0.01380215003455983,0.063016655191586,0,70,255.0,255.0,255.0
278,13.9,3.2939896926277235,1.0965314875110013,-13.244199597155069,0.045242824613396716,-0.29008825534073335,-1.257271065227749,-0.001793239512942601,0.014801422782480606,0.06441110341771826,0,70,255.0,255.0,255.0
279,13.950000000000001,3.296248966197565,1.0820459928860875,-13.306982055517091,0.045115595951512856,-0.2893232023829113,-1.2540156488512095,-0.003295906962411897,0.01580069553040142,0.06580555164385056,0,70,255.0,255.0,255.0
280,14.0,3.2985,1.0676,-13.3696,0.04491323391715553,-0.28850818578769327,-1.2506905100633636,-0.004798574411881251,0.01679996827832353,0.0671999998699917,0,70,255.0,255.0,255.0
281,14.05,3.3007398366536123,1.0531956070504689,-13.432049944483172,0.04468369574268097,-0.2876672046034288,-1.24729564886031,-0.004382952567101189,0.016839279092255046,0.06859444825215492,0,70,255.0,255.0,255.0
282,14.100000000000001,3.3029687159258057,1.0388333122986684,-13.494328402845714,0.0444749386604454,-0.28682425787846777,-1.243831065238148,-0.003967330722321126,0.01687858990618656,0.06998889663431815,0,70,255.0,255.0,255.0
283,14.15,3.3051876768711934,1.024513214021634,-13.556431888966667,0.04428696267044885,-0.28597934561281013,-1.240296759196878,-0.003551708877541079,0.016917900720118072,0.07138334501648133,0,70,255.0,255.0,255.0
284,14.200000000000001,3.3073977585443877,1.010235410496399,-13.618356916725084,0.0441197677726913,-0.2851324678064559,-1.2366927307364999,-0.003136087032761017,0.01695721153404959,0.07277779339864456,0,70,255.0,255.0,255.0
285,14.25,3.3096,0.996,-13.6801,0.04397335396717275,-0.2842836244594052,-1.2330189798570137,-0.0027204651879810804,0.01699652234798199,0.07417224178080772,0,70,255.0,255.0,255.0
286,14.3,3.3117952005252365,0.9818073825482962,-13.741656338791355,0.043833335209532635,-0.2834147112420972,-1.2291966738118436,-0.0028802851176233735,0.0177600063443376,0.07872000002599157,0,70,255.0,255.0,255.0
287,14.350000000000001,3.313983200337679,0.9676591651124535,-13.803015877582649,0.04368532545541041,-0.2825076238249714,-1.2251469798544146,-0.0030401050472656666,0.018523490340693203,0.08326775827117543,0,70,255.0,255.0,255.0
288,14.4,3.3161635998875023,0.953557256402463,-13.86416724697826,0.04352932470480607,-0.2815623622080279,-1.2208698979847261,-0.003199924976907954,0.019286974337048783,0.08781551651635912,0,70,255.0,255.0,255.0
289,14.450000000000001,3.3183359996248845,0.9395035651283145,-13.925099077582583,0.04336533295771961,-0.2805789263912665,-1.2163654282027787,-0.003359744906550247,0.02005045833340439,0.09236327476154296,0,70,255.0,255.0,255.0
290,14.5,3.3205,0.9255,-13.9858,0.04319335021415105,-0.27955731637468745,-1.2116335705085717,-0.0035195648361926457,0.020813942329758195,0.09691103300673198,0,70,255.0,255.0,255.0
291,14.55,3.322655361245443,0.9115484627563445,-14.046260700351406,0.04302296341918615,-0.2784979504281834,-1.2067976558923077,-0.003295906962403402,0.021560695530402286,0.09652555164381872,0,70,255.0,255.0,255.0
292,14.600000000000001,3.3248024827234803,0.8976508272515151,-14.106480086823701,0.0428637595179107,-0.2774012468216472,-1.2019810153441897,-0.0030722490886141585,0.022307448731046373,0.09614007028090546,0,70,255.0,255.0,255.0
293,14.65,3.3269419235787954,0.8838089603685139,-14.166459123120292,0.04271573851032473,-0.2762672055550788,-1.1971836488642174,-0.002848591214824923,0.023054201931690436,0.09575458891799223,0,70,255.0,255.0,255.0
294,14.700000000000001,3.3290742429560742,0.8700247289903411,-14.22619877294459,0.04257890039642821,-0.2750958266284782,-1.1924055564523905,-0.00262493334103568,0.023800955132334527,0.09536910755507896,0,70,255.0,255.0,255.0
295,14.75,3.3312,0.8563,-14.2857,0.04245324517622116,-0.2738871100418454,-1.1876467381087092,-0.0024012754672463332,0.024547708332978146,0.09498362619216749,0,70,255.0,255.0,255.0
296,14.8,3.3333193544929918,0.8426363664263242,-14.344961659803026,0.04231481111372098,-0.27265748704516973,-1.1827807026189379,-0.003136087032761014,0.024637211534049543,0.09965779339868283,0,70,255.0,255.0,255.0
297,14.850000000000001,3.335430868768401,0.8290343258814835,-14.403974175122558,0.04213963647294506,-0.2714233888884404,-1.1776809587688408,-0.003870898598275695,0.02472671473512094,0.10433196060519818,0,70,255.0,255.0,255.0
298,14.9,3.3375327057973143,0.8154941021234811,-14.462725860540571,0.04192772125389341,-0.27018481557165763,-1.1723475065584181,-0.004605710163790349,0.02481621793619233,0.10900612781171336,0,70,255.0,255.0,255.0
299,14.950000000000001,3.339623028550819,0.8020159189103188,-14.521205030639061,0.04167906545656602,-0.2689417670948212,-1.1667803459876696,-0.00534052172930503,0.024905721137263727,0.11368029501822871,0,70,255.0,255.0,255.0
300,15.0,3.3417,0.7886,-14.5794,0.04139366908096292,-0.2676942434579312,-1.1609794770565953,-0.00607533329481974,0.024995224338336453,0.11835446222475099,0,70,255.0,255.0,255.0
301,15.05,3.3437624207825913,0.7752468715383574,-14.637300660436493,0.041109792125928774,-0.26642410139113765,-1.1550395336319375,-0.00527974490654588,0.02581045833340553,0.11924327476155414,0,70,255.0,255.0,255.0
302,15.100000000000001,3.345811642202916,0.7619582692225484,-14.694903212686082,0.040865694590308324,-0.2651131976245906,-1.1490551495804397,-0.0044841565182720195,0.026625692328474605,0.12013208729835727,0,70,255.0,255.0,255.0
303,15.15,3.3478496532319455,0.7487362311375609,-14.752205434717423,0.04066137647410157,-0.2637615321582901,-1.143026324902102,-0.0036885681299981877,0.02744092632354365,0.12102089983516039,0,70,255.0,255.0,255.0
304,15.200000000000001,3.34987844284065,0.735582795368382,-14.809205104499178,0.04049683777730851,-0.2623691049922362,-1.1369530595969237,-0.0028929797417243273,0.02825616031861273,0.12190971237196353,0,70,255.0,255.0,255.0
305,15.25,3.3519,0.7225,-14.8659,0.04037207849992914,-0.26093591612642897,-1.1308353536649054,-0.002097391353450606,0.02907139431368133,0.12279852490877197,0,70,255.0,255.0,255.0
306,15.3,3.353915762376643,0.709489747420245,-14.922286898451008,0.040254020382566764,-0.2594701073902786,-1.12461316285331,-0.0026249333410442075,0.029560955132331132,0.12608910755504293,0,70,255.0,255.0,255.0
307,15.350000000000001,3.355924962419934,0.6965533972283207,-14.978358574133127,0.04010958516582472,-0.2579798206131958,-1.1182264429094009,-0.003152475328637809,0.03005051595098093,0.12937969020131393,0,70,255.0,255.0,255.0
308,15.4,3.357926281274903,0.6836921733262743,-15.034106800589742,0.03993877284970299,-0.25646505579518053,-1.1116751938331786,-0.0036800173162313916,0.030540076769630713,0.13267027284758479,0,70,255.0,255.0,255.0
309,15.450000000000001,3.3599184000865807,0.6709072996161516,-15.089523351364239,0.039741583434201574,-0.2549258129362328,-1.1049594156246425,-0.0042075593038249925,0.03102963758828051,0.13596085549385578,0,70,255.0,255.0,255.0
310,15.5,3.3619,0.6582,-15.1446,0.039518016919320484,-0.25336209203635257,-1.098079108283793,-0.004735101291418853,0.03151919840692896,0.13925143814012664,0,70,255.0,255.0,255.0
311,15.55,3.363869729710836,0.6455717387806619,-15.199329345759482,0.03926612634380238,-0.2517594690477477,-1.0910838149548332,-0.005340521729305068,0.03258572113726352,0.14056029501827008,0,70,255.0,255.0,255.0
312,15.600000000000001,3.3658261081173486,0.6330249418641668,-15.25370729078142,0.03898396474638997,-0.25010351992262614,-1.0840230787819658,-0.005945942167191283,0.033652243867598075,0.1418691518964135,0,70,255.0,255.0,255.0
313,15.65,3.367767621668443,0.6205622755573412,-15.307730562923615,0.038671532127083255,-0.24839424466098795,-1.0768968997651918,-0.006551362605077475,0.03471876659793259,0.1431780087745569,0,70,255.0,255.0,255.0
314,15.700000000000001,3.3696927568130253,0.6081864061670101,-15.361395890043873,0.038328828485882226,-0.24663164326283293,-1.0697052779045102,-0.00715678304296369,0.03578528932826715,0.14448686565270033,0,70,255.0,255.0,255.0
315,15.75,3.3716,0.5959,-15.4147,0.03795585382278689,-0.24481571572816127,-1.0624482131999218,-0.007762203480849772,0.036851812058601885,0.14579572253085082,0,70,255.0,255.0,255.0
316,15.8,3.3734885187800128,0.5837048974571067,-15.467638918511065,0.03759347424222276,-0.24299601641873078,-1.055083577327351,-0.006732979741715325,0.03593616031861616,0.14878971237197516,0,70,255.0,255.0,255.0
317,15.850000000000001,3.3753602051106717,0.5715996353150099,-15.520205862741202,0.037282555848615354,-0.24122209969629962,-1.047569241962724,-0.005703756002580877,0.035020508578630434,0.15178370221309948,0,70,255.0,255.0,255.0
318,15.9,3.377217632051323,0.5595819244443602,-15.572393347715805,0.037023098641964666,-0.23949396556086774,-1.039905207106041,-0.004674532263446466,0.03410485683864474,0.1547776920542237,0,70,255.0,255.0,255.0
319,15.950000000000001,3.3790633726613173,0.5476494757158066,-15.624193888460272,0.0368151026222707,-0.23781161401243514,-1.0320914727573018,-0.003645308524312019,0.03318920509865902,0.15777168189534804,0,70,255.0,255.0,255.0
320,16.0,3.3809,0.5358,-15.6756,0.03665856778953347,-0.2361750450510019,-1.0241280389165062,-0.00261608478517783,0.03227355335867266,0.16076567173647405,0,70,255.0,255.0,255.0
321,16.05,3.382728995169112,0.5240326713909105,-15.726604580196256,0.036487976687308174,-0.23449646527732812,-1.0160378757357496,-0.004207559303833786,0.034869637588277005,0.16284085549379132,0,70,255.0,255.0,255.0
322,16.1,3.3845474714399653,0.5123525168757915,-15.777202058253778,0.036237811859150086,-0.23268808129217414,-1.0078439533671268,-0.0057990338224897416,0.03746572181788135,0.16491603925110856,0,70,255.0,255.0,255.0
323,16.150000000000002,3.386351450126262,0.5007660266652174,-15.82738724621317,0.03590807330505919,-0.23074989309553995,-0.9995462718106384,-0.007390508341145697,0.0400618060474857,0.16699122300842584,0,70,255.0,255.0,255.0
324,16.2,3.3881369525417058,0.4892796909697627,-15.877154956115042,0.03549876102503554,-0.22868190068742567,-0.9911448310662846,-0.00898198285980154,0.04265789027708987,0.16906640676574294,0,70,255.0,255.0,255.0
325,16.25,3.3899,0.4779,-15.9265,0.035009875019079054,-0.22648410406783104,-0.9826396311340644,-0.010573457378457385,0.04525397450669555,0.17114159052306022,0,70,255.0,255.0,255.0
326,16.3,3.391637900543537,0.46663161697925065,-15.975417160703913,0.03451861900854363,-0.22426612247195696,-0.9740289197296684,-0.009076783042959048,0.043465289328266876,0.17328686565277213,0,70,255.0,255.0,255.0
327,16.35,3.3933531091294675,0.45547189718182196,-16.02390110424369,0.03410219671478314,-0.2221375751350043,-0.9653109445687869,-0.00758010870746071,0.041676604149838196,0.17543214078248404,0,70,255.0,255.0,255.0
328,16.400000000000002,3.3950493674436286,0.44441636889476793,-16.07194646743152,0.033760608137797556,-0.22009846205697306,-0.9564857056514198,-0.006083434371962374,0.039887918971409524,0.17757741591219595,0,70,255.0,255.0,255.0
329,16.45,3.39673041717186,0.4334605604051431,-16.11954788707956,0.03349385327758691,-0.2181487832378634,-0.9475532029775677,-0.004586760036464143,0.03809923379298097,0.1797226910419077,0,70,255.0,255.0,255.0
330,16.5,3.3984,0.4226,-16.1667,0.03330193213415116,-0.21628853867767503,-0.9385134365472293,-0.003090085700965639,0.03631054861455474,0.18186796617162582,0,70,255.0,255.0,255.0
331,16.55,3.4000610026567384,0.411832060692086,-16.213397176988096,0.033133547278519214,-0.21440704483484455,-0.9293504453455546,-0.0036453085243121266,0.03894920509866288,0.18465168189535733,0,70,255.0,255.0,255.0
332,16.6,3.4017128920421658,0.40116149439691867,-16.25963272477145,0.032937401281719944,-0.2123936181678087,-0.9200482683576933,-0.004200531347658614,0.04158786158277102,0.1874353976190888,0,70,255.0,255.0,255.0
333,16.650000000000002,3.4033542800992245,0.3905948977557082,-16.305399684060763,0.03271349414375335,-0.2102482586765674,-0.9106069055836454,-0.004755754171005102,0.04422651806687916,0.19021911334282032,0,70,255.0,255.0,255.0
334,16.7,3.404983778770855,0.3801388674096658,-16.350691095566713,0.032461825864619445,-0.2079709663611209,-0.9010263570234117,-0.005310976994351549,0.04686517455098711,0.1930028290665516,0,70,255.0,255.0,255.0
335,16.75,3.4066,0.3698,-16.3955,0.03218239644431821,-0.20556174122146875,-0.8913066226769906,-0.005866199817698037,0.04950383103509681,0.19578654479028934,0,70,255.0,255.0,255.0
336,16.8,3.4082012888295097,0.35958334025240446,-16.439819731343704,0.0318591918773806,-0.20311369818866407,-0.881465298888093,-0.007061982859806077,0.048417890277088725,0.19786640676560838,0,70,255.0,255.0,255.0
337,16.85,3.4097849227018697,0.3494877252305017,-16.483644796670493,0.03147619815833759,-0.2007199521937598,-0.8715199820004295,-0.008257765901914117,0.04733194951908063,0.19994626874092744,0,70,255.0,255.0,255.0
338,16.900000000000002,3.4113479121594747,0.33951044008239656,-16.526969996325434,0.03103341528718918,-0.19838050323675593,-0.861470672014,-0.009453548944022156,0.04624600876107254,0.20202613071624648,0,70,255.0,255.0,255.0
339,16.95,3.41288726774472,0.3296487699561948,-16.569790130653583,0.030530843263935403,-0.19609535131765266,-0.8513173689288053,-0.010649331986130111,0.045160068003064525,0.2041059926915654,0,70,255.0,255.0,255.0
340,17.0,3.4144,0.3199,-16.6121,0.029968482088576186,-0.1938644964364496,-0.8410600727448438,-0.011845115028238096,0.04407412724505688,0.20618585466688266,0,70,255.0,255.0,255.0
341,17.05,3.4158842420252236,0.3102625782982954,-16.653894297637088,0.02941368521195875,-0.19161816241049864,-0.8306923591021205,-0.01034676003645908,0.04577923379298004,0.20852269104204635,0,70,255.0,255.0,255.0
342,17.1,3.4173426171503563,0.30073960468107314,-16.695167288546568,0.028933806084930264,-0.18928657305715152,-0.8202078036406388,-0.008848405044680065,0.04748434034090319,0.21085952741721,0,70,255.0,255.0,255.0
343,17.150000000000002,3.418778871262876,0.2913353419147032,-16.735913130637506,0.02852884470749073,-0.18686972837640825,-0.8096064063603992,-0.00735005005290105,0.049189446888826344,0.2131963637923737,0,70,255.0,255.0,255.0
344,17.2,3.420196750250265,0.28205405276555595,-16.776125981818957,0.02819880107964017,-0.184367628368269,-0.798888167261402,-0.005851695061122141,0.050894553436749375,0.2155332001675372,0,70,255.0,255.0,255.0
345,17.25,3.4216,0.2729,-16.8158,0.027943675201378537,-0.18178027303273342,-0.7880530863436459,-0.004353340069343153,0.05259965998467431,0.21787003654270443,0,70,255.0,255.0,255.0
346,17.3,3.422991343069597,0.26387674655441334,-16.85492947810795,0.02770206727478595,-0.17914965216934176,-0.7771092647034141,-0.005310976994360103,0.05262517455099056,0.21988282906656206,0,70,255.0,255.0,255.0
347,17.35,3.4243694086967085,0.2549850560452041,-16.89350924914324,0.02741257750194252,-0.17651775557763427,-0.7660648034369893,-0.006268613919377053,0.05265068911730682,0.22189562159041967,0,70,255.0,255.0,255.0
348,17.400000000000002,3.4257318027890205,0.24622499225878824,-16.93153428112455,0.027075205882848237,-0.173884583257611,-0.7549197025443718,-0.007226250844394002,0.05267620368362307,0.2239084141142773,0,70,255.0,255.0,255.0
349,17.45,3.427076131254222,0.237596618981582,-16.968999542070573,0.02668995241750314,-0.1712501352092721,-0.7436739620255621,-0.008183887769410883,0.05270171824993932,0.22592120663813478,0,70,255.0,255.0,255.0
350,17.5,3.4284,0.2291,-17.0059,0.02625681710590716,-0.16861441143261716,-0.7323275818805587,-0.00914152469442786,0.052727232816256686,0.22793399916199508,0,70,255.0,255.0,255.0
351,17.55,3.4297015856963893,0.22073523548405052,-17.042230189931104,0.025810045688893307,-0.16597522891213407,-0.7208545820842212,-0.008729331986126037,0.052840068003064865,0.23098599269150194,0,70,255.0,255.0,255.0
352,17.6,3.430981348062813,0.2125025711381087,-17.077982914880483,0.025383883907294544,-0.1633304046323106,-0.7092289826114081,-0.008317139277824214,0.05295290318987305,0.23403798622100877,0,70,255.0,255.0,255.0
353,17.650000000000002,3.432240317581042,0.20440228905014157,-17.113150544864308,0.024978331761110875,-0.1606799385931467,-0.6974507834621199,-0.00790494656952239,0.05306573837668123,0.23708997975051563,0,70,255.0,255.0,255.0
354,17.7,3.4334795247328476,0.1964346713081167,-17.14772544989875,0.02459338925034232,-0.15802383079464258,-0.6855199846363571,-0.007492753861220597,0.05317857356348941,0.24014197328002224,0,70,255.0,255.0,255.0
355,17.75,3.4347,0.1886,-17.1817,0.024229056374988834,-0.15536208123679787,-0.6734365861341182,-0.007080561152918746,0.053291408750298475,0.24319396680953087,0,70,255.0,255.0,255.0
356,17.8,3.4359023141448466,0.18089911150938387,-17.215067362167627,0.02385774996963813,-0.15266143218212164,-0.6612484069596912,-0.0077716950611091224,0.05473455343674931,0.24433320016753993,0,70,255.0,255.0,255.0
357,17.85,3.43708519905204,0.17333505940235966,-17.24782389133484,0.02345188686887791,-0.14988862589312288,-0.6490032661173638,-0.008462828969299499,0.05617769812320014,0.245472433525549,0,70,255.0,255.0,255.0
358,17.900000000000002,3.4382469268868108,0.16591145154064343,-17.27996673941823,0.02301146707270817,-0.14704366236980154,-0.636701163607136,-0.009153962877489876,0.05762084280965098,0.24661166688355807,0,70,255.0,255.0,255.0
359,17.95,3.4393857698143875,0.15863189578595185,-17.311493058334417,0.022536490581128946,-0.1441265416121579,-0.6243420994290085,-0.009845096785680203,0.059063987496101714,0.24775090024156707,0,70,255.0,255.0,255.0
360,18.0,3.4405,0.1515,-17.3424,0.022026957394140168,-0.14113726362019147,-0.6119260735829797,-0.01053623069387058,0.060507132182552326,0.248890133599577,0,70,255.0,255.0,255.0
361,18.05,3.441588357724225,0.14451871847841324,-17.372683561398386,0.021510954432557808,-0.1381150423593791,-0.5993837900770366,-0.010103887769423503,0.060381718249939986,0.2528012066381415,0,70,255.0,255.0,255.0
362,18.1,3.442651455729026,0.13768839125245136,-17.402335119780172,0.021016568617197803,-0.13509909179519738,-0.5866459529191651,-0.009671544844976425,0.06025630431732764,0.256712279676706,0,70,255.0,255.0,255.0
363,18.150000000000002,3.443690374871715,0.13100870478728283,-17.43134489746277,0.020543799948060153,-0.13208941192764626,-0.5737125621093656,-0.009239201920529348,0.0601308903847153,0.2606233527152705,0,70,255.0,255.0,255.0
364,18.2,3.444706196009603,0.1244793455480765,-17.459703116763578,0.02009264842514489,-0.129086002756726,-0.5605836176476386,-0.0088068589960823,0.06000547645210297,0.26453442575383473,0,70,255.0,255.0,255.0
365,18.25,3.4457,0.1181,-17.4874,0.019663114048451943,-0.12608886428243612,-0.5472591195339828,-0.00837451607163528,0.05988006251948996,0.2684454987924001,0,70,255.0,255.0,255.0
366,18.3,3.4466722549582545,0.11187081457696246,-17.514427192238838,0.01921843230013044,-0.1230703983803616,-0.5338244327321702,-0.009412753861224652,0.06085857356348937,0.268941973280093,0,70,255.0,255.0,255.0
367,18.35,3.447620978031855,0.10579377558783366,-17.540782029544477,0.018721838662329463,-0.1200030069260871,-0.5203649222059731,-0.010450991650814024,0.06183708460748878,0.26943844776778597,0,70,255.0,255.0,255.0
368,18.400000000000002,3.448543573626329,0.09987132931022359,-17.566463270730697,0.01817333313504902,-0.11688668991961264,-0.5068805879553913,-0.011489229440403398,0.0628155956514882,0.2699349222554789,0,70,255.0,255.0,255.0
369,18.45,3.449437446147202,0.09410592202174263,-17.59146967461128,0.017572915718289152,-0.11372144736093842,-0.49337142998042577,-0.012527467229992695,0.06379410669548753,0.2704313967431718,0,70,255.0,255.0,255.0
370,18.5,3.4503,0.0885,-17.6158,0.016920586412049778,-0.11050727925006402,-0.47983744828107455,-0.013565705019582153,0.06477261773948706,0.2709278712308656,0,70,255.0,255.0,255.0
371,18.55,3.4511298224427587,0.08305562321373633,-17.639451669646263,0.016287316366918533,-0.10726736411917424,-0.4661984789942651,-0.011765096785667225,0.06482398749610219,0.274630900241505,0,70,255.0,255.0,255.0
372,18.6,3.451930232143553,0.07777330639621294,-17.662416762041918,0.015744076733483037,-0.10402488050045372,-0.4523743582569237,-0.009964488551752297,0.06487535725271731,0.27833392925214445,0,70,255.0,255.0,255.0
373,18.650000000000002,3.4527057306229687,0.07265317797182133,-17.684686019614446,0.01529086751174329,-0.10077982839390243,-0.4383650860690503,-0.00816388031783737,0.06492672700933244,0.28203695826278385,0,70,255.0,255.0,255.0
374,18.7,3.4534608194015894,0.06769536636495341,-17.706250184791315,0.014927688701699311,-0.09753220779952061,-0.4241706624306459,-0.00636327208392257,0.06497809676594757,0.28573998727342304,0,70,255.0,255.0,255.0
375,18.75,3.4542,0.0629,-17.7271,0.01465454030335105,-0.0942820187173078,-0.4097910873417086,-0.004562663850007781,0.0650294665225627,0.2894430162840611,0,70,255.0,255.0,255.0
376,18.8,3.454926055270711,0.058267492568091724,-17.747226929176115,0.014368302232198467,-0.09101214514294112,-0.39526965129076086,-0.006886858996095374,0.0657654764521026,0.29141442575383975,0,70,255.0,255.0,255.0
377,18.85,3.4556348933939316,0.05379939882731371,-17.76662532228785,0.013965854403741502,-0.08770547107209746,-0.38064964476632424,-0.009211054142182967,0.06650148638164248,0.2933858352236184,0,70,255.0,255.0,255.0
378,18.900000000000002,3.4563207038817967,0.0494975588024898,-17.785290250811528,0.013447196817980156,-0.08436199650477678,-0.3659310677683986,-0.01153524928827056,0.06723749631118238,0.295357244693397,0,70,255.0,255.0,255.0
379,18.95,3.4569776762464413,0.045363812518444145,-17.803216786223466,0.01281232947491448,-0.08098172144097937,-0.3511139202969852,-0.013859444434357987,0.06797350624072221,0.2973286541631755,0,70,255.0,255.0,255.0
380,19.0,3.4576,0.0414,-17.8204,0.01206125237454438,-0.07756464588070472,-0.3361982023520817,-0.01618363958044558,0.068709516170262,0.29930006363295414,0,70,255.0,255.0,255.0
381,19.05,3.4581835564743977,0.037608006513896376,-17.836835013649267,0.011295474704283524,-0.07410805530906094,-0.3211869158426784,-0.0144474672299882,0.06955410669548746,0.3011513967431696,0,70,255.0,255.0,255.0
382,19.1,3.45873099428072,0.03398989829453149,-17.852517148806676,0.01061650565154554,-0.07060923521115588,-0.3060830626777643,-0.012711294879530821,0.07039869722071293,0.303002729853385,0,70,255.0,255.0,255.0
383,19.150000000000002,3.4592466538498443,0.030547786818218382,-17.86744177713945,0.010024345216330425,-0.06706818558698954,-0.29088664285733945,-0.010975122529073442,0.0712432877459384,0.30485406296360046,0,70,255.0,255.0,255.0
384,19.200000000000003,3.459734875612645,0.027283783561270127,-17.881604270314817,0.00951899339863818,-0.06348490643656193,-0.2755976563814038,-0.009238950178616062,0.07208787827116385,0.3067053960738159,0,70,255.0,255.0,255.0
385,19.25,3.4602,0.0242,-17.895,0.00910045019846883,-0.0598593977598733,-0.26021610324995853,-0.007502777828158849,0.0729324687963897,0.3085567291840312,0,70,255.0,255.0,255.0
386,19.3,3.4606453188316983,0.021298081376322428,-17.907624216226814,0.008705798950667112,-0.056219633620814814,-0.24473468533852172,-0.008283272083909634,0.07265809676594771,0.31069998727343234,0,70,255.0,255.0,255.0
387,19.35,3.4610699294831866,0.018577807994559735,-17.919471682485444,0.008272122990077855,-0.05259358808327842,-0.22914610452261486,-0.00906376633966042,0.07238372473550574,0.3128432453628335,0,70,255.0,255.0,255.0
388,19.400000000000002,3.4614718807188267,0.016038493924635813,-17.930537040630668,0.007799422316701056,-0.04898126114726414,-0.21345036080223792,-0.009844260595411205,0.07210935270506375,0.3149865034522346,0,70,255.0,255.0,255.0
389,19.450000000000003,3.4618492213029772,0.013679453236474551,-17.94081493251726,0.0072876969305367195,-0.04538265281277195,-0.19764745417739094,-0.010624754851161992,0.07183498067462175,0.31712976154163575,0,70,255.0,255.0,255.0
390,19.5,3.4622,0.0115,-17.9503,0.006736946831584882,-0.04179776307980212,-0.181737384648075,-0.011405249106912728,0.07156060864417951,0.31927301963103827,0,70,255.0,255.0,255.0
391,19.55,3.4625223681988095,0.009500467980813653,-17.958984921443477,0.0061533294930525674,-0.03816541020767952,-0.1656023428032194,-0.011939444434379547,0.07373350624072202,0.3261286541631772,0,70,255.0,255.0,255.0
392,19.6,3.4628148877865326,0.007685269727229112,-17.96685452125154,0.0055430023881469104,-0.034424412455729816,-0.14912451923175682,-0.012473639761846364,0.0759064038372645,0.33298428869531616,0,70,255.0,255.0,255.0
393,19.650000000000002,3.4630762232748515,0.00605983748323774,-17.973891660337873,0.004905965516867913,-0.03057476982395297,-0.13230391393368732,-0.013007835089313182,0.07807930143380701,0.3398399232274551,0,70,255.0,255.0,255.0
394,19.700000000000003,3.463305039175446,0.00462960349283089,-17.980079199616135,0.004242218879215574,-0.026616482312349,-0.11514052690901083,-0.01354203041678,0.0802521990303495,0.34669555775959404,0,70,255.0,255.0,255.0
395,19.75,3.4635,0.0034,-17.9854,0.0035517624751899442,-0.022549549920918198,-0.0976343581577287,-0.014076225744246777,0.08242509662689196,0.3535511922917325,0,70,255.0,255.0,255.0
396,19.8,3.4636604083730647,0.002373646700422805,-17.98984729799928,0.0028728830771185846,-0.01854272554846674,-0.08040794344859144,-0.013078950178607223,0.07784787827116407,0.33550539607374824,0,70,255.0,255.0,255.0
397,19.85,3.463788119370683,0.001541913096523526,-17.993455832508374,0.0022438674573292037,-0.01476476209380168,-0.06408381855035339,-0.012081674612967669,0.07327065991543617,0.317459599855764,0,70,255.0,255.0,255.0
398,19.900000000000002,3.463885626181769,0.0008933561424128427,-17.99627071801783,0.0016647156158218004,-0.01121565955692302,-0.048661983463014584,-0.011084399047328115,0.06869344155970829,0.29941380363777975,0,70,255.0,255.0,255.0
399,19.950000000000003,3.4639554219952364,0.00041653279220143504,-17.998337069018188,0.0011354275525963763,-0.007895417937830752,-0.03414243818657499,-0.01008712348168856,0.0641162232039804,0.2813680074197955,0,70,255.0,255.0,255.0
400,20.0,3.464,0.0001,-17.9997,0.0006560032676529622,-0.0048040372365251,-0.02052518272103556,-0.009089847916049085,0.05953900484825283,0.26332221120181276,0,70,255.0,255.0,255.0
401,20.05,3.464022398308931,-7.185478250495349e-05,-18.000424286559408,0.00025913819847288397,-0.002191687598453207,-0.008989883402447371,-0.006784754851153821,0.0449549806746214,0.19808976154170832,0,70,255.0,255.0,255.0
402,20.1,3.464027834730735,-0.0001313221133233503,-18.000653348714966,-2.247221746242941e-05,-0.0003085391690628961,-0.0007162065668644508,-0.004479661786258556,0.030370956500989973,0.13285731188160385,0,70,255.0,255.0,255.0
403,20.150000000000002,3.4640220719980723,-0.00011486205288926995,-18.000550267590814,-0.000188827980152978,0.0008454080516458336,0.004295847785713201,-0.002174568721363291,0.01578693232735854,0.06762486222149938,0,70,255.0,255.0,255.0
404,20.200000000000003,3.4640108728436068,-5.893466163679219e-05,-18.000278124311105,-0.0002399290895987614,0.00127015406367298,0.006046279655285581,0.00013052434353197362,0.001202908153727117,0.002392412561394941,0,70,255.0,255.0,255.0
405,20.25,3.464,0.0,-18.0,-0.0001757755457997889,0.0009656988670185953,0.004535089041852919,0.0024356174084270753,-0.013381116019903262,-0.06284003709870492,0,70,255.0,255.0,255.0
406,20.3,3.46399399839121,3.297242959698959e-05,-17.99984515576309,-6.943587100886531e-05,0.0003814759422797427,0.0017914770583758628,0.0018179695832098081,-0.009987800969650514,-0.04690444224037575,0,70,255.0,255.0,255.0
407,20.35,3.4639925417063786,4.097535676985218e-05,-17.999807572631777,6.021412521194493e-06,-3.308122994647003e-05,-0.0001553551821847235,0.0012003217579925412,-0.006594485919397765,-0.03096884738204659,0,70,255.0,255.0,255.0
408,20.400000000000002,3.463994085825941,3.249206914421989e-05,-17.999847411618926,5.059630479039052e-05,-0.0002779726496600428,-0.0013054076798288397,0.0005826739327752743,-0.003201170869145016,-0.015033252523717427,0,70,255.0,255.0,255.0
409,20.450000000000003,3.4639970866303362,1.600585434572483e-05,-17.99992483373738,6.428880579872274e-05,-0.0003531983168609759,-0.001658680434556488,-3.497389244199291e-05,0.00019214418110773124,0.0009023423346117415,0,70,255.0,255.0,255.0
410,20.5,3.464,0.0,-18.0,4.709891554619343e-05,-0.00025875823154928283,-0.0012151734463677233,-0.0006526217176592163,0.0035854592313602387,0.016837937192939766,0,70,255.0,255.0,255.0
411,20.55,3.4640016081262286,-8.83493588300541e-06,-18.000041490388234,1.8605285562577303e-05,-0.00010221617066575862,-0.0004800248310506958,-0.0004871234816854126,0.0026762232039806402,0.012568007419740918,0,70,255.0,255.0,255.0
412,20.6,3.4640019984437527,-1.0979313756059028e-05,-18.000051560757917,-1.6134326223485215e-06,8.864088848784993e-06,4.162729560638624e-05,-0.0003216252457116089,0.0017669871766010415,0.008298077646542069,0,70,255.0,255.0,255.0
413,20.650000000000002,3.464001584698163,-8.706223687609914e-06,-18.000040885933483,-1.3557239008584042e-05,7.448254699434802e-05,0.0003497829336035228,-0.00015612700973780523,0.0008577511492214428,0.00402814787334322,0,70,255.0,255.0,255.0
414,20.700000000000003,3.464000780635048,-4.2887557461071375e-06,-18.000020140739366,-1.7226133596129264e-05,9.463920377093051e-05,0.00044444208294071416,9.371226235998457e-06,-5.1484878158155646e-05,-0.00024178189985562745,0,70,255.0,255.0,255.0
415,20.75,3.464,0.0,-18.0,-1.2620116384984828e-05,6.933405917853583e-05,0.00032560474361797585,0.0001748694622097902,-0.000960720905537689,-0.004511711673054175,0,70,255.0,255.0,255.0
416,20.8,3.463999569103876,2.3673139350320505e-06,-17.999988882683983,-4.985271241443898e-06,2.738874038329191e-05,0.00012862226582692024,0.00013052434353184262,-0.0007170918462720442,-0.0033675874385879377,0,70,255.0,255.0,255.0
417,20.85,3.4639994645186105,2.9418982543839392e-06,-17.999986184336553,4.3231796819962114e-07,-2.375125448669597e-06,-1.1154000240822738e-05,8.617922485389504e-05,-0.0004734627870063993,-0.002223463204121701,0,70,255.0,255.0,255.0
418,20.900000000000002,3.463999575381407,2.3328256062197977e-06,-17.999989044647144,3.6326512439457286e-06,-1.995753831734869e-05,-9.372405458525309e-05,4.183410617594746e-05,-0.0002298337277407544,-0.0010793389696554644,0,70,255.0,255.0,255.0
419,20.950000000000003,3.463999790829469,1.1491686387037504e-06,-17.999994603305154,4.6157285857944275e-06,-2.5358498222745378e-05,-0.0001190878972063707,-2.5110125020001304e-06,1.379533152489037e-05,6.478526481077263e-05,0,70,255.0,255.0,255.0
420,21.0,3.464,0.0,-18.0,3.381549993745879e-06,-1.8578005164860544e-05,-8.724552810417992e-05,-4.685613117994454e-05,0.000257424390790518,0.001208909499276928,0,70,255.0,255.0,255.0
421,21.05,3.4640001154582687,-6.343198571227932e-07,-18.00000297887585,1.33579940319829e-06,-7.338790867409012e-06,-3.4464232256985204e-05,-3.4973892441957864e-05,0.0001921441811075369,0.0009023423346108304,0,70,255.0,255.0,255.0
422,21.1,3.4640001434818064,-7.882792614767308e-07,-18.00000370189586,-1.1583925044995713e-07,6.364129458934192e-07,2.9887053569044146e-06,-2.309165370397119e-05,0.0001268639714245558,0.0005957751699447329,0,70,255.0,255.0,255.0
423,21.150000000000002,3.464000113776209,-6.250787372692695e-07,-18.00000293547795,-9.73365967198862e-07,5.347606275046747e-06,2.5113284737488933e-05,-1.1209414965984515e-05,6.15837617415747e-05,0.0002892080052786354,0,70,255.0,255.0,255.0
424,21.200000000000003,3.464000056047075,-3.0791880870786764e-07,-18.000001446040027,-1.2367807470484243e-06,6.79478912005097e-06,3.190950588476837e-05,6.728237720021599e-07,-3.6964479414064336e-06,-1.7359159387462207e-05,0,70,255.0,255.0,255.0
425,21.25,3.464,0.0,-18.0,-9.060835899986905e-07,4.97796148090634e-06,2.3377368798743836e-05,1.2555062509987984e-05,-6.89766576243829e-05,-0.0003239263240535378,0,70,255.0,255.0,255.0
426,21.3,3.46399996906305,1.6996549345912284e-07,-17.99999920181262,-3.579263713492615e-07,1.966423086344141e-06,9.234663201020583e-06,9.371226235988862e-06,-5.148487815810335e-05,-0.00024178189985538435,0,70,255.0,255.0,255.0
427,21.35,3.463999961554166,2.1121879152298365e-07,-17.999999008079993,3.103903360020906e-08,-1.7052633490406783e-07,-8.008211867949392e-07,6.187389961989739e-06,-3.3993098691823795e-05,-0.0001596374756572309,0,70,255.0,255.0,255.0
428,21.400000000000002,3.463999969513756,1.674893428572824e-07,-17.99999921344105,2.608126248497213e-07,-1.4328867828382865e-06,-6.72908436470273e-06,3.0035536879906166e-06,-1.6501319225544243e-05,-7.749305145907744e-05,0,70,255.0,255.0,255.0
429,21.450000000000003,3.463999984982231,8.250659612771965e-08,-17.99999961253474,3.3139440239927496e-07,-1.820658257458515e-06,-8.550126332702787e-06,-1.8028258600850583e-07,9.904602407353092e-07,4.65137273907598e-06,0,70,255.0,255.0,255.0
430,21.5,3.464,0.0,-18.0,2.427843662488828e-07,-1.3338407587648187e-06,-6.263947090795447e-06,-3.3641188600073988e-06,1.848223970701362e-05,8.679579693722354e-05,0,70,255.0,255.0,255.0
431,21.55,3.464000008289531,-4.5542116713698046e-08,-18.000000213873665,9.590608219875614e-08,-5.269014779675539e-07,-2.474420547097123e-06,-2.5110125019975847e-06,1.3795331524876513e-05,6.478526481070725e-05,0,70,255.0,255.0,255.0
432,21.6,3.4640000103015303,-5.659590461520383e-08,-18.000000265784163,-8.316883950879206e-09,4.569239372285223e-08,2.1457939027537043e-07,-1.6579061439877706e-06,9.108423342739406e-06,4.277473268419096e-05,0,70,255.0,255.0,255.0
433,21.650000000000002,3.4640000081687643,-4.487863415986048e-08,-18.000000210757836,-6.98845322000233e-08,3.8394085630639936e-07,1.803052721322033e-06,-8.047997859779566e-07,4.421515160602298e-06,2.0764200557674668e-05,0,70,255.0,255.0,255.0
434,21.700000000000003,3.464000004023999,-2.2107575803011026e-08,-18.000000103821,-8.879686254867597e-08,4.878439097830883e-07,2.290999446042867e-06,4.8306572031857484e-08,-2.6539302153480985e-07,-1.2463315688416183e-06,0,70,255.0,255.0,255.0
435,21.75,3.464,0.0,-18.0,-6.505387499684074e-08,3.574015541529351e-07,1.678419564437952e-06,9.014129300416107e-07,-4.952301203671587e-06,-2.3256863695356346e-05,0,70,255.0,255.0,255.0
436,21.8,3.463999997778827,1.22029733956694e-08,-17.999999942692725,-2.5697957445763002e-08,1.4118282552607475e-07,6.630189873679133e-07,6.728237720014766e-07,-3.6964479414027053e-06,-1.7359159387444626e-05,0,70,255.0,255.0,255.0
437,21.85,3.4639999972397133,1.5164826937831774e-08,-17.999999928783346,2.228502203307875e-09,-1.2243239987340626e-08,-5.749637430653504e-08,4.4423461396134254e-07,-2.4405946791338234e-06,-1.1461455079532905e-05,0,70,255.0,255.0,255.0
438,21.900000000000002,3.463999997811186,1.2025193782159409e-08,-17.99999994352761,1.872550395037189e-08,-1.0287664238731108e-07,-4.831265205853935e-07,2.156454559212085e-07,-1.1847414168649415e-06,-5.563750771621183e-06,0,70,255.0,255.0,255.0
439,21.950000000000003,3.4639999989217722,5.923707084324621e-09,-17.999999972181243,2.3793047795429032e-08,-1.3071738167383644e-07,-6.138714514686613e-07,-1.2943702118925587e-08,7.11118454039404e-08,3.339535362905371e-07,0,70,255.0,255.0,255.0
440,22.0,3.464,0.0,-18.0,1.7431133738480158e-08,-9.576545784692178e-08,-4.497311669563608e-07,-2.4153286015904337e-07,1.3269651076727325e-06,6.231657844201842e-06,0,70,255.0,255.0,255.0
441,22.05,3.464000000595161,-3.2697768689795397e-09,-18.000000015355436,6.885747584295892e-09,-3.782982413674482e-08,-1.7765540237452977e-07,-1.8028258600832123e-07,9.904602407343126e-07,4.651372739071246e-06,0,70,255.0,255.0,255.0
442,22.1,3.464000000739617,-4.063403136123227e-09,-18.000000019082442,-5.97124862352224e-10,3.280566226510899e-09,1.5406106950770356e-08,-1.1903231185759912e-07,6.539553737958928e-07,3.0710876339406496e-06,0,70,255.0,255.0,255.0
443,22.150000000000002,3.4640000005864913,-3.2221409687771365e-09,-18.000000015131732,-5.0174836014641906e-09,2.756571324284538e-08,1.2945336101953952e-07,-5.778203770687701e-08,3.17450506857473e-07,1.4908025288100532e-06,0,70,255.0,255.0,255.0
444,22.200000000000003,3.46400000028891,-1.5872525342873385e-09,-18.000000007454013,-6.37532863304001e-09,3.5025616912258635e-08,1.644863598317777e-07,3.4682364438451295e-09,-1.9054360080946904e-08,-8.948257632054274e-08,0,70,255.0,255.0,255.0
445,22.25,3.464,0.0,-18.0,-4.670659957079898e-09,2.5660277234751967e-08,1.205051033874913e-07,6.47185105945629e-08,-3.555592270193427e-07,-1.6697676814510258e-06,0,70,255.0,255.0,255.0
446,22.3,3.463999999840526,8.76134080248759e-10,-17.99999999588552,-1.845032891420574e-09,1.0136471020904548e-08,4.760262213020556e-08,4.8306572031808436e-08,-2.6539302153454526e-07,-1.2463315688403626e-06,0,70,255.0,255.0,255.0
447,22.35,3.4639999998018203,1.088785606661136e-09,-17.999999994886874,1.5999724610101492e-10,-8.79024918702933e-10,-4.128053496546717e-09,3.189463346905398e-08,-1.7522681604974779e-07,-8.228954562296992e-07,0,70,255.0,255.0,255.0
448,22.400000000000002,3.4639999998428497,8.633700929491308e-10,-17.999999995945462,1.3444304554848694e-09,-7.386210584070475e-09,-3.468692349276553e-08,1.5482694906299514e-08,-8.506061056495031e-08,-3.9945934361903577e-07,0,70,255.0,255.0,255.0
449,22.450000000000003,3.463999999922587,4.2530305282474436e-10,-17.999999998002703,1.7082667367309883e-09,-9.385085975198083e-09,-4.407398785845085e-08,-9.292436564549439e-10,5.105594919847105e-09,2.3976768991627515e-08,0,70,255.0,255.0,255.0
450,22.5,3.464,0.0,-18.0,1.2515060898394332e-09,-6.8756510920861e-09,-3.2289246593604367e-08,-1.734118221920825e-08,9.527180040463813e-08,4.474128816022604e-07,0,70,255.0,255.0,255.0
451,22.55,3.464000000042731,-2.347594520154966e-10,-18.000000001102475,4.943839813864033e-10,-2.7160599468733836e-09,-1.2755086146292493e-08,-1.2943702118912518e-08,7.11118454038682e-08,3.339535362902035e-07,0,70,255.0,255.0,255.0
452,22.6,3.464000000053103,-2.9173929052131767e-10,-18.000000001370054,-4.286412205183681e-11,2.35533448300819e-10,1.1061070354164554e-09,-8.546222018616784e-09,4.695189040309825e-08,2.2049419097814662e-07,0,70,255.0,255.0,255.0
453,22.650000000000002,3.464000000042109,-2.3133940301938963e-10,-18.00000000108641,-3.6023822047528735e-10,1.9791290934365076e-09,9.294332951522485e-09,-4.14874191832105e-09,2.27919354023283e-08,1.0703484566608969e-07,0,70,255.0,255.0,255.0
454,22.700000000000003,3.464000000020744,-1.1395967701163944e-10,-18.000000000535174,-4.577383138839476e-10,2.5147269885336823e-09,1.1809591602025573e-08,2.4873818197468265e-10,-1.3680195984416338e-09,-6.424499645967167e-09,0,70,255.0,255.0,255.0
455,22.75,3.464,0.0,-18.0,-3.3536440227783514e-10,1.842327133592434e-09,8.65188298692618e-09,4.646218282270104e-09,-2.552797459920985e-08,-1.1988384495801605e-07,0,70,255.0,255.0,255.0
456,22.8,3.4639999999885487,6.29037278132275e-11,-17.999999999704595,-1.325030341250388e-10,7.277687665889835e-10,3.417722454964413e-09,3.468236443841634e-09,-1.905436008092753e-08,-8.948257632045165e-08,0,70,255.0,255.0,255.0
457,22.85,3.4639999999857682,7.817155542413482e-11,-17.999999999632895,1.1459242106333183e-11,-6.310887450034647e-11,-2.9637464511911214e-10,2.2902546054131637e-09,-1.2580745562645214e-08,-5.908130768288725e-08,0,70,255.0,255.0,255.0
458,22.900000000000002,3.4639999999887126,6.198751912842818e-11,-17.999999999708898,9.65224264162808e-11,-5.30305789675555e-10,-2.4904083133243963e-09,1.1122727669846935e-09,-6.107131044362896e-09,-2.8680039045322852e-08,0,70,255.0,255.0,255.0
459,22.950000000000003,3.4639999999944386,3.0535655221813946e-11,-17.9999999998566,1.2268651880480417e-10,-6.738219789366446e-10,-3.1643785496514395e-09,-6.570907144377672e-11,3.664834739194238e-10,1.7212295922415485e-09,0,70,255.0,255.0,255.0
460,23.0,3.464,0.0,-18.0,8.995151927190736e-11,-4.936574422836367e-10,-2.318285354100353e-09,-1.2436909098721634e-09,6.840097992201285e-09,3.21224982298038e-08,0,70,255.0,255.0,255.0
461,23.05,3.464000000003074,-1.6855459237413414e-11,-18.000000000079154,3.5628155113752106e-11,-1.9501511948255173e-10,-9.158036735651605e-10,-9.292436564540162e-10,5.1055949198419456e-09,2.3976768991603097e-08,0,70,255.0,255.0,255.0
462,23.1,3.4640000000038245,-2.0946931175221603e-11,-18.00000000009837,-2.9728463734955682e-12,1.690204970056506e-11,7.939154505999099e-11,-6.147964030358689e-10,3.371091847482606e-09,1.5831039753402396e-08,0,70,255.0,255.0,255.0
463,23.150000000000002,3.464000000003039,-1.6610673494323033e-11,-18.000000000078003,-2.5851485189835667e-11,1.420940652657136e-10,6.673003017751017e-10,-3.0034914961772183e-10,1.6365887751232665e-09,7.685310515201697e-09,0,70,255.0,255.0,255.0
464,23.200000000000003,3.464000000001502,-8.18294387561619e-12,-18.000000000038426,-3.300776133526816e-11,1.8056092721289398e-10,8.479225965801716e-10,1.4098103800425487e-11,-9.791429723607302e-11,-4.6041872299900745e-10,0,70,255.0,255.0,255.0
465,23.25,3.464,0.0,-18.0,-2.444167480979429e-11,1.3230263554211277e-10,6.212584294752312e-10,3.2854535721855026e-10,-1.8324173695952893e-09,-8.606147961199122e-09,0,70,255.0,255.0,255.0
466,23.3,3.4639999999991553,4.518109136426161e-12,-17.999999999978787,-1.0009586329969539e-11,5.229171134122315e-11,2.4549223929622956e-10,2.487381819744316e-10,-1.3680195984402503e-09,-6.424499645960727e-09,0,70,255.0,255.0,255.0
467,23.35,3.4639999999989324,5.616169276751597e-12,-17.99999999997363,4.3214338764922265e-13,-4.499324301914198e-12,-2.1191535120850694e-11,1.689310067303129e-10,-9.036218272852113e-10,-4.242851330722333e-09,0,70,255.0,255.0,255.0
468,23.400000000000002,3.4639999999991318,4.455174848863939e-12,-17.99999999997909,6.883514343061991e-12,-3.8070471387299286e-11,-1.7879289377600971e-10,8.912383148619422e-11,-4.3922405613017235e-10,-2.061203015483938e-09,0,70,255.0,255.0,255.0
469,23.450000000000003,3.463999999999554,2.196120280650823e-12,-17.999999999989694,9.34452653626877e-12,-4.842172991493205e-11,-2.273118366692473e-10,9.316656242075552e-12,2.5173715024866634e-11,1.2044529975445648e-10,0,70,255.0,255.0,255.0
470,23.5,3.464,0.0,-18.0,7.815179967269799e-12,-3.5553099884814365e-11,-1.6674836380057208e-10,-7.049051900203752e-11,4.895714861798722e-10,2.3020936149926963e-09,0,70,255.0,255.0,255.0
471,23.55,3.4640000000003046,-1.2169773082912273e-12,-18.000000000005702,4.410190206126064e-12,-1.4151725882340854e-11,-6.616528361975784e-11,-6.570907144370998e-11,3.664834739190561e-10,1.7212295922398164e-09,0,70,255.0,255.0,255.0
472,23.6,3.464000000000445,-1.5177459317847884e-12,-18.000000000007102,1.2442728228987081e-12,1.095247507091763e-12,5.3745954234120094e-12,-6.092762388538243e-11,2.4339546165824003e-10,1.1403655694869364e-09,0,70,255.0,255.0,255.0
473,23.650000000000002,3.464000000000433,-1.2100259011327313e-12,-18.000000000005645,-1.682572182412267e-12,1.0187820283483489e-11,4.7871273328937434e-11,-5.614617632705489e-11,1.2030744939742388e-10,5.595015467340565e-10,0,70,255.0,255.0,255.0
474,23.700000000000003,3.4640000000002806,-6.015372469871072e-13,-18.000000000002796,-4.370344809806861e-12,1.3125992446834318e-11,6.132475009681848e-11,-5.1364728768727345e-11,-2.7805628633921664e-12,-2.136247601882345e-11,0,70,255.0,255.0,255.0
475,23.75,3.464,0.0,-18.0,-6.8190450592849086e-12,9.909763997144706e-12,4.573502572705714e-11,-4.6583281210400145e-11,-1.2586857512419958e-10,-6.022264987716622e-10,0,70,255.0,255.0,255.0
476,23.8,3.463999999999626,3.498000967387493e-13,-17.999999999998405,-7.631174494534714e-12,4.315192188140286e-12,1.9168895182801777e-11,1.4098103800408374e-11,-9.791429723597402e-11,-4.604187229985372e-10,0,70,255.0,255.0,255.0
477,23.85,3.463999999999287,4.548144503875566e-13,-17.999999999997968,-5.409234679244052e-12,1.183342735471643e-13,-3.0684657279723387e-13,7.47794888112169e-11,-6.996001934774846e-11,-3.186109472254121e-10,0,70,255.0,255.0,255.0
478,23.900000000000002,3.4639999999991358,3.8492875566698776e-13,-17.99999999999832,-1.5322561341291945e-13,-2.680809746634658e-12,-1.2692199539739886e-11,1.3546087382202539e-10,-4.2005741459522905e-11,-1.76803171452287e-10,0,70,255.0,255.0,255.0
479,23.950000000000003,3.4639999999993227,2.1002870729760872e-13,-17.999999999999115,8.136852702958682e-12,-4.082239872405186e-12,-1.7987163718026186e-11,1.9614225883283393e-10,-1.4051463571297347e-11,-3.499539567916196e-11,0,70,255.0,255.0,255.0
480,24.0,3.464,0.0,-18.0,1.9461000269869835e-11,-4.085956103764464e-12,-1.6191739107656503e-11,2.5682364384363806e-10,1.3902814316926207e-11,1.06812380093953e-10,0,70,255.0,255.0,255.0
481,24.05,3.464000000001191,-1.8222307866377028e-13,-18.000000000000668,2.6114507772012795e-11,-3.1090428702202934e-12,-1.0510297111449281e-11,9.316656242076534e-12,2.517371502484007e-11,1.2044529975433261e-10,0,70,255.0,255.0,255.0
482,24.1,3.464000000002405,-3.015118697654386e-13,-18.00000000000104,2.0392665894077494e-11,-1.5685846012804213e-12,-4.147209132223071e-12,-2.38190331359485e-10,3.644461573275393e-11,1.3407821941471222e-10,0,70,255.0,255.0,255.0
483,24.150000000000002,3.4640000000030238,-3.2968912153521944e-13,-18.000000000001076,2.2954746360639498e-12,5.354187030551522e-13,2.8975248300221317e-12,-4.856973189610466e-10,4.77155164406678e-11,1.4771113907509184e-10,0,70,255.0,255.0,255.0
484,24.200000000000003,3.4640000000024282,-2.3857758220332737e-13,-18.000000000000743,-2.817706600202786e-11,3.2029670427864264e-12,1.0623904775286323e-11,-7.33204306562608e-10,5.898641714858166e-11,1.6134405873547145e-10,0,70,255.0,255.0,255.0
485,24.25,3.464,0.0,-18.0,-7.102495602019442e-11,6.434060417913152e-12,1.903193070356888e-11,-9.807112941641519e-10,7.025731785649471e-11,1.7497697839585002e-10,0,70,255.0,255.0,255.0
486,24.3,3.46399999999561,3.790922179163318e-13,-17.99999999999891,-9.682685659351645e-11,8.120979292740888e-12,2.287229326299535e-11,-5.136472876871425e-11,-2.7805628633862857e-12,-2.1362476018793413e-11,0,70,255.0,255.0,255.0
487,24.35,3.463999999991092,7.512330286741977e-13,-17.999999999997875,-7.616142889706592e-11,6.1560041315745195e-12,1.689568310168951e-11,8.779818366267234e-10,-7.581844358326728e-11,-2.1770193043343685e-10,0,70,255.0,255.0,255.0
488,24.400000000000002,3.4639999999887685,9.3382773047389e-13,-17.999999999997385,-9.028672930842864e-12,5.391349344140484e-13,1.1021002196513545e-12,1.807328402022161e-09,-1.4885632430314827e-10,-4.1404138484808023e-10,0,70,255.0,255.0,255.0
489,24.450000000000003,3.463999999990963,7.442816215157011e-13,-17.999999999997932,1.0457141130515272e-10,-8.729628298740518e-12,-2.4508455383119106e-11,2.7366749674175986e-09,-2.218942050230293e-10,-6.103808392627237e-10,0,70,255.0,255.0,255.0
490,24.5,3.464,0.0,-18.0,2.6463882381090783e-10,-2.1650285567888145e-11,-5.993598370661902e-11,3.666021532812968e-09,-2.949320857429051e-10,-8.067202936773535e-10,0,70,255.0,255.0,255.0
491,24.55,3.4640000000163687,-1.334145793001557e-12,-18.000000000003684,3.611929186020529e-10,-2.937487430074326e-11,-8.097887594053214e-11,1.9614225883278058e-10,-1.405146357129497e-11,-3.4995395679159065e-11,0,70,255.0,255.0,255.0
492,24.6,3.4640000000332276,-2.7034202449313526e-12,-18.000000000007454,2.842530496941861e-10,-2.3055431925017656e-11,-6.343552327453496e-11,-3.273737015147407e-09,2.6682915860031515e-10,7.367295023190353e-10,0,70,255.0,255.0,255.0
493,24.650000000000002,3.464000000041902,-3.405621800360341e-12,-18.000000000009386,3.3819217087307466e-11,-2.691958440711347e-12,-7.305925708627554e-12,-6.743616289127595e-09,5.477097807719254e-10,1.5084544003172298e-09,0,70,255.0,255.0,255.0
494,24.700000000000003,3.4640000000337183,-2.738548903859477e-12,-18.00000000000754,-3.9010857921858304e-10,3.1715546152175663e-11,8.740991675719016e-11,-1.0213495563107782e-08,8.285904029435354e-10,2.280179298315424e-09,0,70,255.0,255.0,255.0
495,24.75,3.464,0.0,-18.0,-9.875303392234367e-10,8.016708185363943e-11,2.207120041229072e-10,-1.3683374837087726e-08,1.1094710251151256e-09,3.0519041963135628e-09,0,70,255.0,255.0,255.0
496,24.8,3.463999999938915,4.957490954089896e-12,-17.999999999986354,-1.3479448178146953e-09,1.0937851791023214e-10,3.0104321049913314e-10,-7.332043065624089e-10,5.898641714856594e-11,1.6134405873542952e-10,0,70,255.0,255.0,255.0
497,24.85,3.4639999998759974,1.006244795105121e-11,-17.999999999972307,-1.0608507698796788e-09,8.606572356849611e-11,2.3684640999645036e-10,1.2216966223962908e-08,-9.914981908179937e-10,-2.7292160788427037e-09,0,70,255.0,255.0,255.0
498,24.900000000000002,3.463999999843622,1.268865947096747e-11,-17.999999999965077,-1.262481954183867e-10,1.0228698828431346e-11,2.8121602614858842e-11,2.5167136754488225e-08,-2.0419827987845533e-09,-5.619776216420837e-09,0,70,255.0,255.0,255.0
499,24.950000000000003,3.4639999998741646,1.0209913993922198e-11,-17.9999999999719,1.45586290556918e-09,-1.1813255630996214e-10,-3.251312116456414e-10,3.811730728501354e-08,-3.092467406751113e-09,-8.51033635399897e-09,0,70,255.0,255.0,255.0
500,25.0,3.464,0.0,-18.0,3.685482533082839e-09,-2.990180418466696e-10,-8.229120327850097e-10,5.106747781553791e-08,-4.142952014717597e-09,-1.1400896491576898e-08,0,70,255.0,255.0,255.0
501,25.05,3.4640000002279705,-1.8495818023358027e-11,-18.000000000050896,5.030586352656727e-09,-4.081391973401852e-10,-1.1231939660560006e-09,2.7366749674168517e-09,-2.218942050229687e-10,-6.103808392625587e-10,0,70,255.0,255.0,255.0
502,25.1,3.464000000462783,-3.754637155927349e-11,-18.000000000103327,3.959150029824527e-09,-3.2120746234896673e-10,-8.839501167112661e-10,-4.559412788070421e-08,3.6991636046716594e-09,1.0180134813051781e-08,0,70,255.0,255.0,255.0
503,25.150000000000002,3.46400000058361,-4.734901608350954e-11,-18.000000000130303,4.711735645862428e-10,-3.822283687301392e-11,-1.0518048475080794e-10,-9.392493072882529e-08,7.620221414366287e-09,2.097065046536612e-08,0,70,255.0,255.0,255.0
504,25.200000000000003,3.4640000004696248,-3.810110707182934e-11,-18.00000000010485,-5.433343043058132e-09,4.4081467908767294e-10,1.213114929825376e-09,-1.4225573357694634e-07,1.1541279224060916e-08,3.176116611768046e-08,0,70,255.0,255.0,255.0
505,25.25,3.464,0.0,-18.0,-1.3754399793107918e-08,1.1159050855330388e-09,3.0709361270171318e-09,-1.9058653642506397e-07,1.5462337033755263e-08,4.255168176999403e-08,0,70,255.0,255.0,255.0
506,25.3,3.4639999991492023,6.902578113934221e-11,-17.99999999981004,-1.8774400592812216e-08,1.523178271450509e-09,4.191732653724869e-09,-1.0213495563105024e-08,8.285904029433109e-10,2.2801792983148053e-09,0,70,255.0,255.0,255.0
507,25.35,3.463999998272871,1.401230382860427e-10,-17.99999999961439,-1.4775749349418437e-08,1.198764125827371e-09,3.298954056848616e-09,1.7015954529885392e-07,-1.3805156227868642e-08,-3.7991323173364417e-08,0,70,255.0,255.0,255.0
508,25.400000000000002,3.4639999978219382,1.7670740486307066e-10,-17.999999999513705,-1.7584460629265787e-09,1.4266264866362522e-10,3.926003363883722e-10,3.505325861608128e-07,-2.8438902858680593e-08,-7.826282564504364e-08,0,70,255.0,255.0,255.0
509,25.450000000000003,3.4639999982473366,1.4219451429339508e-10,-17.999999999608686,2.027750926666336e-08,-1.645126160040729e-09,-4.5273285076558596e-09,5.309056270227718e-07,-4.307264948949255e-08,-1.1853432811672285e-07,0,70,255.0,255.0,255.0
510,25.5,3.464,0.0,-18.0,5.1332116639348836e-08,-4.164602300285486e-09,-1.1460832475283518e-08,7.112786678847182e-07,-5.770639612030348e-08,-1.5880583058839916e-07,0,70,255.0,255.0,255.0
511,25.55,3.46400000317522,-2.5760730653401083e-10,-18.000000000708926,7.006701601859214e-08,-5.684573888461852e-09,-1.5643736648843473e-08,3.811730728500329e-08,-3.0924674067502824e-09,-8.510336353996631e-09,0,70,255.0,255.0,255.0
512,25.6,3.4640000064457337,-5.229457815848976e-10,-18.000000001439126,5.5143847367849225e-08,-4.473849040960519e-09,-1.2311866110683193e-08,-6.350440533147116e-07,5.152146130680292e-08,1.417851578804059e-07,0,70,255.0,255.0,255.0
513,25.650000000000002,3.4640000081286373,-6.594806033687733e-10,-18.00000000181487,6.5626106871200805e-09,-5.324277577814842e-10,-1.465220860802683e-09,-1.3082054139144266e-06,1.0613539002035611e-07,2.920806521148084e-07,0,70,255.0,255.0,255.0
514,25.700000000000003,3.464000006541027,-5.306769501017512e-10,-18.000000001460403,-7.567669402359529e-08,6.139689961075247e-09,1.6896199100798067e-08,-1.9813667745141415e-06,1.607493187339093e-07,4.4237614634921095e-07,0,70,255.0,255.0,255.0
515,25.75,3.464,0.0,-18.0,-1.9157406676428743e-07,1.5542504115608906e-08,4.2772393774116934e-08,-2.654528135113808e-06,2.1536324744745854e-07,5.926716405836026e-07,0,70,255.0,255.0,255.0
516,25.8,3.463999988149917,9.614034449967012e-10,-17.99999999735425,-2.614936634815563e-07,2.1215117282396896e-08,5.838321394164901e-08,-1.4225573357690835e-07,1.154127922405778e-08,3.176116611767184e-08,0,70,255.0,255.0,255.0
517,25.85,3.4639999759441937,1.9516600880535473e-09,-17.999999994629103,-2.0579964012197843e-07,1.6696632038014695e-08,4.5948510385884156e-08,2.3700166679599913e-06,-1.9228068899934298e-07,-5.29149308348259e-07,0,70,255.0,255.0,255.0
518,25.900000000000002,3.463999969663513,2.461215008612023e-09,-17.999999993226826,-2.4491996685553756e-08,1.9870483824623205e-09,5.468283106822343e-09,4.8822890694968914e-06,-3.9610265722274373e-07,-1.0900597828141898e-06,0,70,255.0,255.0,255.0
519,25.950000000000003,3.4639999755885547,1.9805132861136096e-09,-17.9999999945497,2.8242926682771764e-07,-2.291363368426025e-08,-6.305746789553639e-08,7.394561471033791e-06,-5.999246254461445e-07,-1.6509702572801205e-06,0,70,255.0,255.0,255.0
520,26.0,3.464,0.0,-18.0,7.149641504178008e-07,-5.800541416215013e-08,-1.596287426211842e-07,9.906833872570511e-06,-8.03746593669531e-07,-2.211880731746012e-06,0,70,255.0,255.0,255.0
521,26.05,3.464000044225113,-3.588006473452794e-09,-18.00000000987406,9.75907637907633e-07,-7.917589524112573e-08,-2.178891191177526e-07,5.309056270226281e-07,-4.307264948948091e-08,-1.1853432811669088e-07,0,70,255.0,255.0,255.0
522,26.1,3.46400008977749,-7.283694570629293e-09,-18.000000020044457,7.680547131200644e-07,-6.231267911109828e-08,-1.7148217543285342e-07,-8.845022618525255e-06,7.176012946905692e-07,1.9748120755126303e-06,0,70,255.0,255.0,255.0
523,26.150000000000002,3.4640001132173106,-9.185379431079319e-09,-18.00000002527782,9.140537605509494e-08,-7.415765772067791e-09,-2.040791156648669e-08,-1.822095086407314e-05,1.4782752388706193e-06,4.068158479141952e-06,0,70,255.0,255.0,255.0
524,26.200000000000003,3.464000091104754,-7.39137619435269e-09,-18.000000020340792,-1.0540403732872753e-06,8.551484477596574e-08,2.353336724813476e-07,-2.759687910962102e-05,2.2389491830506696e-06,6.1615048827712726e-06,0,70,255.0,255.0,255.0
525,26.25,3.464,0.0,-18.0,-2.6682825349069155e-06,2.1647915253299163e-07,5.957425767106199e-07,-3.6972807355168245e-05,2.9996231272306646e-06,8.254851286400444e-06,0,70,255.0,255.0,255.0
526,26.3,3.4639998349496306,1.3390622448814473e-08,-17.999999963149506,-3.6421368881489755e-06,2.9548846368210604e-07,8.131732625293613e-07,-1.9813667745136062e-06,1.6074931873386593e-07,4.4237614634909093e-07,0,70,255.0,255.0,255.0
527,26.35,3.463999664945845,2.7183118194463618e-08,-17.99999992519307,-2.8664192123582784e-06,2.325540844063785e-07,6.399801913455295e-07,3.301007380614103e-05,-2.6781244897629328e-06,-7.370098993702262e-06,0,70,255.0,255.0,255.0
528,26.400000000000002,3.4639995774672436,3.4280302715705244e-08,-17.999999905661884,-3.411295075348238e-07,2.767601470580893e-08,7.616336315912465e-08,6.800151438679567e-05,-5.516998298259731e-06,-1.5182574133753616e-05,0,70,255.0,255.0,255.0
529,26.450000000000003,3.463999659992428,2.7584991491297148e-08,-17.99999992408713,3.9337322263213846e-06,-3.191457454196025e-07,-8.782772220298536e-07,0.00010299295496745031,-8.35587210675653e-06,-2.299504927380497e-05,0,70,255.0,255.0,255.0
530,26.5,3.464,0.0,-18.0,9.958165989209862e-06,-8.079111959698163e-07,-2.2233415642212954e-06,0.00013798439554810248,-1.1194745915253126e-05,-3.080752441385577e-05,0,70,255.0,255.0,255.0
531,26.55,3.4640006159763628,-4.997448332180509e-08,-18.00000013752792,1.3592639914688272e-05,-1.102777959487298e-06,-3.0348039309996926e-06,7.394561471031809e-06,-5.999246254459822e-07,-1.6509702572796775e-06,0,70,255.0,255.0,255.0
532,26.6,3.46400125043913,-1.0144877820722518e-07,-18.000000279183265,1.0697622136313054e-05,-8.679036585144151e-07,-2.388438589949265e-06,-0.00012319527260603886,9.994896664361162e-06,2.7505583899296415e-05,0,70,255.0,255.0,255.0
533,26.650000000000002,3.464001576913715,-1.2793583143174168e-07,-18.000000352074647,1.2731126540842045e-06,-1.032882930511677e-07,-2.842455410700129e-07,-0.00025378510668310953,2.0589717954168304e-05,5.6662138055872514e-05,0,70,255.0,255.0,255.0
534,26.700000000000003,3.4640012689255335,-1.0294858977083584e-07,-18.00000028331069,-1.4680888531998257e-05,1.1910681369024454e-06,3.277775215638067e-06,-0.0003843749407601802,3.1184539243975446e-05,8.58186922124486e-05,0,70,255.0,255.0,255.0
535,26.75,3.464,0.0,-18.0,-3.716438142193253e-05,3.0151656313462733e-06,8.297623680174563e-06,-0.0005149647748372416,4.177936053378183e-05,0.00011497524636902262,0,70,255.0,255.0,255.0
536,26.8,3.463997701144917,1.865073108384059e-07,-17.99999948673882,-5.07284227706041e-05,4.115623374267086e-06,1.132604246146941e-05,-2.7596879109613567e-05,2.238949183050058e-06,6.1615048827695954e-06,0,70,255.0,255.0,255.0
537,26.85,3.4639953332976363,3.7861199463443716e-07,-17.999998958073874,-3.9924069332893924e-05,3.239060549651282e-06,8.913774168451527e-06,0.00045977101661801446,-3.7301462167681717e-05,-0.00010265223660348343,0,70,255.0,255.0,255.0
538,26.900000000000002,3.463994114877897,4.774630230112613e-07,-17.99999868603952,-4.751321108802006e-06,3.8547715749886005e-07,1.0608188011209199e-06,0.0009471389123456423,-7.684187351841349e-05,-0.00021146597808973646,0,70,255.0,255.0,255.0
539,26.950000000000003,3.463995264305438,3.8420936759204644e-07,-17.99999894267011,5.478982190167169e-05,-4.445126802190178e-06,-1.2232823640522424e-05,0.0014345068080732705,-0.00011638228486914527,-0.0003202797195759895,0,70,255.0,255.0,255.0
540,27.0,3.464,0.0,-18.0,0.00013869935969852026,-1.1252751329415277e-05,-3.096715315647695e-05,0.0019218747038008636,-0.00015592269621987425,-0.0004290934610622347,0,70,255.0,255.0,255.0
541,27.05,3.464008579443969,-6.960547600318185e-07,-18.000001915516815,0.00018932105116772812,-1.5359715537581046e-05,-4.2269365914877945e-05,0.0001029929549674223,-8.355872106754282e-06,-2.2995049273798792e-05,0,70,255.0,255.0,255.0
542,27.1,3.4640174163703263,-1.4129992003305232e-06,-18.00000388852125,0.0001489986551952626,-1.2088338540090716e-05,-3.326665808385686e-05,-0.001715888793866019,0.00013921095200636568,0.0003831033625146371,0,70,255.0,255.0,255.0
543,27.150000000000002,3.464021963574698,-1.781916260613304e-06,-18.00000490376728,1.773217178112379e-05,-1.4386203369442767e-06,-3.959029663413687e-06,-0.0035347705426994605,0.0002867777761194856,0.000789201774303073,0,70,255.0,255.0,255.0
544,27.200000000000003,3.4640176738527133,-1.43388888059735e-06,-18.00000394600887,-0.00020447839907468846,1.6589439071858264e-05,4.5653519346451564e-05,-0.0053536522915329015,0.0004343446002326056,0.0011953001860915088,0,70,255.0,255.0,255.0
545,27.25,3.464,0.0,-18.0,-0.0005176330573721485,4.199583968631483e-05,0.00011557098894573324,-0.0071725340403662186,0.0005819114243457151,0.0016013985978799166,0,70,255.0,255.0,255.0
546,27.3,3.463961581079206,2.5977117292888673e-06,-17.999992051193935,-0.0010905557819002772,5.732323877605709e-05,0.0002057514211979319,-0.0157443749407586,3.1184539243967043e-05,0.002005818692207978,0,70,255.0,255.0,255.0
547,27.35,3.4638838012210593,5.273384806687655e-06,-17.999979087841137,-0.002092070551448031,4.5114293610711565e-05,0.00031615285816653387,-0.024316215841150988,-0.000519542345857781,0.0024102387865360397,0,70,255.0,255.0,255.0
548,27.400000000000002,3.463745230823311,6.650202019441953e-06,-17.99996009889137,-0.0035221773660154107,5.369004190278247e-06,0.0004467752998515393,-0.032888056741543374,-0.001070269230959529,0.002814658880864101,0,70,255.0,255.0,255.0
549,27.450000000000003,3.4635244402837078,5.35134615479735e-06,-17.999934073294405,-0.005380876225602416,-6.191262948524286e-05,0.000597618746252948,-0.04145989764193576,-0.001620996116061277,0.0032190789751921625,0,70,255.0,255.0,255.0
550,27.5,3.4632,0.0,-17.9999,-0.007668167130208869,-0.00015673060741584405,0.0007686831973707473,-0.05003173854232756,-0.002171723001162986,0.003623499069520195,0,70,255.0,255.0,255.0
551,27.55,3.4627554962392075,-1.0494792157123686e-05,-17.999857079707457,-0.010083097923565236,-0.00026193323956664875,0.0009472636811191313,-0.04656549319192569,-0.002036382284869141,0.0035197202804150654,0,70,255.0,255.0,255.0
552,27.6,3.4621945787454353,-2.6080540026420372e-05,-17.999805360114213,-0.012324716449401503,-0.0003603688359027611,0.0011206552254122587,-0.043099247841523816,-0.0019010415685752967,0.003415941491309936,0,70,255.0,255.0,255.0
553,27.650000000000002,3.4615259131320593,-4.641889181715543e-05,-17.99974510066724,-0.014393022707717678,-0.0004520373964241811,0.0012888578302501297,-0.03963300249112195,-0.0017657008522814518,0.0033121627022048065,0,70,255.0,255.0,255.0
554,27.700000000000003,3.460758165012456,-7.117149573859425e-05,-17.999676560813512,-0.016288016698513753,-0.0005369389211309088,0.0014518714956327442,-0.03616675714072008,-0.0016303601359876072,0.003208383913099677,0,70,255.0,255.0,255.0
555,27.75,3.4599,-0.0001,-17.9996,-0.01800969842178962,-0.0006150734100229387,0.0016096962215600909,-0.03270051179031841,-0.0014950194196937721,0.0031046051239945575,0,70,255.0,255.0,255.0
