idx,t,px,py,pz,vx,vy,vz,ax,ay,az,yaw,mode,ledr,ledg,ledb
0,0.0,1.5,3.0,0.0,-4.571084685289917e-21,-1.9877396196400516e-20,0.017974594246339348,5.4853016223479e-20,2.385287543568062e-19,-0.5084951309560722,0,70,255.0,255.0,255.0
1,0.05,1.5,3.0,0.00026468539286821644,-2.1026989552333618e-21,-9.143602250344235e-21,-0.007355686646683905,4.3882412978783196e-20,1.9082300348544497e-19,-0.5047161047648578,0,70,255.0,255.0,255.0
2,0.1,1.5,3.0,-0.0007324194761757119,-1.8284338741159663e-22,-7.950958478560171e-22,-0.03249701623014644,3.2911809734087394e-20,1.4311725261408372e-19,-0.5009370785736433,0,70,255.0,255.0,255.0
3,0.15000000000000002,1.5,3.0,-0.002981867041653749,1.188482018175379e-21,5.1681230110641374e-21,-0.05744939450404825,2.1941206489391592e-20,9.541150174272247e-20,-0.49715805238242894,0,70,255.0,255.0,255.0
4,0.2,1.5,3.0,-0.006474209738087858,2.0112772615275633e-21,8.746054326416232e-21,-0.08221282146838933,1.0970603244695796e-20,4.7705750871361224e-20,-0.4933790261912145,0,70,255.0,255.0,255.0
5,0.25,1.5,3.0,-0.0112,2.2855423426449584e-21,9.938698098200258e-21,-0.10678729712316967,0.0,0.0,-0.4895999999999998,0,70,255.0,255.0,255.0
6,0.30000000000000004,1.5,3.0,-0.01714979026191215,2.011277261527563e-21,8.746054326416226e-21,-0.13117282146838932,-1.097060324469581e-20,-4.7705750871361284e-20,-0.4858209738087854,0,70,255.0,255.0,255.0
7,0.35000000000000003,1.5,3.0,-0.024314132958346255,1.1884820181753777e-21,5.168123011064131e-21,-0.15536939450404824,-2.1941206489391607e-20,-9.541150174272252e-20,-0.4820419476175711,0,70,255.0,255.0,255.0
8,0.4,1.5,3.0,-0.032683580523824286,-1.8284338741159738e-22,-7.950958478560246e-22,-0.1793770162301464,-3.2911809734087406e-20,-1.4311725261408374e-19,-0.4782629214263567,0,70,255.0,255.0,255.0
9,0.45,1.5,3.0,-0.04224868539286821,-2.102698955233362e-21,-9.143602250344242e-21,-0.20319568664668392,-4.38824129787832e-20,-1.90823003485445e-19,-0.47448389523514234,0,70,255.0,255.0,255.0
10,0.5,1.5,3.0,-0.053,-4.571084685289917e-21,-1.9877396196400516e-20,-0.22682540575366067,-5.485301622347899e-20,-2.385287543568062e-19,-0.4707048690439266,0,70,255.0,255.0,255.0
11,0.55,1.5,3.0,-0.06492632434521964,-5.942410090876891e-21,-2.5840615055320675e-20,-0.2501610274797589,4.81482486096809e-35,1.925929944387236e-34,-0.4627199999999996,0,70,255.0,255.0,255.0
12,0.6000000000000001,1.5,3.0,-0.0780094486904393,-4.5710846852899115e-21,-1.9877396196400498e-20,-0.27309740575366065,5.485301622347908e-20,2.385287543568066e-19,-0.45473513095607254,0,70,255.0,255.0,255.0
13,0.65,1.5,3.0,-0.0922294108630491,-4.5710846852899025e-22,-1.987739619640045e-21,-0.2956345405753661,1.0970603244695802e-19,4.770575087136125e-19,-0.4467502619121455,0,70,255.0,255.0,255.0
14,0.7000000000000001,1.5,3.0,-0.10756624869043929,6.3995185594058966e-21,2.782835467496076e-20,-0.3177724319448752,1.6455904867043706e-19,7.155862630704188e-19,-0.4387653928682185,0,70,255.0,255.0,255.0
15,0.75,1.5,3.0,-0.124,1.5998796398514708e-20,6.957088668740181e-20,-0.3395110798621879,2.1941206489391595e-19,9.541150174272249e-19,-0.43078052382429144,0,70,255.0,255.0,255.0
16,0.8,1.5,3.0,-0.1415121123572093,2.175836310198e-20,9.461640589486648e-20,-0.3609350686125756,1.097060324469561e-20,4.7705750871360454e-20,-0.4261790261912144,0,70,255.0,255.0,255.0
17,0.8500000000000001,1.5,3.0,-0.16008967227989668,1.709585672298427e-20,7.434146177453785e-20,-0.3821289824813094,-1.9747085840452473e-19,-8.58703515684504e-19,-0.42157752855813735,0,70,255.0,255.0,255.0
18,0.9,1.5,3.0,-0.17972117602397936,2.0112772615275565e-21,8.746054326416171e-21,-0.4030928214683893,-4.059123200537447e-19,-1.7651127822403664e-18,-0.4169760309250603,0,70,255.0,255.0,255.0
19,0.9500000000000001,1.5,3.0,-0.20039511984537475,-2.3495375282390217e-20,-1.0216981644949888e-19,-0.4238265855738154,-6.14353781702965e-19,-2.6715220487962312e-18,-0.41237453329198326,0,70,255.0,255.0,255.0
20,1.0,1.5,3.0,-0.2221,-5.942410090876892e-20,-2.5840615055320673e-19,-0.44433027479758763,-8.227952433521849e-19,-3.577931315352093e-18,-0.4077730356589071,0,70,255.0,255.0,255.0
21,1.05,1.5,3.0,-0.24482282622594312,-8.109104231704312e-20,-3.5262500852414516e-19,-0.46451469806993884,-4.388241297878244e-20,-1.9082300348544182e-19,-0.39960389523514184,0,70,255.0,255.0,255.0
22,1.1,1.5,3.0,-0.26854466218997414,-6.381234220664718e-20,-2.774884509017509e-19,-0.48429066432110185,7.3503041739462e-19,3.1962853083812093e-18,-0.39143475481137663,0,70,255.0,255.0,255.0
23,1.1500000000000001,1.5,3.0,-0.2932450850410336,-7.588000577581042e-21,-3.299647768602401e-20,-0.5036581735510766,1.5139432477680226e-18,6.5833936202478605e-18,-0.38326561438761136,0,70,255.0,255.0,255.0
24,1.2000000000000002,1.5,3.0,-0.31890367192806196,8.758198257015518e-20,3.808509111230355e-19,-0.522617225759863,2.292856078141425e-18,9.970501932114512e-18,-0.3750964739638461,0,70,255.0,255.0,255.0
25,1.25,1.5,3.0,-0.3455,2.2169760723656095e-19,9.64053715525425e-19,-0.5411678209474611,3.0717689085148246e-18,1.335761024398115e-17,-0.366927333540076,0,70,255.0,255.0,255.0
26,1.3,1.5,3.0,-0.37301498273901823,3.0260580616619254e-19,1.3158836282017144e-18,-0.5593901391076684,1.6455904867043472e-19,7.155862630704103e-19,-0.3619653928682176,0,70,255.0,255.0,255.0
27,1.35,1.5,3.0,-0.401434878960207,2.3815351210360446e-19,1.0356123418324663e-18,-0.577364360234283,-2.742650811173955e-18,-1.192643771784033e-17,-0.3570034521963592,0,70,255.0,255.0,255.0
28,1.4000000000000001,1.5,3.0,-0.43074728381188665,2.834072504879672e-20,1.2323985641768018e-19,-0.5950904843273044,-5.649860671018345e-18,-2.4568461698751067e-17,-0.3520415115245008,0,70,255.0,255.0,255.0
29,1.4500000000000002,1.5,3.0,-0.4609397924423776,-3.268325549982305e-19,-1.4212338280426433e-18,-0.612568511386733,-8.557070530862735e-18,-3.721048567966181e-17,-0.3470795708526424,0,70,255.0,255.0,255.0
30,1.5,1.5,3.0,-0.492,-8.27366328037475e-19,-3.597808711548494e-18,-0.6297984414125685,-1.1464280390707113e-17,-4.985250966057251e-17,-0.34211763018077956,0,70,255.0,255.0,255.0
31,1.55,1.5,3.0,-0.5239148428179841,-1.129332182347727e-18,-4.9109095042827125e-18,-0.6467407454993876,-6.143537817029557e-19,-2.6715220487961885e-18,-0.33557453329198433,0,70,255.0,255.0,255.0
32,1.6,1.5,3.0,-0.5566686219691981,-8.888017062077708e-19,-3.864960916428113e-18,-0.6633558947417669,1.0235572827301201e-17,4.450946556298013e-17,-0.3290314364031891,0,70,255.0,255.0,255.0
33,1.6500000000000001,1.5,3.0,-0.5902449797114202,-1.0577489961760593e-19,-4.5996294798469535e-19,-0.6796438891397065,2.1085499436305355e-17,9.169045317475645e-17,-0.3224883395143939,0,70,255.0,255.0,255.0
34,1.7000000000000002,1.5,3.0,-0.6246275583024282,1.2197482374227674e-18,5.304084401047539e-18,-0.6956047286932063,3.1935426045309514e-17,1.3887144078653277e-16,-0.31594524262559864,0,70,255.0,255.0,255.0
35,1.75,1.5,3.0,-0.6598,3.087767704913339e-18,1.3427181130668551e-17,-0.7112384134022662,4.278535265431362e-17,1.8605242839830882e-16,-0.3094021457368026,0,70,255.0,255.0,255.0
36,1.8,1.5,3.0,-0.6957456459890456,4.2147229232247155e-18,1.832775438892913e-17,-0.7265268788947824,2.292856078141382e-18,9.970501932114319e-18,-0.3021364739638418,0,70,255.0,255.0,255.0
37,1.85,1.5,3.0,-0.7324466331630008,3.3170533127274766e-18,1.4424231323879983e-17,-0.7414520607986504,-3.819964049803085e-17,-1.6611142453408018e-16,-0.2948708021908811,0,70,255.0,255.0,255.0
38,1.9000000000000001,1.5,3.0,-0.7698847973424333,3.9475887342162593e-19,1.7166119355210943e-18,-0.7560139591138705,-7.86921370742031e-17,-3.4219335100027467e-16,-0.2876051304179203,0,70,255.0,255.0,255.0
39,1.9500000000000002,1.5,3.0,-0.8080419743479106,-4.552160394692839e-18,-1.9795103776147512e-17,-0.7702125738404425,-1.1918463365037532e-16,-5.182752774664691e-16,-0.2803394586449595,0,70,255.0,255.0,255.0
40,2.0,1.5,3.0,-0.8469,-1.152370449161588e-17,-5.011091581112571e-17,-0.7840479049783664,-1.596771302265474e-16,-6.943572039326629e-16,-0.2730737868719988,0,70,255.0,255.0,255.0
41,2.0500000000000003,1.5,3.0,-0.8864417732258337,-1.5729559510551138e-17,-6.840010805143384e-17,-0.7975837389214824,-8.557070530861944e-18,-3.721048567965828e-17,-0.26835957085263934,0,70,255.0,255.0,255.0
42,2.1,1.5,3.0,-0.9266544453787988,-1.2379411544702141e-17,-5.383196437909183e-17,-0.8108838620636304,1.4256298916482218e-16,6.199362325733407e-16,-0.2636453548332799,0,70,255.0,255.0,255.0
43,2.15,1.5,3.0,-0.967526230918847,-1.4732605940689618e-18,-6.406484794099964e-18,-0.8239482744048103,2.936830488605063e-16,1.2770829508263396e-15,-0.2589311388139205,0,70,255.0,255.0,255.0
44,2.2,1.5,3.0,-1.0090453443059304,1.6988893341348587e-17,7.387633070354249e-17,-0.8367769759450224,4.448031085561917e-16,1.934229669079344e-15,-0.254216922794561,0,70,255.0,255.0,255.0
45,2.25,1.5,3.0,-1.0512,4.300705026155018e-17,1.870164821138343e-16,-0.8493699666842665,5.959231682518758e-16,2.5913763873323428e-15,-0.24950270677519626,0,70,255.0,255.0,255.0
46,2.3000000000000003,1.5,3.0,-1.0939768611076202,5.870351511897983e-17,2.5527267781680626e-16,-0.8616341654192864,3.193542604530639e-17,1.3887144078651914e-16,-0.2410652426255996,0,70,255.0,255.0,255.0
47,2.35,1.5,3.0,-1.137356385321804,4.620059286608108e-17,2.0090362619248732e-16,-0.8734764909468264,-5.320523161612579e-16,-2.3136335057592824e-15,-0.23262777847600302,0,70,255.0,255.0,255.0
48,2.4000000000000004,1.5,3.0,-1.181317478982178,5.498283502853703e-18,2.3909327240876598e-17,-0.8848969432668867,-1.0960400583678274e-15,-4.766138452305107e-15,-0.22419031432640638,0,70,255.0,255.0,255.0
49,2.45,1.5,3.0,-1.2258390484283679,-6.34034129707015e-17,-2.7571021903802254e-16,-0.8958955223794671,-1.6600278005743916e-15,-7.218643398850908e-15,-0.21575285017680979,0,70,255.0,255.0,255.0
50,2.5,1.5,3.0,-1.2709,-1.6050449655458484e-16,-6.979550126442115e-16,-0.9064722282845676,-2.2240155427809558e-15,-9.67114834539671e-15,-0.20731538602721145,0,70,255.0,255.0,255.0
51,2.5500000000000003,1.5,3.0,-1.3164811823436864,-2.1908450096536814e-16,-9.52690603215791e-16,-0.916743599401372,-1.1918463365036396e-16,-5.182752774664204e-16,-0.20353945864496195,0,70,255.0,255.0,255.0
52,2.6,1.5,3.0,-1.3625712133339856,-1.7242295991962218e-16,-7.497825403908576e-16,-0.9268261741490639,1.9856462754802097e-15,8.634597790463788e-15,-0.19976353126271248,0,70,255.0,255.0,255.0
53,2.6500000000000004,1.5,3.0,-1.4091606531524414,-2.051987341734614e-17,-8.923082416940709e-17,-0.9367199525276433,4.090477184610801e-15,1.7787470858394078e-14,-0.195987603880463,0,70,255.0,255.0,255.0
54,2.7,1.5,3.0000000000000004,-1.4562400619805977,2.3662475854145734e-16,1.028964545448548e-15,-0.9464249345371102,6.195308093741375e-15,2.6940343926324286e-14,-0.19221167649821352,0,70,255.0,255.0,255.0
55,2.75,1.5,3.0,-1.5038,5.990109359567892e-16,2.6048035684630116e-15,-0.9559411201774647,8.30013900287195e-15,3.60932169942545e-14,-0.18843574911596672,0,70,255.0,255.0,255.0
56,2.8000000000000003,1.5,3.0,-1.5518288095176345,8.176344887424928e-16,3.555489735046358e-15,-0.9651354369752277,4.448031085561501e-16,1.9342296690791673e-15,-0.17933692279455518,0,70,255.0,255.0,255.0
57,2.85,1.5,3.0000000000000004,-1.6003059613422552,6.434912468124076e-16,2.798226535370944e-15,-0.9738748124569202,-7.41053278575958e-15,-3.2224757656095863e-14,-0.17023809647314375,0,70,255.0,255.0,255.0
58,2.9000000000000004,1.5,3.0000000000000004,-1.6492087084080589,7.658121016653064e-17,3.3301396943675365e-16,-0.9821592466225422,-1.5265868680075377e-14,-6.638374498127121e-14,-0.1611392701517322,0,70,255.0,255.0,255.0
59,2.95,1.5000000000000002,3.0000000000000004,-1.6985143036492416,-8.830956211951279e-16,-3.8401479627561675e-15,-0.9899887394720934,-2.312120457439111e-14,-1.0054273230644623e-13,-0.15204044383032078,0,70,255.0,255.0,255.0
60,3.0,1.5,3.0,-1.7482,-2.235539247272572e-15,-9.721259261207835e-15,-0.9973632910055741,-3.0976540468706833e-14,-1.347017196316213e-13,-0.14294161750890844,0,70,255.0,255.0,255.0
61,3.0500000000000003,1.4999999999999998,2.9999999999999996,-1.7982451795857768,-3.0514534540046028e-15,-1.3269268336969644e-14,-1.004410652697717,-1.6600278005742315e-15,-7.218643398850236e-15,-0.13895285017680442,0,70,255.0,255.0,255.0
62,3.1,1.4999999999999996,2.9999999999999987,-1.848637741296995,-2.4015420273300084e-15,-1.0443123601092918e-14,-1.0112585760232546,2.7656484867558106e-14,1.2026443283391968e-13,-0.13496408284470043,0,70,255.0,255.0,255.0
63,3.1500000000000004,1.4999999999999993,2.9999999999999987,-1.8993677132153257,-2.858049672487765e-16,-1.2428250535776079e-15,-1.017907060982187,5.697299753569071e-14,2.4774750906669075e-13,-0.1309753155125964,0,70,255.0,255.0,255.0
64,3.2,1.4999999999999998,2.999999999999999,-1.950425123422437,3.2957577262390545e-15,1.4331627305576118e-14,-1.0243561075745142,8.628951020382304e-14,3.7523058529946066e-13,-0.1269865481804924,0,70,255.0,255.0,255.0
65,3.25,1.5,3.0,-2.0018,8.343146053133498e-15,3.628023347636833e-14,-1.0306057158002362,1.1560602287195537e-13,5.027136615322305e-13,-0.12299778084839197,0,70,255.0,255.0,255.0
66,3.3000000000000003,1.5000000000000007,3.000000000000002,-2.05348087213926,1.1388179327275917e-14,4.952158361283221e-14,-1.0365659522339017,6.195308093740771e-15,2.6940343926321626e-14,-0.11541167649822942,0,70,255.0,255.0,255.0
67,3.35,1.500000000000001,3.0000000000000044,-2.1054502734697653,8.962676862507624e-15,3.89742678690007e-14,-1.0421468834500591,-1.0321540668447287e-13,-4.48832973679583e-13,-0.10782557214806693,0,70,255.0,255.0,255.0
68,3.4000000000000004,1.5000000000000013,3.0000000000000058,-2.1576892387306406,1.0666386588285713e-15,4.638286244873645e-15,-1.0473485094487085,-2.1262612146268748e-13,-9.24606291285492e-13,-0.10023946779790437,0,70,255.0,255.0,255.0
69,3.45,1.500000000000001,3.0000000000000044,-2.2101788026610105,-1.2299935283761094e-14,-5.3486361259548364e-14,-1.0521708302298496,-3.220368362409011e-13,-1.4003796088913964e-12,-0.09265336344774189,0,70,255.0,255.0,255.0
70,3.5,1.5,3.0,-2.2629,-3.113704496526142e-14,-1.3539967464426548e-13,-1.0566138457934826,-4.3144755101911473e-13,-1.876152926497301e-12,-0.0850672590975865,0,70,255.0,255.0,255.0
71,3.5500000000000003,1.4999999999999982,2.999999999999992,-2.315834531857185,-4.250126385509907e-14,-1.848170661143592e-13,-1.06071753836668,-2.3121204574388903e-14,-1.0054273230643652e-13,-0.079080443830313,0,70,255.0,255.0,255.0
72,3.6,1.499999999999996,2.999999999999983,-2.3689667648239454,-3.3449165422700486e-14,-1.4545394787490993e-13,-1.0645218901765139,3.852051418703333e-13,1.6750674618844122e-12,-0.07309362856303955,0,70,255.0,255.0,255.0
73,3.6500000000000004,1.4999999999999951,2.9999999999999782,-2.4222817318621144,-3.980749668065535e-15,-1.7310319925916996e-14,-1.068026901222984,7.935314883150591e-13,3.4506776560752767e-12,-0.06710681329576604,0,70,255.0,255.0,255.0
74,3.7,1.499999999999996,2.999999999999983,-2.4757644659335214,4.5903983408805323e-14,1.996138177326173e-13,-1.0712325715060904,1.2018578347597813e-12,5.2262878502661255e-12,-0.06111999802849259,0,70,255.0,255.0,255.0
75,3.75,1.5,3.0,-2.5294,1.1620503380791218e-13,5.053184651006936e-13,-1.0741389010258335,1.6101841812045031e-12,7.001898044456973e-12,-0.05513318276122803,0,70,255.0,255.0,255.0
76,3.8000000000000003,1.500000000000007,3.0000000000000315,-2.5831730004320015,1.5861687609312036e-13,6.897466808446046e-13,-1.0767238942993766,8.628951020381463e-14,3.7523058529942385e-13,-0.048266548180495014,0,70,255.0,255.0,255.0
77,3.85,1.5000000000000144,3.0000000000000635,-2.637066667234454,1.2483398482829436e-13,5.428415236306391e-13,-1.078965555843883,-1.4376051607968606e-12,-6.251436873858065e-12,-0.04139991359976206,0,70,255.0,255.0,255.0
78,3.9000000000000004,1.5000000000000187,3.00000000000008,-2.691063833820906,1.4856360013433504e-14,6.460299345879452e-14,-1.0808638856593527,-2.9614998317975487e-12,-1.2878104333015615e-11,-0.03453327901902904,0,70,255.0,255.0,255.0
79,3.95,1.5000000000000149,3.0000000000000644,-2.745147333604905,-1.7131599835146012e-13,-7.449689096709203e-13,-1.082418883745786,-4.485394502798224e-12,-1.9504771792173103e-11,-0.027666644438296095,0,70,255.0,255.0,255.0
80,4.0,1.5,3.0,-2.7993,-4.3368309026638726e-13,-1.885874185758509e-12,-1.0836305501031827,-6.0092891737988995e-12,-2.613143925133059e-11,-0.02080000985756847,0,70,255.0,255.0,255.0
81,4.05,1.4999999999999731,2.999999999999883,-2.85350546641481,-5.919662405173822e-13,-2.574169657264058e-12,-1.0845468844358155,-3.2203683624092155e-13,-1.4003796088914798e-12,-0.015853363447752518,0,70,255.0,255.0,255.0
82,4.1000000000000005,1.4999999999999456,2.9999999999997633,-2.907750566238241,-4.658867738904745e-13,-2.0259121466476355e-12,-1.085215886447958,5.365215501317158e-12,2.333068003354807e-11,-0.010906717037936478,0,70,255.0,255.0,255.0
83,4.15,1.4999999999999314,2.9999999999997016,-2.962022932854265,-5.5444690385668735e-14,-2.411016539092604e-13,-1.0856375561396092,1.1052467838875136e-11,4.806173967598718e-11,-0.005960070628120527,0,70,255.0,255.0,255.0
84,4.2,1.4999999999999447,2.9999999999997597,-3.0163101996468593,6.393600099970351e-13,2.7802618209510656e-12,-1.0858118935107701,1.6739720176433112e-11,7.279279931842629e-11,-0.0010134242183045747,0,70,255.0,255.0,255.0
85,4.25,1.5,3.0,-3.0706,1.6185273272576369e-12,7.038178277933342e-12,-1.08573889856144,2.2426972513991085e-11,9.752385896086539e-11,0.0039332221915024945,0,70,255.0,255.0,255.0
86,4.3,1.5000000000001,3.000000000000435,-3.124878733908757,2.2092480859764082e-12,9.606931948211627e-12,-1.0853445679573643,1.2018578347598542e-12,5.226287850266435e-12,0.01184000197151886,0,70,255.0,255.0,255.0
87,4.3500000000000005,1.5000000000002032,3.0000000000008837,-3.1791278678125874,1.738713110733604e-12,7.560807062959905e-12,-1.084554898364288,-2.0023256844471758e-11,-8.707128326033415e-11,0.019746781751535363,0,70,255.0,255.0,255.0
88,4.4,1.5000000000002562,3.0000000000011147,-3.2333276347620368,2.0692240152924033e-13,8.998036221782482e-13,-1.083369889782211,-4.124837152370298e-11,-1.7936885437093311e-10,0.02765356153155173,0,70,255.0,255.0,255.0
89,4.45,1.5000000000002063,3.000000000000897,-3.2874582678076583,-2.38612404163668e-12,-1.0376078374133334e-11,-1.081789542211133,-6.247348620293422e-11,-2.7166642548153203e-10,0.03556034131156809,0,70,255.0,255.0,255.0
90,4.5,1.5,3.0,-3.3415,-6.04042621876416e-12,-2.6266838925974858e-11,-1.0798138556510544,-8.369860088216548e-11,-3.639639965921309e-10,0.043467121091586236,0,70,255.0,255.0,255.0
91,4.55,1.4999999999996265,2.9999999999983755,-3.3954339979501587,-8.245026103388252e-12,-3.5853558135582453e-11,-1.0774988437347224,-4.48539450279851e-12,-1.9504771792174256e-11,0.04913335556169576,0,70,255.0,255.0,255.0
92,4.6000000000000005,1.4999999999992415,2.9999999999967017,-3.4492451625114144,-6.4889656690439424e-12,-2.8217316105191985e-11,-1.0749005200948847,7.472781187656985e-11,3.249544530077885e-10,0.05479959003180539,0,70,255.0,255.0,255.0
93,4.65,1.4999999999990432,2.9999999999958407,-3.5029193280975894,-7.722449157312962e-13,-3.3581128348037258e-12,-1.072018884731542,1.539410182559368e-10,6.694136778077451e-10,0.06046582450191491,0,70,255.0,255.0,255.0
94,4.7,1.4999999999992302,2.999999999996653,-3.55644232912251,8.905136156549687e-12,3.872405167558228e-11,-1.0688539376446933,2.331542246353038e-10,1.0138729026077018e-09,0.06613205897202443,0,70,255.0,255.0,255.0
95,4.75,1.5,3.0,-3.6098,2.2543177547799003e-11,9.802917742596608e-11,-1.0654056788343393,3.1236743101467077e-10,1.3583321274076585e-09,0.0717982934421304,0,70,255.0,255.0,255.0
96,4.800000000000001,1.5000000000013942,3.0000000000060636,-3.662978074290607,3.0770856327576606e-11,1.3380730059411826e-10,-1.0616680571037442,1.6739720176428867e-11,7.279279931840791e-11,0.07770657578167617,0,70,255.0,255.0,255.0
97,4.8500000000000005,1.5000000000028308,3.0000000000123093,-3.7159618821417584,2.4217149565442162e-11,1.0530845735780809e-10,-1.0576350212561716,-2.7888799066180777e-10,-1.2127465287708196e-09,0.08361485812122182,0,70,255.0,255.0,255.0
98,4.9,1.5000000000035698,3.000000000015523,-3.768736652847607,2.8820572613959356e-12,1.2532647717036697e-11,-1.0533065712916219,-5.745157015000444e-10,-2.498285856860047e-09,0.08952314046076748,0,70,255.0,255.0,255.0
99,4.95,1.5000000000028726,3.0000000000124913,-3.821287615702304,-3.323442058456208e-11,-1.445201283281958e-10,-1.048682707210095,-8.701434123382811e-10,-3.783825184949275e-09,0.09543142280031314,0,70,255.0,255.0,255.0
100,5.0,1.5,3.0,-3.8736,-8.413228397243185e-11,-3.6584987077788946e-10,-1.043763429011591,-1.1657711231765177e-09,-5.0693645130385016e-09,0.10133970513985346,0,70,255.0,255.0,255.0
101,5.050000000000001,1.4999999999947957,2.9999999999773697,-3.925658504887417,-1.1483839920691817e-10,-4.993756442408904e-10,-1.0385169278503052,-6.247348620291852e-11,-2.716664254814628e-10,0.10852034131157648,0,70,255.0,255.0,255.0
102,5.1000000000000005,1.4999999999894356,2.9999999999540607,-3.977445708921555,-9.037963259272472e-11,-3.930165133260401e-10,-1.0329113948804334,1.0408241507706608e-09,4.5260316620754916e-09,0.11570097748329936,0,70,255.0,255.0,255.0
103,5.15,1.4999999999866773,2.9999999999420663,-4.028943660511984,-1.0755984129852446e-11,-4.677247803334306e-11,-1.0269468301019753,2.1441217877442406e-09,9.323729749632444e-09,0.12288161365502225,0,70,255.0,255.0,255.0
104,5.2,1.4999999999892795,2.9999999999533813,-4.080134408068275,1.2403254618169854e-10,5.39356461637201e-10,-1.020623233514931,3.2474194247178203e-09,1.4121427837189399e-08,0.13006224982674514,0,70,255.0,255.0,255.0
105,5.25,1.5,3.0,-4.131,3.139859583419284e-10,1.3653703056855917e-09,-1.0139406051193007,4.350717061691399e-09,1.891912592474635e-08,0.13724288599846446,0,70,255.0,255.0,255.0
106,5.300000000000001,1.5000000000194218,3.000000000084457,-4.181523106159729,4.285827405000961e-10,1.8636952763694436e-09,-1.0069362314950383,2.3315422463524506e-10,1.0138729026074445e-09,0.14293205897203132,0,70,255.0,255.0,255.0
107,5.3500000000000005,1.500000000039427,3.000000000171448,-4.231688882172027,3.373013808054567e-10,1.4667575959463527e-09,-0.9996473992220976,-3.884408612420836e-09,-1.6891380119531143e-08,0.14862123194559806,0,70,255.0,255.0,255.0
108,5.4,1.500000000049721,3.0000000002162115,-4.281483105104461,4.014187925801395e-11,1.7455726441633555e-10,-0.9920741083004785,-8.001971449476917e-09,-3.479663314166973e-08,0.1543104049191648,0,70,255.0,255.0,255.0
109,5.45,1.5000000000400098,3.000000000173983,-4.330891552024596,-4.628957641422321e-10,-2.0129057182206077e-09,-0.9842163587301811,-1.2119534286532999e-08,-5.270188616380832e-08,0.15999957789273156,0,70,255.0,255.0,255.0
110,5.5,1.5,3.0,-4.3799,-1.1718115493952817e-09,-5.0956313519644776e-09,-0.9760741505112055,-1.6237097123589078e-08,-7.060713918594691e-08,0.16568875086629564,0,70,255.0,255.0,255.0
111,5.550000000000001,1.4999999999275158,2.999999999684803,-4.428493870473672,-1.5994925627934661e-09,-6.955405461236886e-09,-0.9676261461695405,-8.701434123380605e-10,-3.783825184948337e-09,0.17223142280030174,0,70,255.0,255.0,255.0
112,5.6000000000000005,1.4999999998528566,2.9999999993601456,-4.476657162390343,-1.2588258906291019e-09,-5.474013870459373e-09,-0.9588510082311753,1.4496810298912686e-08,6.303948881604907e-08,0.1787740947343077,0,70,255.0,255.0,255.0
113,5.65,1.4999999998144389,2.9999999991930872,-4.524373519070178,-1.498115329022032e-10,-6.514565796320012e-10,-0.9497487366961097,2.986376401016343e-08,1.2986280281704644e-07,0.18531676666831368,0,70,255.0,255.0,255.0
114,5.7,1.4999999998506812,2.999999999350686,-4.571626583833342,1.72755051038723e-09,7.512266411245226e-09,-0.940319331564344,4.523071772141417e-08,1.9668611681804384e-07,0.19185943860231963,0,70,255.0,255.0,255.0
115,5.75,1.5,3.0,-4.6184,4.373260239239198e-09,1.9017155102172318e-08,-0.930562792835878,6.059767143266493e-08,2.6350943081904127e-07,0.19840211053632295,0,70,255.0,255.0,255.0
116,5.800000000000001,1.5000000002705143,3.000000001176333,-4.664677411945586,5.96938751067377e-09,2.5957926568578095e-08,-0.9204791838268009,3.2474194247170043e-09,1.412142783718583e-08,0.20494224982674833,0,70,255.0,255.0,255.0
117,5.8500000000000005,1.5000000005491467,3.0000000023879694,-4.7104424682666055,4.698002181710951e-09,2.042929788589114e-08,-0.910068567853203,-5.41028325832299e-08,-2.3526657514466516e-07,0.21148238911717357,0,70,255.0,255.0,255.0
118,5.9,1.5000000006925225,3.0000000030114395,-4.755678818614831,5.591042523507989e-10,2.4312690541116742e-09,-0.8993309449150837,-1.114530845911768e-07,-4.846545781265161e-07,0.2180225284075988,0,70,255.0,255.0,255.0
119,5.95,1.5000000005572656,3.0000000024232727,-4.800370112642038,-6.447306277406688e-09,-2.8036159926760315e-08,-0.8882663150124432,-1.6880333659912372e-07,-7.340425811083671e-07,0.22456266769802408,0,70,255.0,255.0,255.0
120,6.0,1.5,3.0,-4.8445,-1.632122940756151e-08,-7.097298905672479e-08,-0.8768746781452814,-2.2615358860707057e-07,-9.83430584090218e-07,0.23110280698844754,0,70,255.0,255.0,255.0
121,6.050000000000001,1.4999999989904274,2.999999995609866,-4.888052481743986,-2.227805747990161e-08,-9.687630081307548e-08,-0.8651771185232516,-1.2119534286529947e-08,-5.27018861637951e-08,0.23679957789273845,0,70,255.0,255.0,255.0
122,6.1000000000000005,1.499999997950556,2.9999999910879773,-4.931012964543238,-1.7533182836214706e-08,-7.624317767310516e-08,-0.8531947203560074,2.0191452003400686e-07,8.780268117626114e-07,0.24249634879702922,0,70,255.0,255.0,255.0
123,6.15,1.4999999974154707,2.999999988761155,-4.973367206470499,-2.086605476500999e-09,-9.073619636814656e-09,-0.8409274836435487,4.1594857435454367e-07,1.808755509689018e-06,0.24819311970132002,0,70,255.0,255.0,255.0
124,6.2,1.4999999979202572,2.9999999909562223,-5.015100965598506,2.4061674599239523e-08,1.0463237329579596e-07,-0.8283754083858755,6.299826286750805e-07,2.7394842076154243e-06,0.25388989060561085,0,70,255.0,255.0,255.0
125,6.25,1.5,3.0,-5.0562,6.091165739100684e-08,2.6487480112472683e-07,-0.8155384945829878,8.440166829956173e-07,3.6702129055418315e-06,0.2595866615099016,0,70,255.0,255.0,255.0
126,6.300000000000001,1.5000000037677763,3.0000000163842033,-5.096649461078474,8.314284240893266e-08,3.615472766837239e-07,-0.8023803420801826,4.523071772140276e-08,1.9668611681799432e-07,0.26673943860229743,0,70,255.0,255.0,255.0
127,6.3500000000000005,1.5000000076486293,3.000000033260122,-5.1364320735604405,6.543472916314786e-08,2.8454341280652944e-07,-0.7888645507227579,-7.535552475527976e-07,-3.276840671905781e-06,0.27389221569469313,0,70,255.0,255.0,255.0
128,6.4,1.5000000096455943,3.000000041943939,-5.175529955503173,7.787317653653129e-09,3.386320949314688e-08,-0.7749911205107134,-1.552341212826998e-06,-6.750367460629556e-06,0.28104499278708883,0,70,255.0,255.0,255.0
129,6.45,1.5000000077617062,3.0000000337518378,-5.213925224963935,-8.979939211955138e-08,-3.9049333325642373e-07,-0.7607600514440491,-2.3511271781011984e-06,-1.022389424935333e-05,0.28819776987948453,0,70,255.0,255.0,255.0
130,6.5,1.5,3.0,-5.2516,-2.2732540015646586e-07,-9.885262154421826e-07,-0.7461713435227649,-3.1499131433753983e-06,-1.3697421038077104e-05,0.29535054697187935,0,70,255.0,255.0,255.0
131,6.550000000000001,1.4999999859384676,2.9999999388533207,-5.288536873942121,-3.1029331215582903e-07,-1.34931280592182e-06,-0.7312535131560174,-1.688033365990808e-07,-7.340425811081799e-07,0.30136266769801406,0,70,255.0,255.0,255.0
132,6.6000000000000005,1.499999971454927,2.9999998758715347,-5.324720341214997,-2.442057338163767e-07,-1.0619304735530124e-06,-0.7160350767529634,2.812306470177184e-06,1.2229335875860513e-05,0.30737478842414867,0,70,255.0,255.0,255.0
133,6.65,1.4999999640021524,2.9999998434630886,-5.360135371516812,-2.9062665138111636e-08,-1.2637921833577272e-07,-0.7005160343136027,5.793416276953449e-06,2.51927143328292e-05,0.31338690915028333,0,70,255.0,255.0,255.0
134,6.7,1.4999999710329188,2.999999874036428,-5.394766934545752,3.3513589387896604e-07,1.457340959729899e-06,-0.6846963858379351,8.774526083729712e-06,3.81560927897979e-05,0.31939902987641794,0,70,255.0,255.0,255.0
135,6.75,1.5,3.0,-5.4286,8.483899432348566e-07,3.6892300606440033e-06,-0.6685761313259609,1.1755635890505977e-05,5.111947124676658e-05,0.3254111506025543,0,70,255.0,255.0,255.0
136,6.800000000000001,1.5000000524783532,3.000000228202514,-5.461619843153045,1.1580304062143833e-06,5.035703947003556e-06,-0.6521736052957559,6.299826286749209e-07,2.739484207614727e-06,0.3306898906056374,0,70,255.0,255.0,255.0
137,6.8500000000000005,1.5000001065316628,3.0000004632537385,-5.493812961579574,9.113882061023591e-07,3.963178481405521e-06,-0.6355071422653971,-1.0495670633155935e-05,-4.564050283153627e-05,0.3359686306087204,0,70,255.0,255.0,255.0
138,6.9,1.500000134345796,3.0000005842037063,-5.525166158429581,1.0846334289879355e-07,4.716536638499453e-07,-0.618576742234884,-2.162132389498679e-05,-9.402048987068727e-05,0.34124737061180344,0,70,255.0,255.0,255.0
139,6.95,1.5000001081066192,3.00000047010245,-5.555666236853059,-1.2507441833963123e-06,-5.4388705056631715e-06,-0.6013824052042168,-3.274697715681765e-05,-0.00014240047690983827,0.3465261106148864,0,70,255.0,255.0,255.0
140,7.0,1.5,3.0,-5.5853,-3.1662343727829604e-06,-1.376839402713383e-05,-0.5839241311733955,-4.387263041864851e-05,-0.00019078046394898924,0.3518048506179676,0,70,255.0,255.0,255.0
141,7.050000000000001,1.4999998041481195,2.9999991483366233,-5.614051753445706,-4.321828312701704e-06,-1.87935029820924e-05,-0.5660520656609587,-2.3511271781005957e-06,-1.0223894249350744e-05,0.36307776987949686,0,70,255.0,255.0,255.0
142,7.1000000000000005,1.4999996024184215,2.9999982711135096,-5.641895812466712,-3.4013470905930597e-06,-1.4790783452069074e-05,-0.5476163541854456,3.917037606244657e-05,0.00017033267545028455,0.37435068914102587,0,70,255.0,255.0,255.0
143,7.15,1.4999994986146632,2.999997819722086,-5.668803994764866,-4.047907064570614e-07,-1.7602354370640063e-06,-0.5286169967468561,8.069187930299374e-05,0.00035088924514991985,0.38562360840255494,0,70,255.0,255.0,255.0
144,7.2,1.4999995965406037,2.999998245553774,-5.694748118042012,4.667840839706286e-06,2.0298141062922785e-05,-0.5090539933451903,0.00012221338254354093,0.0005314458148495552,0.39689652766408395,0,70,255.0,255.0,255.0
145,7.25,1.5,3.0,-5.7197,1.1816547547896985e-05,5.138434604789132e-05,-0.48892734398044796,0.00016373488578408802,0.0007120023845491904,0.40816944692561163,0,70,255.0,255.0,255.0
146,7.300000000000001,1.500000730929168,3.000003178450995,-5.743634743064136,1.612928284459243e-05,7.013830798136605e-05,-0.46843413206039763,8.774526083727492e-06,3.815609278978824e-05,0.41155902987639154,0,70,255.0,255.0,255.0
147,7.3500000000000005,1.5000014837946514,3.000006452292222,-5.76654058855358,1.2694000156269875e-05,5.519995532687078e-05,-0.4477714409928086,-0.00014618583361663033,-0.000635690198969602,0.4149486128271714,0,70,255.0,255.0,255.0
148,7.4,1.5000018711955505,3.0000081369079514,-5.788409062510958,1.5106994829294613e-06,6.5692880844061e-06,-0.4269392707776806,-0.0003011461933169881,-0.0013095364907289922,0.4183381957779513,0,70,255.0,255.0,255.0
149,7.45,1.5000015057309666,3.000006547682453,-5.80923169097889,-1.7420619175428823e-05,-7.575369374602798e-05,-0.4059376214150136,-0.00045610655301734585,-0.0019833827824883824,0.42172777872873113,0,70,255.0,255.0,255.0
150,7.5,1.5,3.0,-5.829,-4.4099955818804976e-05,-0.00019176899016443144,-0.38476649290480763,-0.0006110669127177037,-0.002657229074247772,0.42511736167951275,0,70,255.0,255.0,255.0
151,7.550000000000001,1.4999972721352077,2.9999873378593978,-5.847713274297751,-6.0195303065668036e-05,-0.00030975972894347443,-0.36389140609744763,-3.27469771568093e-05,-0.0020624004769138815,0.4098861106148752,0,70,255.0,255.0,255.0
152,7.6000000000000005,1.499994462402973,2.9999695197176033,-5.865401833318965,-4.737465353448645e-05,-0.0003980090378558212,-0.34377788184331987,0.0005455729584040747,-0.001467571879580001,0.39465485955023794,0,70,255.0,255.0,255.0
153,7.65,1.499993016603134,2.99994803264611,-5.882103755191303,-5.638007225260757e-06,-0.00045651691690147404,-0.324425920142424,0.0011238928939649587,-0.0008727432822461208,0.37942360848560064,0,70,255.0,255.0,255.0
154,7.7,1.49999438053553,2.999924363716411,-5.8978571180424275,6.501463586200903e-05,-0.0004852833660804329,-0.30583552099475997,0.001702212829525843,-0.0002779146849122404,0.36419235742096334,0,70,255.0,255.0,255.0
155,7.75,1.5,2.9999,-5.9127,0.0001645832757273229,-0.0004843083853926979,-0.2880066844003278,0.002280532765086727,0.00031691391242164024,0.34896110635632693,0,70,255.0,255.0,255.0
156,7.800000000000001,1.5000109805300001,2.999875470111413,-5.926668959744859,0.00027265192941807576,-0.0005110993922108072,-0.27084824354981685,0.002042213382543326,-0.0013885541851459953,0.33737652766410225,0,70,255.0,255.0,255.0
157,7.8500000000000005,1.5000270665934563,2.9998474688373644,-5.939794478170559,0.00036880461398165683,-0.0006231638039072967,-0.2542690316339174,0.0018038939999999292,-0.0030940222827136005,0.32579194897187785,0,70,255.0,255.0,255.0
158,7.9,1.5000476623919128,2.999811732507608,-5.952105516723828,0.0004530413294180681,-0.000820501620482166,-0.23826904865262916,0.0015655746174565322,-0.004799490380281206,0.3142073702796534,0,70,255.0,255.0,255.0
159,7.95,1.5000721721269126,2.9997639974519013,-5.963631036851398,0.0005253620757273094,-0.0011031128419354155,-0.22284829460595215,0.0013272552349131357,-0.006504958477848811,0.30262279158742894,0,70,255.0,255.0,255.0
160,8.0,1.5001,2.9997,-5.9744,0.0005857668529093812,-0.0014709974682670449,-0.20800676949388633,0.0010889358523697374,-0.008210426575416416,0.29103821289520515,0,70,255.0,255.0,255.0
161,8.05,1.500130805744792,2.9996163816949473,-5.984441286722811,0.0006495875853931867,-0.0018698427022145478,-0.1937396197032875,0.0014638934469824475,-0.007743382782483476,0.27964777872873875,0,70,255.0,255.0,255.0
162,8.1,1.5001652712232016,2.999513404932939,-5.993783453998801,0.0007321561976076248,-0.00224533574651539,-0.18004199162101253,0.0018388510415951447,-0.007276338989550552,0.26825734456227274,0,70,255.0,255.0,255.0
163,8.15,1.5002043338292148,2.9993922373234567,-6.002454977913384,0.0008334726895527012,-0.0025974766011696,-0.16691388524706038,0.002213808636207855,-0.006809295196617612,0.2568669103958063,0,70,255.0,255.0,255.0
164,8.200000000000001,1.500248930956819,2.999254046475983,-6.01048433455198,0.0009535370612284134,-0.002926265266177161,-0.15435530058143154,0.002588766230820565,-0.006342251403684672,0.24547647622933988,0,70,255.0,255.0,255.0
165,8.25,1.5003,2.9991,-6.0179,0.001092349312634756,-0.003231701741538065,-0.14236623762412645,0.002963723825433258,-0.005875207610751738,0.2340860420628741,0,70,255.0,255.0,255.0
166,8.3,1.500358596490832,2.9989310031087952,-6.024730693363895,0.0012569977290087307,-0.0035295297989297596,-0.13096127763703058,0.003622212829525638,-0.0060379146849158715,0.2221123574209536,0,70,255.0,255.0,255.0
167,8.35,1.5004262485137376,2.9987469114308785,-6.031006105834238,0.0014545705955873174,-0.003835493210029649,-0.12015500188203115,0.004280701833617994,-0.006200621759079999,0.21013867277903353,0,70,255.0,255.0,255.0
168,8.4,1.5005046022912272,2.998547318198564,-6.036756171622634,0.0016850679123705298,-0.004149591974837758,-0.10994741035912733,0.004939190837710375,-0.006363328833244132,0.19816498813711303,0,70,255.0,255.0,255.0
169,8.450000000000001,1.5005953040458113,2.9983318166441664,-6.042010824940686,0.0019484896793583617,-0.004471826093354072,-0.10033850306831957,0.005597679841802754,-0.006526035907408266,0.18619130349519253,0,70,255.0,255.0,255.0
170,8.5,1.5007,2.9981,-6.0468,0.002244835896550802,-0.004802195565578581,-0.09132828000960813,0.00625616884589511,-0.00668874298157239,0.1742176188532727,0,70,255.0,255.0,255.0
171,8.55,1.5008196082918803,2.99785080586987,-6.051153539821608,0.002530421498571108,-0.005180038102064218,-0.0829112697485904,0.005167255234916962,-0.008424958477852884,0.1624627915874319,0,70,255.0,255.0,255.0
172,8.6,1.500952134721848,2.997580549343547,-6.055100922664248,0.0027615614200424982,-0.005644691413363863,-0.07508200085086497,0.004078341623938852,-0.010161173974133315,0.15070796432159153,0,70,255.0,255.0,255.0
173,8.65,1.5010948570058753,2.9972848898822875,-6.0586715355960825,0.00293825566096499,-0.00619615549947755,-0.06784047331643132,0.0029894280129607034,-0.01189738947041381,0.13895313705575074,0,70,255.0,255.0,255.0
174,8.700000000000001,1.5012450528599353,2.996959486947352,-6.061894765685278,0.003060504221338573,-0.006834430360405261,-0.061186687145289714,0.0019005144019825547,-0.013633604966694302,0.12719830978990992,0,70,255.0,255.0,255.0
175,8.75,1.5014,2.9966,-6.0648,0.0031283071011632465,-0.007559515996146972,-0.055120642337440365,0.000811600791004452,-0.015369820462974783,0.11544348252406933,0,70,255.0,255.0,255.0
176,8.8,1.501558170341647,2.9962033734117215,-6.067416747349673,0.003213316276708767,-0.00829431779281345,-0.049649643368604876,0.0025887662308163198,-0.014022251403683825,0.1033964762293471,0,70,255.0,255.0,255.0
177,8.85,1.5017228125988709,2.9957716911949346,-6.069775003508773,0.0033871837242448743,-0.008961741136515353,-0.044780994714505674,0.004365931670628124,-0.012674682344392918,0.09134946993462528,0,70,255.0,255.0,255.0
178,8.9,1.5018983696852712,2.9953083222722863,-6.071904885993035,0.0036499094437715813,-0.009561786027252732,-0.040514696375142406,0.006143097110439992,-0.011327113285101963,0.07930246363990306,0,70,255.0,255.0,255.0
179,8.950000000000001,1.5020892845144478,2.9948166355664254,-6.073836512318199,0.004001493435288882,-0.010094452465025565,-0.03685074835051525,0.007920262550251859,-0.009979544225811005,0.06725545734518082,0,70,255.0,255.0,255.0
180,9.0,1.5023,2.9943,-6.0756,0.004441935698796761,-0.010559740449833833,-0.03378915064062432,0.009697427990063678,-0.008631975166520103,0.05520845105045885,0,70,255.0,255.0,255.0
181,9.05,1.5025341103415322,2.993760500483241,-6.0772250707797,0.004920313394593418,-0.011034690726682039,-0.031306156776983673,0.009437679841802318,-0.01036603590740785,0.04411130349516572,0,70,255.0,255.0,255.0
182,9.1,1.502791814882669,2.9931950858767142,-6.078739863300661,0.00538570368297699,-0.011596344040574611,-0.029378020291107747,0.009177931693540966,-0.012100096648295535,0.03301415593987298,0,70,255.0,255.0,255.0
183,9.15,1.5030724642530398,2.9925994210285665,-6.080172120431773,0.00583810656394751,-0.012244700391511591,-0.028004741182996402,0.008918183545279604,-0.01383415738918328,0.02191700838457985,0,70,255.0,255.0,255.0
184,9.200000000000001,1.5033754090822735,2.991969170786946,-6.081549585041923,0.006277522037504963,-0.012979759779492958,-0.02718631945264973,0.008658435397018244,-0.015568218130071029,0.010819860829286716,0,70,255.0,255.0,255.0
185,9.25,1.5037,2.9913,-6.0829,0.0067039501036493315,-0.013801522204518687,-0.026922755100067718,0.008398687248756843,-0.017302278870958726,-0.00027728672600590976,0,70,255.0,255.0,255.0
186,9.3,1.504045388292224,2.9905882246553124,-6.08425176953153,0.007105430144917913,-0.014670919300460014,-0.02725372952346963,0.0076605144019861815,-0.017473604966693864,-0.01296169021007038,0,70,255.0,255.0,255.0
187,9.35,1.504409927870453,2.9898327652982073,-6.085635943288584,0.007470001543847949,-0.015548882701188066,-0.02821892412107473,0.006922341555215546,-0.017644931062428995,-0.025646093694134398,0,70,255.0,255.0,255.0
188,9.4,1.5047917733025697,2.9890331936134467,-6.087084232279874,0.007797664300439463,-0.016435412406702907,-0.029818338892883083,0.006184168708444883,-0.017816257158164137,-0.038330497178198863,0,70,255.0,255.0,255.0
189,9.450000000000001,1.5051890791564577,2.9881890812857907,-6.08862834751411,0.008088418414692445,-0.017330508417004505,-0.032051973838894667,0.005445995861674221,-0.017987583253899275,-0.051014900662263336,0,70,255.0,255.0,255.0
190,9.5,1.5056,2.9873,-6.0903,0.008342263886606884,-0.01823417073209283,-0.034919828959109375,0.004707823014903606,-0.01815890934963446,-0.0636993041463274,0,70,255.0,255.0,255.0
191,9.55,1.506023536489572,2.9863658008955096,-6.092130251094183,0.008609966025735674,-0.019129632071478747,-0.03838292512913791,0.006000262550247816,-0.017659544225801682,-0.07482454265481207,0,70,255.0,255.0,255.0
192,9.600000000000001,1.5064620736355196,2.985387452930455,-6.094147563545004,0.008942290141631674,-0.02000012515467302,-0.042402283224590685,0.007292702085592026,-0.0171601791019689,-0.08594978116329673,0,70,255.0,255.0,255.0
193,9.65,1.5069188425366813,2.9843662045176456,-6.096379750448732,0.009339236234294872,-0.020845649981675627,-0.04697790324546753,0.00858514162093619,-0.016660813978136138,-0.097075019671781,0,70,255.0,255.0,255.0
194,9.700000000000001,1.5073970742918954,2.983303304069891,-6.098854624901641,0.009800804303725293,-0.02166620655248663,-0.05210978519176877,0.009877581156280402,-0.016161448854303356,-0.10820025818026566,0,70,255.0,255.0,255.0
195,9.75,1.5079,2.9822,-6.1016,0.010326994349922907,-0.02246179486710596,-0.05779792906349404,0.011170020691624608,-0.01566208373047054,-0.11932549668874981,0,70,255.0,255.0,255.0
196,9.8,1.5084300657494882,2.9810565717626485,-6.104644826091737,0.010870705752138981,-0.023290552413619825,-0.06411056995998084,0.01057843539701801,-0.017488218130083576,-0.1331801391707186,0,70,255.0,255.0,255.0
197,9.850000000000001,1.5089865775874685,2.979869422979972,-6.108022602531401,0.011384837889624723,-0.02421061668011434,-0.07111594298056609,0.009986850102411413,-0.019314352529696613,-0.14703478165268738,0,70,255.0,255.0,255.0
198,9.9,1.509568056550705,2.9786339883159707,-6.111767965925195,0.011869390762380118,-0.025221987666589476,-0.0788140481252495,0.009395264807804836,-0.021140486929309584,-0.16088942413465568,0,70,255.0,255.0,255.0
199,9.950000000000001,1.5101730236759607,2.9773457024346466,-6.1159155528793265,0.012324364370405204,-0.026324665373045297,-0.08720488539403162,0.008803679513198239,-0.02296662132892262,-0.17474406661662448,0,70,255.0,255.0,255.0
200,10.0,1.5108,2.976,-6.1205,0.012749758713699941,-0.027518649799481727,-0.09628845478691185,0.008212094218591634,-0.024792755728535426,-0.18859870909859244,0,70,255.0,255.0,255.0
201,10.05,1.511448200512476,2.974593512053896,-6.12555124453887,0.013187210965706691,-0.028732158274042702,-0.10578279503093331,0.009285995861678078,-0.02374758325390285,-0.19117490066226042,0,70,255.0,255.0,255.0
202,10.100000000000001,1.5121196160146064,2.973127655149658,-6.1310804263293965,0.01367835829986776,-0.029893408124872043,-0.11540594485313817,0.01035989750476452,-0.022702410779270276,-0.19375109222592843,0,70,255.0,255.0,255.0
203,10.15,1.5128169312604987,2.9716050422184717,-6.137093985850487,0.014223200716183137,-0.03100239935196972,-0.12515790425352608,0.011433799147850926,-0.021657238304637737,-0.19632728378959632,0,70,255.0,255.0,255.0
204,10.200000000000001,1.513542831004261,2.970028286191523,-6.143598363581052,0.014821738214652854,-0.032059131955335815,-0.13503867323209773,0.012507700790937368,-0.02061206583000516,-0.1989034753532643,0,70,255.0,255.0,255.0
205,10.25,1.5143,2.9684,-6.1506,0.015473970795276865,-0.033063605934970236,-0.14504825178885244,0.013581602434023704,-0.01956689335537265,-0.20147966691693275,0,70,255.0,255.0,255.0
206,10.3,1.5150899322006073,2.9667229800217663,-6.158090995752782,0.016108450385034473,-0.034004814490211824,-0.15432624991628277,0.011797581156280148,-0.01808144885429035,-0.16964025818027542,0,70,255.0,255.0,255.0
207,10.350000000000001,1.5159093583541052,2.9650007564213965,-6.166006092151014,0.016653728910904896,-0.0348717508203993,-0.16201227760688022,0.010013559878536592,-0.01659600435320805,-0.1378008494436181,0,70,255.0,255.0,255.0
208,10.4,1.5167538184072997,2.9632370428101438,-6.174265690672856,0.017109806372888132,-0.03566441492553263,-0.1681063348606446,0.0082295386007931,-0.015110559852125805,-0.10596144070696191,0,70,255.0,255.0,255.0
209,10.450000000000001,1.517618852306996,2.9614355527992604,-6.182790192796465,0.0174766827709842,-0.03638280680561187,-0.17260842167757634,0.006445517323049544,-0.013625115351043507,-0.07412203197030459,0,70,255.0,255.0,255.0
210,10.5,1.5185,2.9596,-6.1915,0.017754358105193088,-0.037026926460636975,-0.17551853805767512,0.004661496045306079,-0.012139670849961148,-0.042282623233648176,0,70,255.0,255.0,255.0
211,10.55,1.5193936706850948,2.957732967859039,-6.200331972450003,0.017994987494155602,-0.03766458376510921,-0.17782420530393198,0.004963679513194412,-0.013366621328927804,-0.04994406661662471,0,70,255.0,255.0,255.0
212,10.600000000000001,1.5202997505689722,2.9558325191647565,-6.209288805066545,0.018250726056512536,-0.03836358859352977,-0.18051294471933765,0.005265862981082745,-0.014593571807894458,-0.05760550999960125,0,70,255.0,255.0,255.0
213,10.65,1.5212189951103026,2.953895586540954,-6.2183896514580885,0.018521573792263876,-0.03912394094589865,-0.18358475630389207,0.005568046448971067,-0.01582052228686107,-0.06526695338257751,0,70,255.0,255.0,255.0
214,10.700000000000001,1.5221521597677552,2.951919102611434,-6.227653665233087,0.01880753070140964,-0.039945640822215876,-0.1870396400575954,0.005870229916859399,-0.017047472765827725,-0.07292839676555406,0,70,255.0,255.0,255.0
215,10.75,1.5231,2.9499,-6.2371,0.019108596783949813,-0.04082868822248141,-0.19087759598044743,0.006172413384747721,-0.018274423244794114,-0.08058984014852988,0,70,255.0,255.0,255.0
216,10.8,1.5240633850590142,2.947836348542076,-6.2467435144472105,0.019431599638342067,-0.04170485044935142,-0.19484092886799256,0.00674770079094221,-0.016772065830005546,-0.07794347535327342,0,70,255.0,255.0,255.0
217,10.850000000000001,1.525043639370006,2.945730766919577,-6.2565818875828025,0.019783366863044043,-0.04250589480548199,-0.19867194351577488,0.007322988197136698,-0.015269708415216979,-0.07529711055801697,0,70,255.0,255.0,255.0
218,10.9,1.5260422011514905,2.9435870110260396,-6.266608503494792,0.020163898458055732,-0.04323182129087311,-0.20237063992379423,0.007898275603331166,-0.013767351000428463,-0.07265074576276061,0,70,255.0,255.0,255.0
219,10.950000000000001,1.5270605086219835,2.941408836755002,-6.276816746271186,0.02057319442337716,-0.04388262990552483,-0.2059370180920509,0.008473563009525654,-0.012264993585639896,-0.07000438096750415,0,70,255.0,255.0,255.0
220,11.0,1.5281,2.9392,-6.2872,0.02101125475900829,-0.0444583206494371,-0.20937107802054467,0.009048850415720039,-0.01076263617085127,-0.0673580161722489,0,70,255.0,255.0,255.0
221,11.05,1.5291615890788481,2.9369632379726562,-6.297753169761159,0.02144661395247753,-0.04502001443748437,-0.21276407922410806,0.008365517323049371,-0.011705115351039455,-0.06836203197028505,0,70,255.0,255.0,255.0
222,11.100000000000001,1.530244091951004,2.934697213156935,-6.308477244602242,0.02184780649131324,-0.04562883218454106,-0.21620728121757327,0.007682184230378706,-0.01264759453122764,-0.06936604776832118,0,70,255.0,255.0,255.0
223,11.15,1.5313458002837355,2.9323995693548857,-6.319374734562748,0.0222148323755154,-0.04628477389060713,-0.21970068400094014,0.006998851137708062,-0.013590073711415792,-0.07037006356635729,0,70,255.0,255.0,255.0
224,11.200000000000001,1.5324650057443114,2.9300679503685574,-6.3304481496821685,0.022547691605084044,-0.046987839555682635,-0.22324428757420897,0.006315518045037396,-0.014532552891603975,-0.07137407936439344,0,70,255.0,255.0,255.0
225,11.25,1.5336,2.9277,-6.3417,0.02284638418001914,-0.04773802917976752,-0.22683809193737947,0.005632184952366698,-0.015475032071792127,-0.07237809516242866,0,70,255.0,255.0,255.0
226,11.3,1.5347494586255934,2.9252938995672997,-6.3531318065081575,0.023133944551749688,-0.04850309180070835,-0.23042275423557876,0.005870229916855128,-0.015127472765840628,-0.07100839676554054,0,70,255.0,255.0,255.0
227,11.350000000000001,1.5359135928259788,2.9228499804526846,-6.364741134008228,0.02343340717170466,-0.049250776456351605,-0.23393893161393364,0.0061082748813435575,-0.014779913459889129,-0.06963869836865243,0,70,255.0,255.0,255.0
228,11.4,1.5370929977135677,2.9203691115544195,-6.37652455825422,0.02374477203988404,-0.049981083146697254,-0.23738662407244399,0.006346319845831979,-0.01443235415393764,-0.06826899997176436,0,70,255.0,255.0,255.0
229,11.450000000000001,1.538288268400771,2.9178521617707696,-6.388478655000141,0.024068039156287857,-0.05069401187174536,-0.24076583161111004,0.0065843648103204085,-0.01408479484798614,-0.06689930157487624,0,70,255.0,255.0,255.0
230,11.5,1.5395,2.9153,-6.4006,0.024403208520916077,-0.05138956263149587,-0.24407655422993155,0.00682240977480858,-0.013737235542034765,-0.0655296031779875,0,70,255.0,255.0,255.0
231,11.55,1.5407285764187788,2.9127131637581454,-6.412886004206215,0.02473760784052444,-0.05208761835968742,-0.24736890383356955,0.0065535630095257275,-0.014184993585626932,-0.06616438096753084,0,70,255.0,255.0,255.0
232,11.600000000000001,1.5419735367450815,2.910090865032328,-6.4253374193648485,0.02505856482186866,-0.05280806199005858,-0.25069299232668474,0.006284716244242875,-0.0146327516292191,-0.06679915875707418,0,70,255.0,255.0,255.0
233,11.65,1.5432342088619946,2.907431984427437,-6.437955832420374,0.025366079464948725,-0.053550893522609326,-0.25404881970927695,0.006015869478960032,-0.015080509672811252,-0.0674339365466175,0,70,255.0,255.0,255.0
234,11.700000000000001,1.5445099206526054,2.904735402548364,-6.450742830317267,0.025660151769764657,-0.0543161129573397,-0.2574363859813465,0.00574702271367718,-0.01552826771640342,-0.06806871433616084,0,70,255.0,255.0,255.0
235,11.75,1.5458,2.902,-6.4637,0.025940781736316438,-0.05510372029424967,-0.260855691142893,0.005478175948394143,-0.015976025759995516,-0.06870349212570215,0,70,255.0,255.0,255.0
236,11.8,1.5471042356992917,2.8992254454001163,-6.476828176666985,0.02623562408615223,-0.05586643476053966,-0.2642616304301452,0.006315518045037389,-0.014532552891603857,-0.06753407936438441,0,70,255.0,255.0,255.0
237,11.850000000000001,1.548424260193696,2.896414559418003,-6.490125188532381,0.026572333540820187,-0.05655697558341007,-0.2676090990793315,0.007152860141680636,-0.013089080023212199,-0.06636466660306667,0,70,255.0,255.0,255.0
238,11.9,1.549762166838454,2.8935709507358323,-6.503588112064284,0.02695091010032029,-0.05717534276286088,-0.2708980970904518,0.007990202238323852,-0.011645607154820593,-0.06519525384174897,0,70,255.0,255.0,255.0
239,11.950000000000001,1.5511200489888084,2.890698228035774,-6.517214023730792,0.02737135376465257,-0.05772153629889213,-0.2741286244635064,0.008827544334967099,-0.010202134286428934,-0.06402584108043123,0,70,255.0,255.0,255.0
240,12.0,1.5525,2.8878,-6.531,0.027833664533817,-0.05819555619150377,-0.27730068119849494,0.009664886431610342,-0.008758661418037161,-0.06285642831911087,0,70,255.0,255.0,255.0
241,12.05,1.553903280784055,2.8848786546413896,-6.544943689125846,0.028287895814865373,-0.058670642598154576,-0.2804485744458444,0.008504364810324355,-0.010244794847995141,-0.0630593015748671,0,70,255.0,255.0,255.0
242,12.100000000000001,1.5553278224801357,2.8819316972956597,-6.559045026505632,0.028684101014849445,-0.059220035676303295,-0.28360661135598175,0.007343843189038368,-0.01173092827795312,-0.06326217483062334,0,70,255.0,255.0,255.0
243,12.15,1.5567707237841888,2.8789554126292343,-6.573304519322491,0.02902228013376921,-0.05984373542594989,-0.2867747919289067,0.0061833215677524235,-0.013217061707911048,-0.06346504808637957,0,70,255.0,255.0,255.0
244,12.200000000000001,1.5582290833921615,2.8759460853085397,-6.5877226747595685,0.029302433171624686,-0.0605417418470944,-0.2899531161646197,0.005022799946466436,-0.014703195137869027,-0.0636679213421358,0,70,255.0,255.0,255.0
245,12.25,1.5597,2.8729,-6.6023,0.02952456012841585,-0.06131405493973678,-0.29314158406312024,0.003862278325180185,-0.016189328567827066,-0.0638707945978898,0,70,255.0,255.0,255.0
246,12.3,1.5611810411644893,2.869814336034325,-6.617037066829628,0.02971679265438718,-0.062106994846842345,-0.2963440717864722,0.003827022713672928,-0.015528267716394963,-0.06422871433618581,0,70,255.0,255.0,255.0
247,12.350000000000001,1.5626716498857625,2.866689851399358,-6.631934705445096,0.029907262399783145,-0.0628668817113763,-0.2995644554967389,0.0037917671021656706,-0.01486720686496286,-0.06458663407448181,0,70,255.0,255.0,255.0
248,12.4,1.5641717380247913,2.8635281987472303,-6.64699381064575,0.030095969364603747,-0.06359371553333862,-0.30280273519392037,0.003756511490658415,-0.01420614601353078,-0.06494455381277779,0,70,255.0,255.0,255.0
249,12.450000000000001,1.5656812174425467,2.860331030730068,-6.662215277230937,0.03028291354884899,-0.06428749631272937,-0.3060589108780166,0.003721255879151158,-0.013545085162098677,-0.0653024735510738,0,70,255.0,255.0,255.0
250,12.5,1.5672,2.8571,-6.6776,0.030468094952518857,-0.0649482240495485,-0.3093329825490277,0.003686000267643652,-0.012884024310666264,-0.06566039328936801,0,70,255.0,255.0,255.0
251,12.55,1.5687285545579885,2.853836801221311,-6.6931480435556425,0.03068493356758414,-0.06557337801447599,-0.3125751384082722,0.004987544334967527,-0.012122134286432685,-0.06402584108041284,0,70,255.0,255.0,255.0
252,12.600000000000001,1.5702695779768143,2.8505432971069062,-6.708856151713987,0.030966849386015616,-0.0661604374781918,-0.3157355666570691,0.0062890884022914015,-0.011360244262199105,-0.06239128887145768,0,70,255.0,255.0,255.0
253,12.65,1.5718263241166461,2.847221392381845,-6.724720238094508,0.03131384240781327,-0.0667094024406959,-0.318814267295418,0.00759063246961523,-0.01059835423796555,-0.06075673666250257,0,70,255.0,255.0,255.0
254,12.700000000000001,1.573402046837652,2.8438729917711902,-6.740736216316688,0.03172591263297714,-0.06722027290198834,-0.3218112403233193,0.008892176536939106,-0.009836464213731973,-0.05912218445354741,0,70,255.0,255.0,255.0
255,12.75,1.575,2.8405,-6.7569,0.03220306006150717,-0.06769304886206909,-0.3247264857407727,0.010193720604262768,-0.009074574189497975,-0.05748763224459008,0,70,255.0,255.0,255.0
256,12.8,1.5766223406035567,2.8371032590804313,-6.7732083589478025,0.0326794730752755,-0.06819149309525328,-0.3276113745804407,0.00886279994647016,-0.010863195137869378,-0.05790792134213075,0,70,255.0,255.0,255.0
257,12.850000000000001,1.5782668382069793,2.8336793601730172,-6.789661487698959,0.0330893400561542,-0.06877936837585603,-0.33051727787498586,0.007531879288677552,-0.012651816086240782,-0.058328210439671416,0,70,255.0,255.0,255.0
258,12.9,1.5799301655086238,2.8302238317253887,-6.806260436976214,0.03343266100414326,-0.06945667470387736,-0.33344419562440786,0.006200958630884991,-0.014440437034612121,-0.05874849953721206,0,70,255.0,255.0,255.0
259,12.950000000000001,1.5816089952068457,2.826732202185173,-6.823006257502314,0.0337094359192427,-0.07022341207931726,-0.33639212782870703,0.004870037973092383,-0.016229057982983526,-0.05916878863475273,0,70,255.0,255.0,255.0
260,13.0,1.5833,2.8232,-6.8399,0.0339196648014525,-0.07107958050217568,-0.33936107448788305,0.0035391173152997113,-0.01801767893135431,-0.05958907773229116,0,70,255.0,255.0,255.0
261,13.05,1.585000483027785,2.8196245624569642,-6.856942520653151,0.03410117413131376,-0.0719166496045119,-0.3423393632699671,0.0037212558791510334,-0.015465085162094046,-0.05954247355106927,0,70,255.0,255.0,255.0
262,13.100000000000001,1.586710269195268,2.816010462201023,-6.87413389749018,0.0342917903893676,-0.0726260890183851,-0.3453153218429901,0.0039033944430023554,-0.012912491392833784,-0.05949586936984739,0,70,255.0,255.0,255.0
263,13.15,1.5884298138488582,2.8123640807166,-6.891474014000632,0.034491513575614,-0.07320789874379528,-0.34828895020695183,0.004085533006853671,-0.010359897623573614,-0.0594492651886255,0,70,255.0,255.0,255.0
264,13.200000000000001,1.5901595723349657,2.808691799488118,-6.908962753674057,0.034700343690052975,-0.07366207878074246,-0.3512602483618526,0.0042676715707049935,-0.0078073038543133525,-0.05940266100740361,0,70,255.0,255.0,255.0
265,13.25,1.5919,2.805,-6.9266,0.0349182807326845,-0.07398862912922662,-0.35422921630769216,0.00444981013455642,-0.0052547100850531825,-0.059356056826181725,0,70,255.0,255.0,255.0
266,13.3,1.5936517272853037,2.801292891091712,-6.9443855584395955,0.035155830399471795,-0.07431790848669637,-0.3571911723396859,0.0050521765369352135,-0.007916464213736433,-0.059122184453563785,0,70,255.0,255.0,255.0
267,13.350000000000001,1.5954160850119492,2.79756599102289,-6.962318922340325,0.03542349838637803,-0.07478027555060027,-0.3601414347530486,0.005654542939314006,-0.010578218342419685,-0.05888831208094584,0,70,255.0,255.0,255.0
268,13.4,1.5971945790959434,2.7938126454082117,-6.9803995070212554,0.03572128469340319,-0.07537573032093832,-0.3630800035477804,0.006256909341692778,-0.013239972471102842,-0.058654439708327906,0,70,255.0,255.0,255.0
269,13.450000000000001,1.5989887154532914,2.7900261998623552,-6.99862672780146,0.0360491893205473,-0.07610427279771055,-0.3660068787238814,0.006859275744071571,-0.015901726599786094,-0.058420567335709966,0,70,255.0,255.0,255.0
270,13.5,1.6008,2.7862,-7.017,0.03640721226781034,-0.07696590298091693,-0.3689220602813514,0.007461642146450065,-0.01856348072846936,-0.058186694963092034,0,70,255.0,255.0,255.0
271,13.55,1.6026294078310015,2.782329473176188,-7.035518445588468,0.03676350427079889,-0.07783571644870325,-0.3718079473712972,0.006790037973092046,-0.01622905798298314,-0.05724878863473898,0,70,255.0,255.0,255.0
272,13.600000000000001,1.6044757907569356,2.7784183737074173,-7.054180013148524,0.037086216065119554,-0.07858880877921527,-0.37464693914482533,0.006118433799734028,-0.013894635237496922,-0.056310882306385916,0,70,255.0,255.0,255.0
273,13.65,1.6063374697673687,2.774472537650554,-7.072982357914344,0.0373753476507723,-0.07922517997245294,-0.3774390356019358,0.005446829626376033,-0.011560212492010785,-0.055372975978032896,0,70,255.0,255.0,255.0
274,13.700000000000001,1.6082127658518681,2.7704978010624606,-7.09192313512011,0.03763089902775715,-0.07974483002841634,-0.38018423674262863,0.004775225453018014,-0.009225789746524566,-0.05443506964967984,0,70,255.0,255.0,255.0
275,13.75,1.6101,2.7665,-7.111,0.03785287019607409,-0.08014775894710541,-0.38288254256690374,0.0041036212796597415,-0.006891367001037985,-0.05349716332132681,0,70,255.0,255.0,255.0
276,13.8,1.6119978413906912,2.7624836162035384,-7.130211059206533,0.03806215251733321,-0.0805152257184892,-0.38556103817512194,0.004267671570705014,-0.007807303854313221,-0.053642661007399985,0,70,255.0,255.0,255.0
277,13.850000000000001,1.6139063519603094,2.75844771414744,-7.149556225065584,0.0382796373531446,-0.08092848933253675,-0.38824680866764383,0.004431721861750286,-0.008723240707588457,-0.053788158693473156,0,70,255.0,255.0,255.0
278,13.9,1.6158259418345817,2.7543900039895735,-7.169035861321369,0.03850532470350824,-0.08138754978924803,-0.39093985404446924,0.004595772152795553,-0.00963917756086366,-0.05393365637954633,0,70,255.0,255.0,255.0
279,13.950000000000001,1.617757021139236,2.750308195887804,-7.188650331718103,0.03873921456842415,-0.08189240708862311,-0.39364017430559844,0.0047598224438408256,-0.010555114414138898,-0.0540791540656195,0,70,255.0,255.0,255.0
280,14.0,1.6197,2.7462,-7.2084,0.03898130694789232,-0.0824430612306619,-0.3963477694510312,0.004923872734885981,-0.011471051267413768,-0.054224651751692665,0,70,255.0,255.0,255.0
281,14.05,1.6216552266062336,2.742063262009661,-7.228285317585402,0.03922788565986626,-0.08303138067734193,-0.3990678999282165,0.004939275744071637,-0.0120617265997866,-0.05458056733571893,0,70,255.0,255.0,255.0
282,14.100000000000001,1.6236228014018277,2.737896369702822,-7.248307086589142,0.039475234522299486,-0.08364923389064058,-0.40180582618460314,0.004954678753257291,-0.012652401932159435,-0.054936482919745185,0,70,255.0,255.0,255.0
283,14.15,1.6256027628943044,2.733697846391153,-7.2684661968001825,0.03972335353519199,-0.08429662087055785,-0.40456154822019097,0.004970081762442946,-0.013243077264532247,-0.055292398503771434,0,70,255.0,255.0,255.0
284,14.200000000000001,1.6275951495911878,2.7294662153863225,-7.288763538007482,0.03997224269854378,-0.0849735416170938,-0.40733506603498026,0.004985484771628601,-0.013833752596905082,-0.0556483140877977,0,70,255.0,255.0,255.0
285,14.25,1.6296,2.7252,-7.3092,0.04022190201235485,-0.08567999613024835,-0.41012637962897075,0.005000887780814256,-0.014424427929277783,-0.05600422967182306,0,70,255.0,255.0,255.0
286,14.3,1.631617252184374,2.7208985357578186,-7.329775670451863,0.04046630484320076,-0.08636725157214341,-0.4128873621120084,0.004775225453022166,-0.013065789746524083,-0.05443506964967948,0,70,255.0,255.0,255.0
287,14.350000000000001,1.6336464424323802,2.7165644070412713,-7.35048742857785,0.04069942455765708,-0.08698657510490077,-0.4155698865939388,0.004549563125230077,-0.011707151563770385,-0.0528659096275359,0,70,255.0,255.0,255.0
288,14.4,1.6356870065881997,2.7122010104458143,-7.371331351477904,0.040921261155723775,-0.08753796672852045,-0.41817395307476196,0.004323900797437994,-0.010348513381016734,-0.05129674960539238,0,70,255.0,255.0,255.0
289,14.450000000000001,1.6377383804960128,2.7078117425669053,-7.392303516251974,0.04113181463740087,-0.08802142644300244,-0.42069956155447796,0.004098238469645904,-0.008989875198263036,-0.0497275895832488,0,70,255.0,255.0,255.0
290,14.5,1.6398,2.7034,-7.4134,0.04133108500268837,-0.08843695424834676,-0.4231467120330868,0.0038725761418538784,-0.007631237015508829,-0.048158429561105276,0,70,255.0,255.0,255.0
291,14.55,1.6418717646562708,2.698968194959064,-7.43461760060715,0.04154689496733074,-0.08884361303408785,-0.42555865162375484,0.004759822443840779,-0.008635114414134374,-0.04831915406561604,0,70,255.0,255.0,255.0
292,14.600000000000001,1.6439554288686513,2.6945148021320917,-7.455955999099464,0.04180706724707245,-0.0893004656897602,-0.4279786274396485,0.00564706874582768,-0.009638991812759918,-0.04847987857012682,0,70,255.0,255.0,255.0
293,14.65,1.6460532107528965,2.6900373118255887,-7.477415597288201,0.0421116018419135,-0.08980751221536383,-0.43040663948076757,0.00653431504781455,-0.010642869211385426,-0.04864060307463758,0,70,255.0,255.0,255.0
294,14.700000000000001,1.6481673284247609,2.685533214346057,-7.498996796984628,0.042460498751853905,-0.09036475261089874,-0.4328426877471122,0.00742156134980145,-0.011646746610010972,-0.048801327579148346,0,70,255.0,255.0,255.0
295,14.75,1.6503,2.681,-7.5207,0.04285375797689365,-0.09097218687636491,-0.4352867722386823,0.008308807651788153,-0.012650624008635925,-0.04896205208365778,0,70,255.0,255.0,255.0
296,14.8,1.6524524891905428,2.676435884405926,-7.542525927119541,0.04323411528747896,-0.09158629629150333,-0.4377580313929686,0.0069054847716239955,-0.011913752596900851,-0.049888314087793456,0,70,255.0,255.0,255.0
297,14.850000000000001,1.6546222420930146,2.6718419844303596,-7.564476575024301,0.04354430645405606,-0.092163562136055,-0.4402756036474617,0.0055021618914598384,-0.011176881185165778,-0.050814576091929124,0,70,255.0,255.0,255.0
298,14.9,1.656805750400215,2.66722014225183,-7.58655425936929,0.04378433147662494,-0.09270398441001991,-0.4428394890021615,0.004098839011295731,-0.010440009773430731,-0.051740838096064765,0,70,255.0,255.0,255.0
299,14.950000000000001,1.6589995058049436,2.662572200048867,-7.608761295809519,0.04395419035518563,-0.09320756311339808,-0.4454496874570682,0.0026955161311315737,-0.009703138361695658,-0.05266710010020043,0,70,255.0,255.0,255.0
300,15.0,1.6612,2.6579,-7.6311,0.0440538830897381,-0.09367429824618946,-0.4481061990121815,0.001292193250967355,-0.008966266949960278,-0.05359336210433607,0,70,255.0,255.0,255.0
301,15.05,1.6634046785815584,2.6532050674172334,-7.65357149091469,0.044140643882753336,-0.09412320179989547,-0.4507372228043715,0.0021782384696419146,-0.008989875198280007,-0.05164758958326165,0,70,255.0,255.0,255.0
302,15.100000000000001,1.665614802759291,2.64848766014647,-7.676172100803337,0.04427170693670229,-0.09457328576601748,-0.45327095797050776,0.0030642836883164742,-0.009013483446599736,-0.04970181706218722,0,70,255.0,255.0,255.0
303,15.15,1.667832587646244,2.643747719167091,-7.698896965234639,0.04444707225158498,-0.09502455014455544,-0.45570740451059016,0.003950328906991003,-0.009037091694919463,-0.047756044541112874,0,70,255.0,255.0,255.0
304,15.200000000000001,1.670060248355465,2.6389851854584747,-7.721741219777295,0.0446667398274014,-0.09547699493550942,-0.458046562424619,0.004836374125665562,-0.009060699943239192,-0.04581027202003845,0,70,255.0,255.0,255.0
305,15.25,1.6723,2.6342,-7.7447,0.04493070966415153,-0.09593062013887937,-0.46028843171259404,0.005722419344340091,-0.00908430819155881,-0.04386449949896498,0,70,255.0,255.0,255.0
306,15.3,1.6745535964832237,2.629391845925142,-7.767769709221704,0.045211309181505295,-0.09640089650891831,-0.46250907738954666,0.005501561349810155,-0.009726746609998047,-0.044961327579139815,0,70,255.0,255.0,255.0
307,15.350000000000001,1.6768209468698216,2.6245593749837592,-7.790951821762355,0.045480865799132554,-0.09690329479987919,-0.4647845644705081,0.005280703355280219,-0.010369185028437285,-0.04605815565931465,0,70,255.0,255.0,255.0
308,15.4,1.679101499014808,2.6197009810798053,-7.814249079692154,0.04573937951703331,-0.09743781501176202,-0.4671148929554781,0.005059845360750291,-0.0110116234468765,-0.04715498373948944,0,70,255.0,255.0,255.0
309,15.450000000000001,1.6813947007731964,2.6148150581172342,-7.837664225081303,0.04598685033520758,-0.09800445714456683,-0.469500062844457,0.004838987366220355,-0.011654061865315738,-0.04825181181966427,0,70,255.0,255.0,255.0
310,15.5,1.6837,2.6099,-7.8612,0.04622327825365535,-0.0986032211982936,-0.47194007413744454,0.0046181293716904825,-0.012296500283754286,-0.049348639899838176,0,70,255.0,255.0,255.0
311,15.55,1.686016935485547,2.6049547488821982,-7.8848584721984984,0.0464541193912259,-0.09920121216442973,-0.4743944676374453,0.004615516131131337,-0.011623138361690745,-0.04882710010019177,0,70,255.0,255.0,255.0
312,15.600000000000001,1.6883454097614221,2.599980439918492,-7.908639012147246,0.046684829866768494,-0.09976553503446269,-0.47682278414746376,0.00461290289057219,-0.010949776439627204,-0.048305560300545364,0,70,255.0,255.0,255.0
313,15.65,1.6906854162945235,2.594978756513687,-7.932540315996745,0.04691540968028312,-0.10029618980839244,-0.47922502366749986,0.004610289650013044,-0.010276414517563687,-0.04778402050089898,0,70,255.0,255.0,255.0
314,15.700000000000001,1.69303694855175,2.589951382072588,-7.956561079897496,0.04714585883176979,-0.10079317648621905,-0.4816011861975537,0.004607676409453898,-0.009603052595500147,-0.04726248070125257,0,70,255.0,255.0,255.0
315,15.75,1.6954,2.5849,-7.9807,0.04737617732122851,-0.10125649506794245,-0.4839512717376251,0.004605063168894752,-0.008929690673435409,-0.0467409409016053,0,70,255.0,255.0,255.0
316,15.8,1.6977746615745877,2.5798259585460657,-8.004955601984308,0.04761221325359241,-0.10170625483335972,-0.4862650520606662,0.004836374125661272,-0.00906069994325598,-0.04581027202003865,0,70,255.0,255.0,255.0
317,15.850000000000001,1.70016141408449,2.574729265342272,-8.029325729648665,0.04785981473379464,-0.10216256506226806,-0.488532298939629,0.005067685082427793,-0.009191709213076552,-0.04487960313847201,0,70,255.0,255.0,255.0
318,15.9,1.702560835807098,2.5696095928654477,-8.05380805632087,0.04811898176183519,-0.10262542575466739,-0.4907530123745134,0.005298996039194305,-0.00932271848289712,-0.043948934256905395,0,70,255.0,255.0,255.0
319,15.950000000000001,1.704973505019804,2.5644666135924146,-8.078400255328717,0.04838971433771407,-0.10309483691055776,-0.49292719236531957,0.0055303069959608256,-0.009453727752717692,-0.04301826537533875,0,70,255.0,255.0,255.0
320,16.0,1.7074,2.5593,-8.1031,0.048672012461431276,-0.10357079852993914,-0.4950548389120472,0.005761617952727394,-0.009584737022537926,-0.04208759649377081,0,70,255.0,255.0,255.0
321,16.05,1.7098404182161016,2.55410941693354,-8.127905519864273,0.04893702759440497,-0.10405376850213517,-0.49716932411988346,0.004838987366220391,-0.009734061865303059,-0.04249181181967723,0,70,255.0,255.0,255.0
322,16.1,1.7122929339006185,2.5488944987124174,-8.152817269258094,0.04915591119805332,-0.10454420471646947,-0.499304020094015,0.003916356779713389,-0.009883386708068192,-0.04289602714558366,0,70,255.0,255.0,255.0
323,16.150000000000002,1.714755240477085,2.543654872024524,-8.177836258719779,0.04932866327237632,-0.105042107172942,-0.5014589268344418,0.0029937261932063857,-0.010032711550833323,-0.043300242471490086,0,70,255.0,255.0,255.0
324,16.2,1.717225031369034,2.5383901635577546,-8.202963498787641,0.04945528381737396,-0.10554747587155278,-0.503634044341164,0.0020710956066994487,-0.010182036393598446,-0.043704457797396484,0,70,255.0,255.0,255.0
325,16.25,1.7197,2.5331,-8.2282,0.049535772833046256,-0.10606031081230183,-0.5058293726141814,0.0011484650201923352,-0.010331361236363135,-0.044108673123302466,0,70,255.0,255.0,255.0
326,16.3,1.7221788655610064,2.5277843737197734,-8.253546318558602,0.04963167636878742,-0.1065586711580984,-0.5080176514597955,0.0026876764094540756,-0.009603052595499484,-0.04342248070126153,0,70,255.0,255.0,255.0
327,16.35,1.7246644503130366,2.5224447398080576,-8.279001193318962,0.04980454047399167,-0.10702061607185179,-0.5101716206843075,0.004226887798715816,-0.008874743954635835,-0.04273628827922058,0,70,255.0,255.0,255.0
328,16.400000000000002,1.7271606022845634,2.5170829190364548,-8.304562908800017,0.050054365148659005,-0.10744614555356201,-0.5122912802877175,0.005766099187977557,-0.008146435313772184,-0.04205009585717964,0,70,255.0,255.0,255.0
329,16.45,1.72967116950406,2.511700732176569,-8.330229749520715,0.050381150392789405,-0.10783525960322898,-0.5143766302700256,0.0073053105772391885,-0.007418126672908586,-0.041363903435138745,0,70,255.0,255.0,255.0
330,16.5,1.7322,2.5063,-8.356,0.050784896206382914,-0.10818795822085284,-0.5164276706312315,0.008844521966500929,-0.006689818032045158,-0.040677711013098694,0,70,255.0,255.0,255.0
331,16.55,1.734749719539873,2.500881888187367,-8.381872405901312,0.05119226693044457,-0.10854354686547202,-0.5184720700409422,0.007450306995964931,-0.007533727752722153,-0.04109826537532531,0,70,255.0,255.0,255.0
332,16.6,1.7373180648472357,2.495444942055352,-8.407847557466063,0.05152992690597942,-0.10894133099612506,-0.5205374971687642,0.006056092025428932,-0.008377637473399148,-0.04151881973755193,0,70,255.0,255.0,255.0
333,16.650000000000002,1.7399015503846622,2.4899870518296536,-8.433926506080159,0.05179787613298747,-0.10938131061281195,-0.5226239520146975,0.004661877054892934,-0.009221547194076144,-0.04193937409977854,0,70,255.0,255.0,255.0
334,16.7,1.7424966906147257,2.4845061077359705,-8.460110303129499,0.051996114611468705,-0.10986348571553266,-0.5247314345787418,0.0032676620843570345,-0.01006545691475308,-0.042359928462005134,0,70,255.0,255.0,255.0
335,16.75,1.7451,2.479,-8.4864,0.05212464234142316,-0.11038785630428723,-0.5268599448608978,0.0018734471138209252,-0.01090936663542974,-0.042780482824228194,0,70,255.0,255.0,255.0
336,16.8,1.7477086562795023,2.473467273530759,-8.512796057836148,0.052223255909436064,-0.11091514138001293,-0.5289740683764386,0.0020710956066950863,-0.010182036393598149,-0.04178445779739891,0,70,255.0,255.0,255.0
337,16.85,1.7503224902980214,2.4679090919705335,-8.539296576816788,0.052331751902092674,-0.11140605994364705,-0.5310383906406377,0.0022687440995692474,-0.009454706151766558,-0.04078843277056962,0,70,255.0,255.0,255.0
338,16.900000000000002,1.7529419961767891,2.4623272736449286,-8.565899066879355,0.05245013031939299,-0.1118606119951896,-0.5330529116534956,0.002466392592443409,-0.008727375909934967,-0.039792407743740335,0,70,255.0,255.0,255.0
339,16.95,1.7555676680370378,2.4567236368795498,-8.59260103796128,0.052578391161337,-0.11227879753464054,-0.5350176314150117,0.002664041085317556,-0.008000045668103428,-0.03879638271691112,0,70,255.0,255.0,255.0
340,17.0,1.7582,2.4511,-8.6194,0.05271653442792474,-0.11266061656199992,-0.5369325499251866,0.0028616895781918283,-0.007272715426272058,-0.037800357690080055,0,70,255.0,255.0,255.0
341,17.05,1.7608396553421184,2.4454578176895976,-8.6462937627541,0.05287470943181053,-0.11302788761447946,-0.5388156564533165,0.0034653105772397084,-0.007418126672908822,-0.03752390343511446,0,70,255.0,255.0,255.0
342,17.1,1.7634879739606804,2.439797090062513,-8.673281335266786,0.053063065485648715,-0.11340242922929082,-0.5406849402686981,0.004068931576287588,-0.007563537919545586,-0.03724744918014888,0,70,255.0,255.0,255.0
343,17.150000000000002,1.7661464649081826,2.4341174535906296,-8.700362026402425,0.0532816025894393,-0.11378424140643402,-0.5425404013713314,0.0046725525753354685,-0.0077089491661823505,-0.036970994925183284,0,70,255.0,255.0,255.0
344,17.2,1.7688166372371235,2.428418544745831,-8.727535145025374,0.05353032074318225,-0.11417332414590903,-0.5443820397612164,0.005276173574383305,-0.007854360412819103,-0.03669454067021772,0,70,255.0,255.0,255.0
345,17.25,1.7715,2.4227,-8.7548,0.053809219946877616,-0.11456967744771593,-0.546209855438353,0.005879794573431074,-0.007999771659455979,-0.03641808641525124,0,70,255.0,255.0,255.0
346,17.3,1.7741975223520237,2.4169614557108505,-8.782156091147456,0.05408590636332231,-0.11497330816207084,-0.5480353058102847,0.005187662084356682,-0.008145456914740248,-0.03659992846201768,0,70,255.0,255.0,255.0
347,17.35,1.7769080138592583,2.4112025477794132,-8.80960368211607,0.05432798615531329,-0.11538422313918997,-0.5498698482845549,0.00449552959528229,-0.008291142170024517,-0.03678177050878411,0,70,255.0,255.0,255.0
348,17.400000000000002,1.779629744190481,2.405422911992552,-8.837143227510952,0.054535459322850546,-0.1158024223790733,-0.5517134828611632,0.0038033971062078993,-0.008436827425308786,-0.03696361255555055,0,70,255.0,255.0,255.0
349,17.45,1.7823609830144689,2.399622184137127,-8.86477518193722,0.05470832586593408,-0.11622790588172083,-0.5535662095401098,0.0031112646171335564,-0.008582512680593044,-0.03714545460231697,0,70,255.0,255.0,255.0
350,17.5,1.7851,2.3938,-8.8925,0.05484658578456389,-0.11666067364713258,-0.5554280283213949,0.0024191321280591094,-0.008728197935876536,-0.03732729664908252,0,70,255.0,255.0,255.0
351,17.55,1.7878454552497869,2.387956359467002,-8.920317872656076,0.054973665114898304,-0.11707887973723251,-0.5572831203055457,0.00266404108531764,-0.008000045668120282,-0.03687638271694826,0,70,255.0,255.0,255.0
352,17.6,1.7905975706022874,2.3820927188198335,-8.948227936268944,0.05511298989309566,-0.11746067821394461,-0.5591156665930899,0.002908950042576171,-0.007271893400364028,-0.036425468784813994,0,70,255.0,255.0,255.0
353,17.650000000000002,1.7933569583298943,2.376210898439164,-8.976229063553777,0.055264560119155925,-0.11780606907726891,-0.5609256671840273,0.0031538589998347014,-0.006543741132607774,-0.03597455485267973,0,70,255.0,255.0,255.0
354,17.7,1.7961242307050007,2.3703127187056627,-9.004320127225737,0.055428375793079125,-0.11811505232720539,-0.5627131220783577,0.003398767957093215,-0.005815588864851572,-0.0355236409205455,0,70,255.0,255.0,255.0
355,17.75,1.7989,2.3644,-9.0325,0.055604436914865246,-0.11838762796375406,-0.5644780312760818,0.0036436769143517456,-0.005087436597095096,-0.03507272698841213,0,70,255.0,255.0,255.0
356,17.8,1.8016846566488278,2.3584739064211426,-9.060767618228242,0.05577943317708373,-0.11866317288900181,-0.5662242129675459,0.003356173574387751,-0.005934360412815243,-0.034774540670153085,0,70,255.0,255.0,255.0
357,17.85,1.804477703731592,2.3525329769412533,-9.089122172808157,0.05594005427230402,-0.1189810640050356,-0.567955485343097,0.003068670234423757,-0.0067812842285353905,-0.034476354351894035,0,70,255.0,255.0,255.0
358,17.900000000000002,1.8072784224899419,2.346575094250792,-9.117562918273952,0.05608630020052612,-0.11934130131185537,-0.5696718484027354,0.002781166894459762,-0.0076282080442555385,-0.03417816803363499,0,70,255.0,255.0,255.0
359,17.95,1.810086094165528,2.3405981410402212,-9.146089109159833,0.05621817096175,-0.11974388480946113,-0.5713733021464605,0.002493663554495788,-0.008475131859975626,-0.03387998171537596,0,70,255.0,255.0,255.0
360,18.0,1.8129,2.3346,-9.1747,0.056335666555975696,-0.12018881449785292,-0.573059846574273,0.0022061602145319603,-0.009322055675695107,-0.03358179539711781,0,70,255.0,255.0,255.0
361,18.05,1.8157199181549013,2.3285792148484274,-9.203394854430963,0.056468602176767226,-0.12063642870675989,-0.5747320278242599,0.003111264617129274,-0.00858251268058391,-0.03330545460235985,0,70,255.0,255.0,255.0
362,18.1,1.8185476144713455,2.3225369734151533,-9.232172972498432,0.05664679301768863,-0.12104706576591132,-0.576390392034509,0.004016369019726588,-0.007842969685472713,-0.03302911380760189,0,70,255.0,255.0,255.0
363,18.150000000000002,1.8213853517103393,2.316475124557665,-9.261033663350418,0.05687023907873989,-0.12142072567530718,-0.5780349392050201,0.004921473422323902,-0.007103426690361516,-0.032752773012843926,0,70,255.0,255.0,255.0
364,18.2,1.8242353926328883,2.310395517133452,-9.289976236134935,0.05713894035992101,-0.12175740843494746,-0.5796656693357934,0.005826577824921152,-0.006363883695250372,-0.032476432218085986,0,70,255.0,255.0,255.0
365,18.25,1.8271,2.3043,-9.319,0.05745289686123199,-0.12205711404483222,-0.5812825824268287,0.006731682227518299,-0.005624340700138841,-0.032200091423328026,0,70,255.0,255.0,255.0
366,18.3,1.8299804707315666,2.2981900341851476,-9.348104164047912,0.057754158115847276,-0.12234311228395718,-0.582879675735425,0.00531876795709292,-0.005815588864859935,-0.03168364092052104,0,70,255.0,255.0,255.0
367,18.35,1.8328742383830259,2.2920655293981334,-9.377287537198127,0.05798477365694129,-0.12263867293131822,-0.584450946518881,0.0039058536866675418,-0.0060068370295810304,-0.03116719041771406,0,70,255.0,255.0,255.0
368,18.400000000000002,1.8357777706687024,2.2859260075185452,-9.406548828324382,0.05814474348451403,-0.12294379598691531,-0.5859963947771963,0.0024929394162421636,-0.006198085194302125,-0.030650739914907077,0,70,255.0,255.0,255.0
369,18.45,1.8386875353029188,2.279770990425972,-9.435886746300422,0.0582340675985655,-0.12325848145074841,-0.5875160205103716,0.0010800251458168856,-0.006389333359023206,-0.03013428941210013,0,70,255.0,255.0,255.0
370,18.5,1.8416,2.2736,-9.4653,0.05825274599909572,-0.12358272932281761,-0.5890098237184064,-0.00033288912460838205,-0.006580581523744078,-0.029617838909289596,0,70,255.0,255.0,255.0
371,18.55,1.844512598918832,2.267412648410981,-9.494787689377393,0.05825876535984302,-0.12391112215741049,-0.5905012692340232,0.0005736635545004493,-0.006555131859971297,-0.030039981715384384,0,70,255.0,255.0,255.0
372,18.6,1.8474266319965502,2.2612089089923115,-9.524350478709074,0.058310112354545765,-0.12423824250881475,-0.5920138218899449,0.0014802162336092807,-0.006529682196198516,-0.030462124521479172,0,70,255.0,255.0,255.0
373,18.650000000000002,1.8503443656148526,2.254988845368153,-9.55398942335206,0.058406786983203944,-0.12456409037703035,-0.5935474816861712,0.002386768912718112,-0.006504232532425734,-0.03088426732757396,0,70,255.0,255.0,255.0
374,18.7,1.8532680661554364,2.2487525211626624,-9.583705578663361,0.058548789245817565,-0.12488866576205732,-0.5951022486227021,0.0032933215918268793,-0.006478782868652955,-0.03130641013366872,0,70,255.0,255.0,255.0
375,18.75,1.8562,2.2425,-9.6135,0.058736119142386634,-0.12521196866389564,-0.596678122699538,0.004199874270935378,-0.006453333204879508,-0.03172855293976351,0,70,255.0,255.0,255.0
376,18.8,1.8591419335931056,2.2362313721709284,-9.643373078442517,0.058938780444782936,-0.1255323990863991,-0.5982352473284853,0.003906577824916853,-0.006363883695258597,-0.030556432218125255,0,70,255.0,255.0,255.0
377,18.85,1.8620936336307736,2.229946834632618,-9.673322547965583,0.059126776924878326,-0.1258483570334215,-0.5997337659213505,0.003613281378898328,-0.006274434185637687,-0.029384311496487004,0,70,255.0,255.0,255.0
378,18.900000000000002,1.8650543668718886,2.223646611008844,-9.703345478267385,0.059300108582672775,-0.12615984250496287,-0.601173678478134,0.0033199849328798036,-0.0061849846760167766,-0.02821219077484875,0,70,255.0,255.0,255.0
379,18.95,1.8680234000753355,2.21733092492338,-9.733438939046126,0.0594587754181663,-0.12646685550102318,-0.6025549849988353,0.0030266884868612996,-0.006095535166395873,-0.02704007005321058,0,70,255.0,255.0,255.0
380,19.0,1.871,2.211,-9.7636,0.0596027774313589,-0.12676939602160245,-0.6038776854834551,0.0027333920408426637,-0.00600608565677363,-0.025867949331578544,0,70,255.0,255.0,255.0
381,19.05,1.8739836667087462,2.204653862905306,-9.793826396852538,0.05974611286102528,-0.12707928149699715,-0.6051817414520456,0.003000025145812461,-0.006389333359014199,-0.0262942894120414,0,70,255.0,255.0,255.0
382,19.1,1.8769748334803569,2.1982917524772145,-9.824118529428608,0.05990277994594015,-0.12740832935750387,-0.6065071144246593,0.003266658250782258,-0.0067725810612547675,-0.026720629492504255,0,70,255.0,255.0,255.0
383,19.150000000000002,1.8799741668975944,2.19191271059647,-9.854477463578405,0.060072778686103515,-0.12775653960312264,-0.6078538044012961,0.0035332913557520555,-0.007155828763495336,-0.02714696957296711,0,70,255.0,255.0,255.0
384,19.200000000000003,1.8829823335432214,2.185515779143817,-9.884904265152135,0.060256109081515366,-0.12812391223385342,-0.6092218113819561,0.0037999244607218527,-0.007539076465735905,-0.02757330965342997,0,70,255.0,255.0,255.0
385,19.25,1.886,2.1791,-9.9154,0.060452771132175696,-0.1285104472496962,-0.610611135366639,0.004066557565692019,-0.007922324167976003,-0.02799964973389457,0,70,255.0,255.0,255.0
386,19.3,1.88902739957191,2.1726651762078464,-9.945965334147333,0.06063676811111388,-0.12887047492561193,-0.6119977868633283,0.003293321591835419,-0.006478782868652756,-0.027466410133677135,0,70,255.0,255.0,255.0
387,19.35,1.8920630324477998,2.1662141554585213,-9.976599334320001,0.060782103291359246,-0.12915832553656148,-0.6133577763800068,0.0025200856179788183,-0.00503524156932951,-0.0269331705334597,0,70,255.0,255.0,255.0
388,19.400000000000002,1.8951049655377346,2.159750546605273,-10.007300667419,0.06088877667291177,-0.1293739990825449,-0.6146911039166744,0.0017468496441222173,-0.0035917002700062645,-0.026399930933242267,0,70,255.0,255.0,255.0
389,19.450000000000003,1.8981512657517796,2.1532779585013495,-10.038068000345335,0.06095678825577147,-0.12951749556356212,-0.6159977694733311,0.0009736136702656168,-0.002148158970683018,-0.02586669133302483,0,70,255.0,255.0,255.0
390,19.5,1.9012,2.1468,-10.0689,0.06098613803993834,-0.1295888149796132,-0.6172777730499769,0.00020037769640934844,-0.0007046176713598751,-0.02533345173281365,0,70,255.0,255.0,255.0
391,19.55,1.9042499350036137,2.1403190322633074,-10.099795466558131,0.06101881469452011,-0.12966281880055708,-0.6185391110946286,0.0011066884868614754,-0.0022555351663958723,-0.02512007005325376,0,70,255.0,255.0,255.0
392,19.6,1.9073026367284442,2.133832425688698,-10.130753733291396,0.06109680688862449,-0.12981436849625277,-0.6197897800553023,0.0020129992773136023,-0.003806452661431869,-0.024906688373693867,0,70,255.0,255.0,255.0
393,19.650000000000002,1.9103603709514678,2.1273363029824357,-10.161774266745596,0.06122011462225147,-0.13004346406670028,-0.621029779931998,0.002919310067765729,-0.005357370156467866,-0.024693306694133978,0,70,255.0,255.0,255.0
394,19.700000000000003,1.9134254034496614,2.120826786850782,-10.19285653346653,0.061388737895401065,-0.13035010551189957,-0.6222591107247157,0.003825620858217856,-0.006908287651503863,-0.024479925014574088,0,70,255.0,255.0,255.0
395,19.75,1.9165,2.1143,-10.224,0.061602676708073255,-0.13073429283185067,-0.6234777724334555,0.004731931648669974,-0.008459205146539972,-0.0242665433350151,0,70,255.0,255.0,255.0
396,19.8,1.9195856604136363,2.1077530947389245,-10.255203999620141,0.061815973110807845,-0.13113424987215755,-0.624677768758166,0.0037999244607134198,-0.007539076465735648,-0.02373330965340407,0,70,255.0,255.0,255.0
397,19.85,1.9226808206384243,2.1011873417866846,-10.286467332514416,0.061982669154144604,-0.13148820047842424,-0.6258511033987959,0.002867917272756866,-0.006618947784931325,-0.02320007597179304,0,70,255.0,255.0,255.0
398,19.900000000000002,1.9257831506563943,2.0946050414649826,-10.31778866559862,0.06210276483808354,-0.1317961446506507,-0.6269977763553454,0.001935910084800312,-0.005698819104127,-0.02266684229018201,0,70,255.0,255.0,255.0
399,19.950000000000003,1.9288903204495762,2.08800849409552,-10.34916666578855,0.06217626016262463,-0.13205808238883696,-0.6281177876278141,0.0010039028968437582,-0.004778690423322677,-0.022133608608570977,0,70,255.0,255.0,255.0
400,20.0,1.932,2.0814,-10.3806,0.06220315512776791,-0.13227401369298297,-0.6292111372162024,7.189570888682661e-05,-0.003858561742518418,-0.02160037492695821,0,70,255.0,255.0,255.0
401,20.05,1.9351106233418418,2.0747813887809943,-10.412087734961306,0.06222929286224683,-0.13247218171081312,-0.6303018138727022,0.0009736136702698922,-0.004068158970687111,-0.022026691333035947,0,70,255.0,255.0,255.0
402,20.1,1.9382236807178592,2.068152607164562,-10.443630536650943,0.0623005164947949,-0.1326808295900517,-0.6314138063495061,0.0018753316316529578,-0.004277756198855804,-0.022453007739113684,0,70,255.0,255.0,255.0
403,20.150000000000002,1.9413414264229556,2.061513131157632,-10.47522947085993,0.062416826025412125,-0.1328999573306987,-0.6325471146466136,0.0027770495930360237,-0.004487353427024497,-0.02287932414519142,0,70,255.0,255.0,255.0
404,20.200000000000003,1.944466114752035,2.0548624367671344,-10.506885603379276,0.0625782214540985,-0.13312956493275416,-0.6337017387640251,0.003678767554419089,-0.004696950655193189,-0.02330564055126916,0,70,255.0,255.0,255.0
405,20.25,1.9476,2.0482,-10.5386,0.06278470278085402,-0.133369652396218,-0.6348776787017405,0.004580485515801813,-0.004906547883361423,-0.023731956957343314,0,70,255.0,255.0,255.0
406,20.3,1.9507446462189968,2.041525350137098,-10.570373060534642,0.06299485544020463,-0.13361702328458955,-0.6360349757510386,0.003825620858222123,-0.004988287651499769,-0.02255992501457838,0,70,255.0,255.0,255.0
407,20.35,1.9538988564901394,2.0348382295550675,-10.60220252088182,0.06316726486667623,-0.13386848116136799,-0.6371336712031983,0.0030707562006424332,-0.005070027419638115,-0.021387893071813446,0,70,255.0,255.0,255.0
408,20.400000000000002,1.9570607436517833,2.0281384339044877,-10.634085450961678,0.06330193106026887,-0.13412402602655338,-0.63817376505822,0.0023158915430627437,-0.005151767187776461,-0.020215861129048513,0,70,255.0,255.0,255.0
409,20.450000000000003,1.9602284205422849,2.0214257588359383,-10.666018920694357,0.06339885402098251,-0.13438365788014564,-0.6391552573161032,0.0015610268854830537,-0.005233506955914806,-0.019043829186283577,0,70,255.0,255.0,255.0
410,20.5,1.9634,2.0147,-10.698,0.06345803374881717,-0.13464737672214483,-0.6400781479768483,0.0008061622279034175,-0.0053152467240531465,-0.01787179724351695,0,70,255.0,255.0,255.0
411,20.55,1.9665739917821712,2.007961210670613,-10.730026422900133,0.06350328537693574,-0.13489972515082924,-0.640982283123149,0.0010039028968394288,-0.00477869042332281,-0.018293608608511043,0,70,255.0,255.0,255.0
412,20.6,1.9697504933215844,2.001210474615167,-10.762098579821787,0.06355842403850112,-0.13512524576447713,-0.6419075088376994,0.00120164356577544,-0.004242134122592474,-0.01871541997350513,0,70,255.0,255.0,255.0
413,20.650000000000002,1.972929998969912,1.9944491332244154,-10.794217525293375,0.06362344973351329,-0.1353239385630885,-0.6428538251204996,0.0013993842347114513,-0.0037055778218621376,-0.019137231338499223,0,70,255.0,255.0,255.0
414,20.700000000000003,1.9761130030788268,1.987678527889109,-10.826384313843308,0.06369836246197226,-0.13549580354666332,-0.6438212319715493,0.0015971249036474623,-0.003169021521131801,-0.019559042703493314,0,70,255.0,255.0,255.0
415,20.75,1.9793,1.9809,-10.8586,0.06378316222387803,-0.13564084071520166,-0.6448097293908487,0.0017948655725836815,-0.002632465220401947,-0.01998085406848471,0,70,255.0,255.0,255.0
416,20.8,1.982491386652319,1.9741146071804498,-10.890865247864829,0.0638720030520531,-0.13577607611209153,-0.6457958917563444,0.0017587675544191933,-0.0027769506551933907,-0.01946564055134469,0,70,255.0,255.0,255.0
417,20.85,1.9856871702235235,1.9673222719842618,-10.923179159831037,0.06395903897931995,-0.13591853578072102,-0.6467562934459832,0.0017226695362547052,-0.002921436089984834,-0.018950427034204673,0,70,255.0,255.0,255.0
418,20.900000000000002,1.9888872604685692,1.9605226331978485,-10.95554044786483,0.06404427000567857,-0.13606821972109004,-0.6476909344597649,0.001686571518090217,-0.0030659215247762777,-0.018435213517064654,0,70,255.0,255.0,255.0
419,20.950000000000003,1.9920915671424098,1.9537153296076237,-10.987947823932416,0.06412769613112898,-0.13622512793319863,-0.6485998147976897,0.0016504734999257288,-0.003210406959567721,-0.017919999999924635,0,70,255.0,255.0,255.0
420,21.0,1.9953,1.9469,-11.0204,0.06420931735567113,-0.13638926041704683,-0.6494829344597575,0.0016143754817611322,-0.003354892394359821,-0.017404786482787316,0,70,255.0,255.0,255.0
421,21.05,1.9985124616085541,1.9400763606075875,-11.052895785640553,0.06428870241485224,-0.1365559704008038,-0.6503461498514835,0.0015610268854830737,-0.00331350695591932,-0.017123829186254366,0,70,255.0,255.0,255.0
422,21.1,2.0017288257843213,1.9332444374477846,-11.08543438085407,0.06436542004421944,-0.13672061111263878,-0.6511953173783829,0.0015076782892050151,-0.0032721215174788196,-0.016842871889721413,0,70,255.0,255.0,255.0
423,21.150000000000002,2.0049489591558123,1.9264043339841888,-11.118015083247311,0.06443947024377274,-0.1368831825525517,-0.6520304370404557,0.0014543296929269566,-0.0032307360790383194,-0.016561914593188464,0,70,255.0,255.0,255.0
424,21.200000000000003,2.0081727283515356,1.919556153680395,-11.150637190427036,0.06451085301351214,-0.13704368472054262,-0.6528515088377018,0.001400981096648898,-0.003189350640597819,-0.016280957296655515,0,70,255.0,255.0,255.0
425,21.25,2.0114,1.9127,-11.1833,0.06457956835343763,-0.1372021176166115,-0.6536585327701212,0.0013476325003710654,-0.0031479652021575433,-0.016000000000122583,0,70,255.0,255.0,255.0
426,21.3,2.0146307669134655,1.9058359503892006,-11.216002809572966,0.0646531872885381,-0.13736004228469362,-0.6544515088377117,0.0015971249036476544,-0.0031690215211275688,-0.015719042703500104,0,70,255.0,255.0,255.0
427,21.35,2.01786552663919,1.8989639782245982,-11.248744916752692,0.0647392808438024,-0.13751901976872427,-0.6552304370404712,0.0018466173069242434,-0.0031900778400975943,-0.015438085406877624,0,70,255.0,255.0,255.0
428,21.400000000000002,2.021104902908182,1.8920840308653954,-11.281525619145933,0.06483784901923054,-0.1376790500687034,-0.6559953173783996,0.0020961097102008327,-0.00321113415906762,-0.015157128110255146,0,70,255.0,255.0,255.0
429,21.450000000000003,2.024349519451449,1.885196055670795,-11.314344214359451,0.06494889181482248,-0.13784013318463104,-0.6567461498514967,0.0023456021134774215,-0.0032321904780376453,-0.014876170813632668,0,70,255.0,255.0,255.0
430,21.5,2.0276,1.8783,-11.3472,0.06507240923057826,-0.13800226911650718,-0.6574829344597628,0.002595094516754215,-0.0032532467970078915,-0.014595213517008432,0,70,255.0,255.0,255.0
431,21.55,2.0308564707375845,1.8713958378356106,-11.380092176067587,0.06517854843099516,-0.1381638604604217,-0.6581998147976863,0.0016504734999213877,-0.0032104069595722865,-0.014079999999934494,0,70,255.0,255.0,255.0
432,21.6,2.034117067658919,1.8644836496538222,-11.413019552135173,0.0652374565805704,-0.1383233098124644,-0.6588909344597563,0.0007058524830885601,-0.003167567122136682,-0.013564786482860554,0,70,255.0,255.0,255.0
433,21.650000000000002,2.037379429211461,1.8575635425542285,-11.445980840168966,0.06524913367930402,-0.13848061717263535,-0.6595562934459724,-0.00023876853374426698,-0.003124727284701077,-0.013049572965786616,0,70,255.0,255.0,255.0
434,21.700000000000003,2.0406411938426685,1.850635623636423,-11.478974752135173,0.06521357972719598,-0.13863578254093453,-0.660195891756335,-0.0011833895505770947,-0.0030818874472654722,-0.012534359448712677,0,70,255.0,255.0,255.0
435,21.75,2.0439,1.8437,-11.512,0.06513079472424631,-0.1387888059173619,-0.6608097293908436,-0.002128010567409855,-0.003039047609829426,-0.01201914593163611,0,70,255.0,255.0,255.0
436,21.8,2.0471545501361965,1.8367566982683565,-11.545055686156694,0.06506461898747751,-0.13894451587362247,-0.6614212319715495,-0.0005190189033422935,-0.00318935064059356,-0.012440957296596096,0,70,255.0,255.0,255.0
437,21.85,2.0504078027251342,1.8298054231601117,-11.578142474706627,0.06507889283391208,-0.13910774098142126,-0.6620538251205033,0.0010899727607252678,-0.003339653671357694,-0.01286276866155608,0,70,255.0,255.0,255.0
438,21.900000000000002,2.0536637802459743,1.8228457989176887,-11.611261420178216,0.06517361626355003,-0.13927848124075826,-0.6627075088377051,0.0026989644247928284,-0.003489956702121828,-0.013284580026516064,0,70,255.0,255.0,255.0
439,21.950000000000003,2.0569265051778762,1.8158774497835102,-11.64441357709987,0.06534878927639137,-0.13945673665163344,-0.663382283123155,0.00430795608886039,-0.003640259732885962,-0.01370639139147605,0,70,255.0,255.0,255.0
440,22.0,2.0602,1.8089,-11.6776,0.06560441187243607,-0.13964250721404683,-0.6640781479768527,0.00591694775292817,-0.003790562763650085,-0.014128202756436892,0,70,255.0,255.0,255.0
441,22.05,2.06348692871763,1.801913369090962,-11.710821079305646,0.06585897561909632,-0.13981807604508895,-0.6647552573161054,0.004265602113481591,-0.003232190478033684,-0.012956170813670892,0,70,255.0,255.0,255.0
442,22.1,2.0667845214405434,1.794918657705729,-11.744074549038325,0.06603097208378422,-0.1399657262618502,-0.6653737650582199,0.0026142564740350123,-0.002673818192417283,-0.011784138870904893,0,70,255.0,255.0,255.0
443,22.150000000000002,2.0700886498046427,1.7879172617750148,-11.777357479118184,0.06612040126649982,-0.14008545786433066,-0.6659336712031959,0.0009629108345884339,-0.002115445906800882,-0.010612106928138892,0,70,255.0,255.0,255.0
444,22.200000000000003,2.0733951854458277,1.7809105772295337,-11.81066693946536,0.06612726316724309,-0.14017727085253032,-0.6664349757510337,-0.0006884348048581453,-0.001557073621184481,-0.009440074985372892,0,70,255.0,255.0,255.0
445,22.25,2.0767,1.7739,-11.844,0.06605155778601401,-0.14024116522644914,-0.6668776787017331,-0.0023397804443043846,-0.0009987013355683416,-0.008268043042607864,0,70,255.0,255.0,255.0
446,22.3,2.080000134993284,1.766886625367795,-11.877354396620726,0.06596347853614154,-0.1402951799460202,-0.6673017387640163,-0.0011833895505940553,-0.0011618874472739927,-0.008694359448720775,0,70,255.0,255.0,255.0
447,22.35,2.0832973115126925,1.7598703460169713,-11.910730529140075,0.06593321883095461,-0.14035735397117655,-0.6677471146466052,-2.69986568837261e-05,-0.0013250735589796438,-0.009120675854833683,0,70,255.0,255.0,255.0
448,22.400000000000002,2.0865944205354583,1.7528507539822504,-11.944129463349059,0.06596077867045318,-0.14042768730191815,-0.6682138063494997,0.0011293922368266034,-0.001488259670685295,-0.009546992260946591,0,70,255.0,255.0,255.0
449,22.450000000000003,2.089894353038816,1.745827441298353,-11.977552265038696,0.06604615805463727,-0.14050617993824507,-0.6687018138726999,0.0022857831305369324,-0.001651445782390946,-0.009973308667059502,0,70,255.0,255.0,255.0
450,22.5,2.0932,1.7388,-12.011,0.06618935698350686,-0.14059283188015723,-0.6692111372162056,0.003442174024246958,-0.0018146318940959194,-0.01039962507317238,0,70,255.0,255.0,255.0
451,22.55,2.0965133313092323,1.7317681294378582,-12.044473334211451,0.06633511023633466,-0.14068120417083166,-0.6697177876278221,0.002387956088864825,-0.0017202597328817223,-0.009866391391485678,0,70,255.0,255.0,255.0
452,22.6,2.0998326325086873,1.7247319582263843,-12.077971334401381,0.06642815259239335,-0.1407648578534454,-0.6701977763553543,0.001333738153482692,-0.0016258875716675253,-0.009333157709798975,0,70,255.0,255.0,255.0
453,22.650000000000002,2.1031552680535257,1.717691722295981,-12.111492667485587,0.06646848405168293,-0.14084379292799842,-0.670651103398802,0.000279520218100559,-0.0015315154104533284,-0.00879992402811227,0,70,255.0,255.0,255.0
454,22.700000000000003,2.1064786023989095,1.7106476575770517,-12.14503600037986,0.0664561046142034,-0.14091800939449073,-0.6710777687581654,-0.000774697717281574,-0.0014371432492391314,-0.008266690346425567,0,70,255.0,255.0,255.0
455,22.75,2.1098,1.7036,-12.1786,0.06639101427995478,-0.14098750725292233,-0.6714777724334445,-0.001828915652664076,-0.001342771088024941,-0.007733456664740679,0,70,255.0,255.0,255.0
456,22.8,2.1131177397697853,1.6965488568807716,-12.212183466533471,0.06632808051851694,-0.14106000337065258,-0.6718591107246975,-0.000688434804849553,-0.0015570736211848709,-0.007520074985377964,0,70,255.0,255.0,255.0
457,22.85,2.116433758452558,1.6894938210774901,-12.245785733254404,0.06632217079946982,-0.1411432146150408,-0.6722297799319823,0.0004520460429649699,-0.001771376154344801,-0.007306693306015249,0,70,255.0,255.0,255.0
458,22.900000000000002,2.1197509072504386,1.6824343568338231,-12.279406266708603,0.06637328512281344,-0.14123714098608708,-0.672589780055299,0.001592526890779493,-0.001985678687504731,-0.007093311626652534,0,70,255.0,255.0,255.0
459,22.950000000000003,2.1230720373655463,1.6753699283934371,-12.313044533441868,0.06648142348854778,-0.1413417824837913,-0.6729391110946475,0.0027330077385940158,-0.0021999812206646607,-0.006879929947289819,0,70,255.0,255.0,255.0
460,23.0,2.1264,1.6683,-12.3467,0.06664658589667283,-0.14145713910815352,-0.673277773050028,0.003873488586408236,-0.0024142837538245754,-0.006666548267927119,0,70,255.0,255.0,255.0
461,23.05,2.129736509611626,1.6612244430390546,-12.380371999654669,0.06680056768959645,-0.1415587823465589,-0.673597769473402,0.0022857831305367554,-0.0016514457823905261,-0.006133308667033958,0,70,255.0,255.0,255.0
462,23.1,2.1330787336810797,1.6541447574636534,-12.414059332581008,0.06687516420972651,-0.14162228368639257,-0.6738911039167315,0.0006980776746652755,-0.0008886078109564771,-0.005600069066140796,0,70,255.0,255.0,255.0
463,23.150000000000002,2.1364227029447194,1.6470628503687246,-12.447760665680011,0.06687037545706298,-0.14164764312765454,-0.6741577763800161,-0.0008896277812062044,-0.0001257698395224281,-0.005066829465247635,0,70,255.0,255.0,255.0
464,23.200000000000003,2.1397644481389064,1.6399806288491972,-12.481474665852677,0.06678620143160588,-0.14163486067034484,-0.6743977868632562,-0.0024773332370776847,0.0006370681319116211,-0.004533589864354473,0,70,255.0,255.0,255.0
465,23.25,2.1431,1.6329,-12.5152,0.06662264213335521,-0.1415839363144634,-0.6746111353664517,-0.004065038692949385,0.001399906103345172,-0.004000350263465791,0,70,255.0,255.0,255.0
466,23.3,2.1464266217837085,1.625822170963009,-12.548935734847852,0.06645364872309933,-0.14153686724311074,-0.6748218113816984,-0.002694697717285746,0.0004828567507604611,-0.004426690346402401,0,70,255.0,255.0,255.0
467,23.35,2.149746506823123,1.618745549067895,-12.582682536421572,0.06635317236162663,-0.14153565063938736,-0.6750538044010919,-0.0013243567416221067,-0.00043419260182424985,-0.004853030429339013,0,70,255.0,255.0,255.0
468,23.400000000000002,2.1530630809706843,1.6116678416912764,-12.616441470571367,0.06632121304893712,-0.14158028650329318,-0.6753071144246323,4.5984234041532464e-05,-0.0013512419544089607,-0.005279370512275623,0,70,255.0,255.0,255.0
469,23.450000000000003,2.15637977007883,1.6045867562097718,-12.65021360314744,0.06635777078503079,-0.14167077483482823,-0.6755817414523195,0.001416325209705172,-0.0022682913069936718,-0.005705710595212235,0,70,255.0,255.0,255.0
470,23.5,2.1597,1.5975,-12.684,0.06646284556990761,-0.14180711563399254,-0.6758776854841535,0.0027866661853683805,-0.003185340659577429,-0.0061320506781470385,0,70,255.0,255.0,255.0
471,23.55,2.163026603253541,1.5904060731089087,-12.717801060953919,0.06660083741800667,-0.14194174868099857,-0.6761549849997903,0.0027330077385938614,-0.00219998122066419,-0.004959929947326797,0,70,255.0,255.0,255.0
472,23.6,2.1663600390264284,1.5833066462647656,-12.751614521732703,0.06673614634376701,-0.14202711375605895,-0.6763736784788862,0.0026793492918193423,-0.0012146217817509517,-0.0037878092165065545,0,70,255.0,255.0,255.0
473,23.650000000000002,2.1697001731725454,1.5762041828661684,-12.78543745203453,0.06686877234718862,-0.14206321085917367,-0.676533765921441,0.0026256908450448236,-0.00022926234283771312,-0.002615688485686313,0,70,255.0,255.0,255.0
474,23.700000000000003,2.173046871545775,1.5691011463117137,-12.819266921557574,0.06699871542827149,-0.14205003999034274,-0.6766352473274548,0.0025720323982703045,0.0007560970960755259,-0.0014435677548660705,0,70,255.0,255.0,255.0
475,23.75,2.1764,1.562,-12.8531,0.06712597558701563,-0.14198760114956613,-0.6766781226969276,0.0025183739514960113,0.0017414565349886946,-0.0002714470240441358,0,70,255.0,255.0,255.0
476,23.8,2.179758965202128,1.554902336601356,-12.886934421336477,0.06722300160487608,-0.1419281380328936,-0.6767022486191379,0.0013626667629219216,0.000637068131911207,-0.0006935898643654131,0,70,255.0,255.0,255.0
477,23.85,2.1831213370711637,1.5478062658730412,-12.920770576647614,0.06726224226330782,-0.141923894336375,-0.6767474816833642,0.00020695957434783193,-0.00046732027116628064,-0.0011157327046866904,0,70,255.0,255.0,255.0
478,23.900000000000002,2.1864842263391355,1.5407090268440489,-12.954609521290513,0.06724369756231087,-0.14197487006001025,-0.6768138218896066,-0.0009487476142262577,-0.0015717086742437687,-0.0015378755450079675,0,70,255.0,255.0,255.0
479,23.950000000000003,2.1898447437380715,1.5336078585433708,-12.988452310622277,0.0671673675018852,-0.1420810652037994,-0.6769012692378649,-0.0021044548028003474,-0.002676097077321256,-0.001960018385329245,0,70,255.0,255.0,255.0
480,24.0,2.1932,1.5265,-13.0223,0.06703325208203086,-0.14224247976774235,-0.6770098237281393,-0.003260161991373578,-0.0037804854803984433,-0.0023821612256478275,0,70,255.0,255.0,255.0
481,24.05,2.196547935937946,1.519383780485668,-13.056153253700177,0.06689115616248915,-0.14239369918742725,-0.6771160205236602,-0.002423674790294471,-0.00226829130699755,-0.0018657105951861578,0,70,255.0,255.0,255.0
482,24.1,2.199889812688917,1.5122618902430682,-13.09001117167684,0.06679088460300141,-0.14246930889844212,-0.677196394787658,-0.0015871875892153648,-0.0007560971335966575,-0.0013492599647244882,0,70,255.0,255.0,255.0
483,24.150000000000002,2.2032277214709137,1.5051381097576346,-13.123872462803417,0.0667324374035676,-0.14246930890078693,-0.6772509465201326,-0.0007507003881362584,0.0007560970398042353,-0.0008328093342628187,0,70,255.0,255.0,255.0
484,24.200000000000003,2.206563753501941,1.4980162195148004,-13.157735835953329,0.06671581456418778,-0.14239369919446168,-0.6772796757210843,8.578681294284848e-05,0.0022682912132051284,-0.00031635870380114896,0,70,255.0,255.0,255.0
485,24.25,2.2099,1.4909,-13.1916,0.06674101608486191,-0.1422424797794664,-0.6772825823905126,0.0009222740140222285,0.003780485386606358,0.0002000919266649248,0,70,255.0,255.0,255.0
486,24.3,2.2132380910460876,1.483792141455972,-13.225463763862818,0.06678037374516912,-0.14208106521739916,-0.6772656692862186,0.0006520323982662519,0.0026760970960839027,0.0004764322450967068,0,70,255.0,255.0,255.0
487,24.35,2.216577812173171,1.4766909731546842,-13.259326336645023,0.06680621932468853,-0.141974870069858,-0.677234939166003,0.00038179078251027523,0.0015717088055614468,0.0007527725635284888,0,70,255.0,255.0,255.0
488,24.400000000000002,2.2199184877772105,1.4695937341254106,-13.29318702749582,0.06681855282342015,-0.14192389433684302,-0.6771903920298658,0.00011154916675429848,0.00046732051503899086,0.0010291128819602709,0,70,255.0,255.0,255.0
489,24.450000000000003,2.2232594422541667,1.4624976633974243,-13.327045145564412,0.06681737424136397,-0.14192813801835413,-0.677132027877807,-0.00015869244900167806,-0.0006370677754834646,0.0013054532003920528,0,70,255.0,255.0,255.0
490,24.5,2.2266,1.4554,-13.3609,0.06680268357851998,-0.14198760111439135,-0.6770598467098264,-0.0004289340647574136,-0.001741456066005398,0.0015817935188264798,0,70,255.0,255.0,255.0
491,24.55,2.229939699877704,1.448298853690443,-13.394750890848554,0.06678734885683116,-0.14205003994297463,-0.6769733023314876,-0.0001844548027958269,-0.0007560970773253432,0.0018799816147312895,0,70,255.0,255.0,255.0
492,24.6,2.233278938618401,1.441195817138193,-13.428597081743069,0.0667842380982404,-0.14206321082212386,-0.6768718485483532,6.002445916575977e-05,0.00022926191135471145,0.002178169710636099,0,70,255.0,255.0,255.0
493,24.650000000000002,2.2366183274202465,1.434093353740721,-13.46243782721331,0.06679335130274773,-0.14202711375183916,-0.676755485360424,0.00030450372112734644,0.001214620900034766,0.002476357806540909,0,70,255.0,255.0,255.0
494,24.700000000000003,2.239958477481395,1.4269939268954992,-13.496272381789035,0.06681468847035313,-0.14194174873212043,-0.6766242127676991,0.0005489829830889331,0.002199979888714821,0.0027745459024457186,0,70,255.0,255.0,255.0
495,24.75,2.2433,1.4199,-13.5301,0.06684824960105663,-0.14180711576296767,-0.6764780307701794,0.0007934622450508355,0.0031853388773948055,0.0030727339983496194,0,70,255.0,255.0,255.0
496,24.8,2.2466431094430956,1.412813243782255,-13.56391987274297,0.06687023082750648,-0.14167077501070266,-0.6763131213878159,8.578681294301273e-05,0.0022682912132051185,0.0035236412961918324,0,70,255.0,255.0,255.0
497,24.85,2.2499864333532242,1.4057321582925424,-13.597730936382701,0.06685682828235094,-0.14158028664164718,-0.6761256666405603,-0.00062188861916481,0.0013512435490154312,0.0039745485940340455,0,70,255.0,255.0,255.0
498,24.900000000000002,2.2533282025418044,1.398654450911703,-13.631532063650946,0.06680804196559001,-0.14153565065580112,-0.6759156665284125,-0.001329564051272633,0.000434195884825744,0.004425455891876259,0,70,255.0,255.0,255.0
499,24.950000000000003,2.256666647820256,1.3915778290205756,-13.665322127279461,0.06672387187722366,-0.14153686705316457,-0.6756831210513726,-0.0020372394833804556,-0.000482851779363943,0.004876363189718473,0,70,255.0,255.0,255.0
500,25.0,2.26,1.3845,-13.6991,0.06660431801725196,-0.14158393583373752,-0.6754280302094406,-0.002744914915488006,-0.001399899443553121,0.00532727048756243,0,70,255.0,255.0,255.0
501,25.05,2.263327062349912,1.3774193711805371,-13.732864818179566,0.06648372783313983,-0.14163486001421344,-0.6751662121172436,-0.0020786924489970674,-0.0006370677754830359,0.00514545320031736,0,70,255.0,255.0,255.0
502,25.1,2.2666489279687028,1.3703371496916352,-13.766616772726131,0.06639644877235225,-0.14164764261128582,-0.6749134848894088,-0.0014124699825061292,0.00012576389258704907,0.00496363591307229,0,70,255.0,255.0,255.0
503,25.150000000000002,2.2699672624125364,1.363255242612465,-13.800356318182915,0.06634248083488921,-0.14162228362495474,-0.6746698485259364,-0.0007462475160151909,0.0008885955606571343,0.00478181862582722,0,70,255.0,255.0,255.0
504,25.200000000000003,2.2732837312375804,1.356175557022196,-13.834083909093131,0.06632182402075074,-0.1415587830552201,-0.6744353030268262,-8.002504952425238e-05,0.001651427228727219,0.0046000013385821496,0,70,255.0,255.0,255.0
505,25.25,2.2766,1.3491,-13.8678,0.06633447832993679,-0.141457140902082,-0.6742098483920782,0.0005861974169661943,0.002414258896796806,0.004418184051338869,0,70,255.0,255.0,255.0
506,25.3,2.279917441157254,1.3420300714955968,-13.901504854538771,0.06636285783993817,-0.14134178493244423,-0.6739820301432312,0.0005489829830888965,0.002199979888714495,0.0046945459025430165,0,70,255.0,255.0,255.0
507,25.35,2.283236254771966,1.3349656429409154,-13.935197972712782,0.06638937662824568,-0.14123714291321054,-0.6737403938018239,0.0005117685492115987,0.0019857008806321848,0.004970907753747164,0,70,255.0,255.0,255.0
508,25.400000000000002,2.2865563478080504,1.3279061786384354,-13.96887866361741,0.06641403469485933,-0.141143214844381,-0.6734849393678565,0.0004745541153343009,0.001771421872549874,0.005247269604951311,0,70,255.0,255.0,255.0
509,25.450000000000003,2.2898776272294232,1.320851142890637,-14.002546236348026,0.06643683203977911,-0.14106000072595556,-0.6732156668413287,0.00043733968145700304,0.0015571428644675634,0.005523631456155458,0,70,255.0,255.0,255.0
510,25.5,2.2932,1.3138,-14.0362,0.06645776866300503,-0.14098750055793427,-0.672932576222241,0.0004001252475797079,0.0013428638563846018,0.00579999330736225,0,70,255.0,255.0,255.0
511,25.55,2.296523173021072,1.3067523428370755,-14.06983896366536,0.06646484080710968,-0.14091800025600876,-0.6726176673098149,-0.00011723948339324621,0.0014371482206360323,0.006796363189681834,0,70,255.0,255.0,255.0
512,25.6,2.2998460529434355,1.2997082785447025,-14.103460936422747,0.0664460447146657,-0.14084378573587067,-0.6722529399032727,-0.0006346042143662003,0.0015314325848874626,0.007792733072001418,0,70,255.0,255.0,255.0
513,25.650000000000002,2.303167346355263,1.2926680428337918,-14.137063427347453,0.06640138038567307,-0.14076485699752,-0.6718383940026147,-0.0011519689453391546,0.001625716949138893,0.008789102954321002,0,70,255.0,255.0,255.0
514,25.700000000000003,2.306485759844727,1.2856318714152537,-14.170643945514774,0.06633084782013178,-0.14068121404095676,-0.6713740296078408,-0.0016693336763121086,0.0017200013133903233,0.009785472836640587,0,70,255.0,255.0,255.0
515,25.75,2.3098,1.2786,-14.2042,0.06623444701804188,-0.14059285686618098,-0.6708598467189507,-0.002186698407284915,0.001814285677641747,0.0107818427189601,0,70,255.0,255.0,255.0
516,25.8,2.3131090667584586,1.2715725571561007,-14.23772969079979,0.06612977893162175,-0.14050621404352176,-0.6703313006175133,-0.002000025049520013,0.001651427228727129,0.010360001338534802,0,70,255.0,255.0,255.0
517,25.85,2.3164131334542932,1.2645492428802734,-14.271233481596237,0.06603444451308987,-0.14042771414330826,-0.6698238465850973,-0.001813351691755111,0.0014885687798125112,0.009938159958109503,0,70,255.0,255.0,255.0
518,25.900000000000002,2.3197126667708994,1.2575296500263957,-14.304712426992785,0.06594844376244624,-0.14035735716554051,-0.6693374846217024,-0.001626678333990209,0.0013257103308978932,0.009516318577684205,0,70,255.0,255.0,255.0
519,25.950000000000003,2.3230081333916703,1.250513371448345,-14.33816758159289,0.06587177667969085,-0.14029514311021846,-0.6688722147273287,-0.001440004976225307,0.0011628518819832754,0.009094477197258909,0,70,255.0,255.0,255.0
520,26.0,2.3263,1.2435,-14.3716,0.0658044432648237,-0.14024107197734217,-0.6684280369019766,-0.0012533316184605292,0.000999993433069113,0.008672635816834529,0,70,255.0,255.0,255.0
521,26.05,2.329588559945093,1.2364894285385208,-14.405010273135481,0.06573604346639872,-0.14017714356990377,-0.6679771302201495,-0.0014826603185385233,0.0015571428644673615,0.009363631456250241,0,70,255.0,255.0,255.0
522,26.1,2.3328734132393896,1.2294827499342023,-14.438397137192316,0.06565617723296983,-0.14008535769089545,-0.6674916737563517,-0.0017119890186165175,0.00211429229586561,0.010054627095665954,0,70,255.0,255.0,255.0
523,26.150000000000002,2.33615398656114,1.2224813570606237,-14.471758864681416,0.06556484456453707,-0.13996571434031718,-0.6669716675105829,-0.0019413177186945116,0.0026714417272638586,0.010745622735081669,0,70,255.0,255.0,255.0
524,26.200000000000003,2.3394297065885934,1.2154866427913633,-14.505093728113675,0.06546204546110039,-0.13981821351816903,-0.6664171114828433,-0.002170646418772506,0.0032285911586621067,0.011436618374497382,0,70,255.0,255.0,255.0
525,26.25,2.3427,1.2085,-14.5384,0.06534777992265982,-0.139642855224451,-0.6658280056731332,-0.0023999751188504836,0.003785740590060316,0.012127614013914823,0,70,255.0,255.0,255.0
526,26.3,2.345964693461169,1.2015225286898161,-14.571676416658297,0.06524604720278097,-0.13945721167686473,-0.6652321785018702,-0.001669333676303409,0.0036400013133900157,0.011705472836602476,0,70,255.0,255.0,255.0
527,26.35,2.349225213588147,1.1945541573829161,-14.604923569634503,0.06518084655502947,-0.13927885509311197,-0.6646574583894729,-0.0009386922337563345,0.0034942620367197155,0.01128333165929013,0,70,255.0,255.0,255.0
528,26.400000000000002,2.3524833869845403,1.1875945217311077,-14.638142514281558,0.06515217797940533,-0.13910778547319275,-0.6641038453359412,-0.00020805079120926,0.0033485227600494154,0.010861190481977782,0,70,255.0,255.0,255.0
529,26.450000000000003,2.355741040253956,1.1806432573861991,-14.67133430595241,0.06516004147590855,-0.13894400281710703,-0.6635713393412751,0.0005225906513378147,0.0032027834833791152,0.010439049304665436,0,70,255.0,255.0,255.0
530,26.5,2.359,1.1737,-14.7045,0.06520443704453911,-0.13878750712485483,-0.6630599404054747,0.0012532320938850594,0.0030570442067090475,0.010016908127353119,0,70,255.0,255.0,255.0
531,26.55,2.3622614662102315,1.1667644567022137,-14.737640060231334,0.0652477677224805,-0.13863400972263742,-0.6625341557723604,0.0004799950237701745,0.0030828518819874698,0.011014477197219832,0,70,255.0,255.0,255.0
532,26.6,2.3655241324080234,1.159836620534132,-14.770752584269678,0.06525243654691612,-0.13847922193665607,-0.6619584926857526,-0.0002932420463447104,0.003108659557265892,0.012012046267086546,0,70,255.0,255.0,255.0
533,26.650000000000002,2.3687860655006987,1.152916556014944,-14.803835078192353,0.06521844351784602,-0.13832314376691082,-0.6613329511456516,-0.001066479116459595,0.0031344672325443147,0.013009615336953259,0,70,255.0,255.0,255.0
534,26.700000000000003,2.372045332395582,1.146004327663837,-14.836885048076686,0.06514578863527018,-0.13816577521340165,-0.6606575311520573,-0.0018397161865744802,0.003160274907822737,0.014007184406819972,0,70,255.0,255.0,255.0
535,26.75,2.3753,1.1391,-14.8699,0.06503447189918858,-0.13800711627612855,-0.6599322327049697,-0.002612953256689088,0.0031860825831020456,0.01500475347668484,0,70,255.0,255.0,255.0
536,26.8,2.3785486416979045,1.1322036445013288,-14.902877742416363,0.06491488190730184,-0.13784674943258454,-0.6591751984086895,-0.0021706464187809687,0.0032285911586581234,0.015276618374522504,0,70,255.0,255.0,255.0
537,26.85,2.381791856779762,1.1253153604805541,-14.935817293286787,0.06481740725731047,-0.13768425716026272,-0.6584045708675175,-0.0017283395808728493,0.003271099734214201,0.015548483272360166,0,70,255.0,255.0,255.0
538,26.900000000000002,2.385030751012667,1.1184352542091154,-14.968717972949035,0.06474204794921454,-0.13751963945916312,-0.6576203500814535,-0.00128603274296473,0.0033136083097702793,0.01582034817019783,0,70,255.0,255.0,255.0
539,26.950000000000003,2.388266430163715,1.1115634319584509,-15.001579101740852,0.064688803983014,-0.1373528963292857,-0.6568225360504977,-0.0008437259050566108,0.003356116885326357,0.01609221306803549,0,70,255.0,255.0,255.0
540,27.0,2.3915,1.1047,-15.0344,0.0646576753587089,-0.1371840277706305,-0.65601112877465,-0.00040141906714818987,0.00339862546088332,0.016364077965874912,0,70,255.0,255.0,255.0
541,27.05,2.394731966998151,1.0978449652924707,-15.067180170103217,0.06461270464831353,-0.13701899254702393,-0.6551970505928867,-0.0013974093486661817,0.0032027834833795203,0.016199049304653098,0,70,255.0,255.0,255.0
542,27.1,2.39796044047293,1.0909979375436496,-15.099919842583175,0.06451793442384227,-0.13686374942229254,-0.6543912238441847,-0.0023933996301841736,0.003006941505875721,0.016034020643431287,0,70,255.0,255.0,255.0
543,27.150000000000002,2.4011829304486345,1.0841584271485931,-15.132619430011522,0.06437336468529511,-0.13671829839643634,-0.6535936485285436,-0.0033893899117021656,0.0028110995283719214,0.015868991982209472,0,70,255.0,255.0,255.0
544,27.200000000000003,2.404396946949559,1.0773259445023577,-15.165279344959913,0.06417899543267205,-0.13658263946945534,-0.6528043246459636,-0.004385380193220157,0.002615257550868122,0.015703963320987658,0,70,255.0,255.0,255.0
545,27.25,2.4076,1.0705,-15.1979,0.06393482666597311,-0.1364567726413495,-0.6520232521964449,-0.005381370474738301,0.0024194155733645584,0.015538934659764081,0,70,255.0,255.0,255.0
546,27.3,2.4107906903094922,1.0636804943287883,-15.23048157717077,0.06370629949944062,-0.1363172803793198,-0.6512365992197795,-0.0037597161865614787,0.003160274907822879,0.015927184406847778,0,70,255.0,255.0,255.0
547,27.35,2.4139719813285176,1.0568688893448466,-15.263023336380524,0.06355885504731695,-0.13614074515056723,-0.65043053375576,-0.0021380618983846563,0.0039011342422812,0.016315434153931475,0,70,255.0,255.0,255.0
548,27.400000000000002,2.4171479271927976,1.0500670371965102,-15.295524307004891,0.06349249330960215,-0.1359271669550917,-0.6496050558043863,-0.0005164076102078339,0.004641993576739521,0.01670368390101517,0,70,255.0,255.0,255.0
549,27.450000000000003,2.420322582038051,1.0432767900321158,-15.327983518419506,0.06350721428629617,-0.13567654579289323,-0.6487601653656585,0.001105246677968988,0.005382852911197842,0.017091933648098866,0,70,255.0,255.0,255.0
550,27.5,2.4235,1.0365,-15.3604,0.06360301797739902,-0.13538888166397192,-0.6478958624395765,0.0027269009661453625,0.00612371224565611,0.01748018339518076,0,70,255.0,255.0,255.0
551,27.55,2.426682871763881,1.029737857392375,-15.392772721213705,0.06369809735392613,-0.13510388593569733,-0.6470085525279962,0.0010762740949390435,0.0052761168853264415,0.018012213068031364,0,70,255.0,255.0,255.0
552,27.6,2.4298684342130006,1.0229889050769632,-15.42510041189474,0.06371064538689293,-0.13486126997543926,-0.6460946411327734,-0.0005743527762672755,0.004428521524996774,0.01854424274088197,0,70,255.0,255.0,255.0
553,27.650000000000002,2.433052560780178,1.0162510240653637,-15.457381741968923,0.06364066207629941,-0.13466103378319766,-0.6451541282539079,-0.002224979647473594,0.003580926164667106,0.019076272413732578,0,70,255.0,255.0,255.0
554,27.700000000000003,2.436231124898238,1.0095220953691761,-15.489615381362071,0.06348814742214556,-0.13450317735897255,-0.6441870138914001,-0.0038756065186799134,0.0027333308043374378,0.019608302086583183,0,70,255.0,255.0,255.0
555,27.75,2.4394,1.0028,-15.5218,0.06325310142443143,-0.1343877007027639,-0.6431932980452498,-0.005526233389886559,0.0018857354440084961,0.020140331759434638,0,70,255.0,255.0,255.0
556,27.8,2.442556222634983,0.9960832761017112,-15.553934737974414,0.06300531108485354,-0.1342751758778919,-0.6422011906682394,-0.004385380193228811,0.002615257550872762,0.019543963320979244,0,70,255.0,255.0,255.0
557,27.85,2.4457014818194827,0.9893730903472996,-15.586020616040525,0.06281456340510855,-0.13412617494767662,-0.6412389017131519,-0.003244526996571063,0.003344779657737028,0.01894759488252385,0,70,255.0,255.0,255.0
558,27.900000000000002,2.4488386296864912,0.9826712665420324,-15.618059125119428,0.06268085838519642,-0.13394069791211818,-0.640306431179987,-0.002103673799913315,0.0040743017646012935,0.018351226444068454,0,70,255.0,255.0,255.0
559,27.950000000000003,2.4519705183689995,0.9759796284911766,-15.650051756132223,0.06260419602511721,-0.13371874477121648,-0.639403779068745,-0.0009628206032555667,0.00480382387146556,0.01775485800561306,0,70,255.0,255.0,255.0
560,28.0,2.4551,0.9693,-15.682,0.06258457632487087,-0.13346031552497162,-0.6385309453794259,0.00017803259340143374,0.0055333459783302175,0.017158489567158597,0,70,255.0,255.0,255.0
561,28.05,2.4582290376961873,0.9626338382007796,-15.713904326888647,0.06256865830665544,-0.13318741055273348,-0.6376266847990437,-0.000814753322018494,0.0053828529111957105,0.019011933648128504,0,70,255.0,255.0,255.0
562,28.1,2.461356038509069,0.9559811335338372,-15.745761123943172,0.06250310099266902,-0.13292203023385205,-0.636629752014613,-0.0018075392374384217,0.005232359844061203,0.020865377729098408,0,70,255.0,255.0,255.0
563,28.150000000000002,2.4644785204738575,0.949341509766505,-15.777565757553376,0.0623879043829116,-0.13266417456832735,-0.6355401470261338,-0.0028003251528583495,0.005081866776926696,0.022718821810068315,0,70,255.0,255.0,255.0
564,28.200000000000003,2.467594001625764,0.9427145906661151,-15.809313594109053,0.06222306847738318,-0.13241384355615934,-0.6343578698336061,-0.003793111068278277,0.004931373709792189,0.02457226589103822,0,70,255.0,255.0,255.0
565,28.25,2.4707,0.9361,-15.841,0.062008593276083775,-0.13217103719734816,-0.6330829204370301,-0.004785896983698301,0.004780880642657026,0.026425709972011546,0,70,255.0,255.0,255.0
566,28.3,2.4737948265802685,0.9294973710951698,-15.872621554471007,0.06179205568852432,-0.1319351819111734,-0.6317880701355664,-0.003875606518679884,0.0046533308043331875,0.025368302086536672,0,70,255.0,255.0,255.0
