idx,t,px,py,pz,vx,vy,vz,ax,ay,az,yaw,mode,ledr,ledg,ledb
0,0.0,13.5,0.0,0.0,-2.4850477691205155e-20,4.045587195968937e-93,0.019030436776039605,2.9820573229446184e-19,-4.8547046351627245e-92,-0.5155652413124753,0,70,255.0,255.0,255.0
1,0.05,13.5,1.4564113905488176e-94,0.0003090957239374257,-1.1431219737954371e-20,1.8609701101457112e-93,-0.006625999083021784,2.3856458583556945e-19,-3.8837637081301793e-92,-0.5106921930499801,0,70,255.0,255.0,255.0
2,0.1,13.5,1.94188185406509e-94,-0.0006585390347500995,-9.940191076482057e-22,1.618234878387575e-94,-0.03203878252895842,1.789234393766771e-19,-2.9128227810976345e-92,-0.5058191447874851,0,70,255.0,255.0,255.0
3,0.15000000000000002,13.5,1.6991466223069538e-94,-0.0028907216554063375,6.461124199713342e-21,-1.0518526709519238e-93,-0.0572079135617703,1.192822929177847e-19,-1.9418818540650893e-92,-0.50094609652499,0,70,255.0,255.0,255.0
4,0.2,13.5,9.709409270325447e-95,-0.006375269517375051,1.0934210184130268e-20,-1.7800583662263321e-93,-0.08213339218145743,5.964114645889234e-20,-9.709409270325445e-93,-0.49607304826249493,0,70,255.0,255.0,255.0
5,0.25,13.5,0.0,-0.0111,1.2425238845602578e-20,-2.0227935979844687e-93,-0.1068152183880198,0.0,0.0,-0.49119999999999986,0,70,255.0,255.0,255.0
6,0.30000000000000004,13.5,-9.709409270325458e-95,-0.017052730482624956,1.0934210184130266e-20,-1.7800583662263321e-93,-0.13125339218145746,-5.964114645889242e-20,9.709409270325457e-93,-0.48632695173750495,0,70,255.0,255.0,255.0
7,0.35000000000000003,13.5,-1.699146622306954e-94,-0.02422127834459367,6.461124199713337e-21,-1.0518526709519231e-93,-0.15544791356177032,-1.1928229291778477e-19,1.9418818540650904e-92,-0.4814539034750101,0,70,255.0,255.0,255.0
8,0.4,13.5,-1.9418818540650902e-94,-0.032593460965249905,-9.940191076482095e-22,1.6182348783875813e-94,-0.17939878252895844,-1.7892343937667714e-19,2.9128227810976352e-92,-0.4765808552125152,0,70,255.0,255.0,255.0
9,0.45,13.5,-1.456411390548817e-94,-0.04215709572393743,-1.1431219737954374e-20,1.8609701101457118e-93,-0.20310599908302182,-2.385645858355695e-19,3.88376370813018e-92,-0.47170780695002035,0,70,255.0,255.0,255.0
10,0.5,13.5,0.0,-0.0529,-2.4850477691205155e-20,4.045587195968937e-93,-0.22656956322396044,-2.982057322944619e-19,4.854704635162725e-92,-0.4668347586875261,0,70,255.0,255.0,255.0
11,0.55,13.5,2.4273523175813644e-94,-0.06480937379343764,-3.2305620998566704e-20,5.259263354759619e-93,-0.24975243219114862,2.407412430484045e-34,-4.0876414464078247e-107,-0.46048000000000017,0,70,255.0,255.0,255.0
12,0.6000000000000001,13.5,4.854704635162729e-94,-0.07786994758687528,-2.4850477691205137e-20,4.045587195968934e-93,-0.27261756322396047,2.9820573229446237e-19,-4.8547046351627334e-92,-0.4541252413124742,0,70,255.0,255.0,255.0
13,0.65,13.5,6.068380793953406e-94,-0.09206583448359407,-2.485047769120516e-21,4.045587195968921e-94,-0.29516495632239603,5.964114645889239e-19,-9.709409270325452e-92,-0.44777048262494834,0,70,255.0,255.0,255.0
14,0.7000000000000001,13.5,4.85470463516272e-94,-0.10738114758687527,3.47906687676873e-20,-5.663822074356524e-93,-0.3173946114864553,8.94617196883386e-19,-1.4564113905488182e-91,-0.4414157239374224,0,70,255.0,255.0,255.0
15,0.75,13.5,0.0,-0.1238,8.697667191921804e-20,-1.415955518589128e-92,-0.3393065287161383,1.1928229291778474e-18,-1.9418818540650904e-91,-0.4350609652498987,0,70,255.0,255.0,255.0
16,0.8,13.5,-8.738468343292914e-94,-0.14130657434362454,1.1828827381013654e-19,-1.9256995052812143e-92,-0.3609048790539482,5.964114645889114e-20,-9.709409270325329e-93,-0.42887304826249545,0,70,255.0,255.0,255.0
17,0.8500000000000001,13.5,-1.771967191834396e-93,-0.15988533130790536,9.294078656510717e-20,-1.5130496112923816e-92,-0.3821938335423879,-1.073540636260065e-18,1.7476936686585838e-91,-0.42268513127509216,0,70,255.0,255.0,255.0
18,0.9,13.5,-2.2331641321748542e-93,-0.17952080110037383,1.0934210184130199e-20,-1.7800583662263321e-93,-0.40317339218145737,-2.2067224189790186e-18,3.592481430020417e-91,-0.41649721428768893,0,70,255.0,255.0,255.0
19,0.9500000000000001,13.5,-1.796240715010206e-93,-0.20019751392856158,-1.2773145533279473e-19,2.0794318187280378e-92,-0.4238435549711568,-3.3399042016979744e-18,5.437269191382254e-91,-0.4103092973002857,0,70,255.0,255.0,255.0
20,1.0,13.5,0.0,-0.2219,-3.23056209985667e-19,5.259263354759619e-92,-0.444204321911486,-4.473085984416929e-18,7.282056952744087e-91,-0.4041213803128829,0,70,255.0,255.0,255.0
21,1.05,13.5,3.2526521055590287e-93,-0.24461232883206424,-4.408474742419795e-19,7.176871685648895e-92,-0.4642280515930586,-2.385645858355661e-19,3.88376370813011e-92,-0.3968278069500207,0,70,255.0,255.0,255.0
22,1.1,13.5,6.60239830382131e-93,-0.2683167271815035,-3.469126685692237e-19,5.647639725572632e-92,-0.48388710260648815,3.995956812745797e-18,-6.505304211118065e-91,-0.3895342335871585,0,70,255.0,255.0,255.0
23,1.1500000000000001,13.5,8.325818449304074e-93,-0.2929949611149107,-4.12517929673994e-20,6.715674745308246e-93,-0.5031814749517745,8.23047821132716e-18,-1.3398984793049141e-90,-0.38224066022429626,0,70,255.0,255.0,255.0
24,1.2000000000000002,13.5,6.6994923965245465e-93,-0.3186287966988786,4.761351525634931e-19,-7.751345067476518e-92,-0.5221111686289177,1.2464999609908522e-17,-2.0292665374980216e-90,-0.3749470868614341,0,70,255.0,255.0,255.0
25,1.25,13.5,0.0,-0.3452,1.20524816802345e-18,-1.9621097900449347e-91,-0.5406761836379178,1.6699521008489863e-17,-2.7186345956911264e-90,-0.36765351349857145,0,70,255.0,255.0,255.0
26,1.3,13.5,-1.2136761587906825e-92,-0.37269131032811864,1.6451016231577814e-18,-2.678178723731436e-91,-0.5589349145738176,8.946171968833724e-19,-1.4564113905487964e-91,-0.3626957239374226,0,70,255.0,255.0,255.0
27,1.35,13.5,-2.463762602345085e-92,-0.4010893599660808,1.2947098877117876e-18,-2.1077509290998142e-91,-0.5769457560316601,-1.4910286614723118e-17,2.427352317581367e-90,-0.35773793437627377,0,70,255.0,255.0,255.0
28,1.4000000000000001,13.5,-3.1070109665041444e-92,-0.4303817544399838,1.5407296168546793e-19,-2.5082640615006712e-92,-0.594708708011445,-3.071519042632961e-17,5.000345774217614e-90,-0.35278014481512493,0,70,255.0,255.0,255.0
29,1.4500000000000002,13.5,-2.5001728871087988e-92,-0.4605560992759245,-1.776809154921176e-18,2.8925948451178046e-91,-0.6122237705131727,-4.65200942379361e-17,7.573339230853861e-90,-0.3478223552539761,0,70,255.0,255.0,255.0
30,1.5,13.5,0.0,-0.4916,-4.497936462108133e-18,7.322512824703777e-91,-0.6294909435368427,-6.232499804954255e-17,1.0146332687490097e-89,-0.3428645656928291,0,70,255.0,255.0,255.0
31,1.55,13.5,4.5294394246068276e-92,-0.5235000298554613,-6.139559018389147e-18,9.995027726360856e-91,-0.6464482901116705,-3.3399042016979344e-18,5.437269191382178e-91,-0.3354292973002872,0,70,255.0,255.0,255.0
32,1.6,13.5,9.194810578998207e-92,-0.5562386329541733,-4.8319268822779285e-18,7.866239743841994e-91,-0.6630338732668715,5.564518964614668e-17,-9.058878849213661e-90,-0.3279940289077453,0,70,255.0,255.0,255.0
33,1.6500000000000001,13.5,1.1595462021086172e-91,-0.5897972211251546,-5.750400537744733e-19,9.361488771471857e-92,-0.6792476930024451,1.146302834939913e-16,-1.866148461756554e-89,-0.32055876051520343,0,70,255.0,255.0,255.0
34,1.7000000000000002,13.5,9.330742308782737e-92,-0.6241572061974241,6.631101467121211e-18,-1.0795244873723565e-90,-0.6950897493183917,1.7361537734183592e-16,-2.826409038591742e-89,-0.31312349212266155,0,70,255.0,255.0,255.0
35,1.75,13.5,0.0,-0.6593,1.6786497680409084e-17,-2.7327941508770174e-90,-0.7105600422147113,2.3260047118968023e-16,-3.786669615426925e-89,-0.3056882237301197,0,70,255.0,255.0,255.0
36,1.8,13.5,-1.6904081539636626e-91,-0.6952077702500362,2.2913134450398803e-17,-3.730193218171199e-90,-0.7257039249795001,1.2464999609908279e-17,-2.0292665374979845e-90,-0.300067086861433,0,70,255.0,255.0,255.0
37,1.85,13.5,-3.431547971364775e-91,-0.7318657082172262,1.8032997641399912e-17,-2.935720804626817e-90,-0.7405667509008546,-2.0767047196986367e-16,3.380816307927328e-89,-0.2944459499927463,0,70,255.0,255.0,255.0
38,1.9000000000000001,13.5,-4.327483711784053e-91,-0.769259761059398,2.14608725341242e-18,-3.4937691024386857e-91,-0.7551485199787747,-4.2780594354963563e-16,6.964559269604455e-89,-0.2888248131240596,0,70,255.0,255.0,255.0
39,1.9500000000000002,13.5,-3.482279634802214e-91,-0.8073758759343798,-2.4747596713563692e-17,4.028838464977643e-90,-0.7694492322132606,-6.479414151294076e-16,1.0548302231281581e-88,-0.2832036762553729,0,70,255.0,255.0,255.0
40,2.0,13.5,0.0,-0.8462,-6.26480542595282e-17,1.0198925321037691e-89,-0.783468887604312,-8.680768867091787e-16,1.4132045192958695e-88,-0.2775825393866844,0,70,255.0,255.0,255.0
41,2.0500000000000003,13.5,6.308688673393998e-91,-0.8857176891443937,-8.551297878320609e-17,1.3921270100048713e-89,-0.7971840099703286,-4.6520094237931767e-17,7.573339230853155e-90,-0.2710223552539771,0,70,255.0,255.0,255.0
42,2.1,13.5,1.2806710827559277e-90,-0.9259129341769222,-6.730006368332173e-17,1.0956259244123068e-89,-0.8105711231297098,7.750366982333079e-16,-1.2617377346787947e-88,-0.26446217112126985,0,70,255.0,255.0,255.0
43,2.15,13.5,1.6150388645027595e-90,-0.9667693346372539,-8.009308959875563e-18,1.3038927532608137e-90,-0.8236302270824555,1.5965934907045478e-15,-2.5992088616661204e-88,-0.25790198698856254,0,70,255.0,255.0,255.0
44,2.2,13.5,1.2996044308330584e-90,-1.0082704900650574,9.23592853871335e-17,-1.5035829372538223e-89,-0.836361321828566,2.4181502831757947e-15,-3.936679988653459e-88,-0.2513418028558552,0,70,255.0,255.0,255.0
45,2.25,13.5,0.0,-1.0504,2.3380571935770376e-16,-3.806290713327375e-89,-0.8487644073680409,3.2397070756470336e-15,-5.274151115640783e-88,-0.24478161872315063,0,70,255.0,255.0,255.0
46,2.3000000000000003,13.5,-2.354434653961232e-90,-1.0931414731723892,3.191387806824255e-16,-5.195488718202365e-89,-0.8608400351391863,1.7361537734181908e-16,-2.8264090385914622e-89,-0.2382434921226643,0,70,255.0,255.0,255.0
47,2.35,13.5,-4.779529533887234e-90,-1.1364785550750849,2.51167257091887e-16,-4.088931617186545e-89,-0.8725887565803074,-2.8924763209633687e-15,4.7088693079224464e-88,-0.23170536552217802,0,70,255.0,255.0,255.0
48,2.4000000000000004,13.5,-6.027407086832635e-90,-1.1803949003915863,2.9891148586087e-17,-4.866194102798912e-90,-0.8840105716914042,-5.958568019268584e-15,9.700379519704084e-88,-0.22516723892169171,0,70,255.0,255.0,255.0
49,2.45,13.5,-4.850189759852014e-90,-1.224874163805392,-3.4468954483497056e-16,5.611447902517525e-89,-0.8951054804724766,-9.024659717573771e-15,1.4691889731485676e-87,-0.21862911232120544,0,70,255.0,255.0,255.0
50,2.5,13.5,0.0,-1.2699,-8.725748231712867e-16,1.420527032120573e-88,-0.9058734829235247,-1.2090751415878957e-14,1.9683399943267264e-87,-0.2120909857207227,0,70,255.0,255.0,255.0
51,2.5500000000000003,13.5,8.786869748505528e-90,-1.3154564181660502,-1.191042143946496e-15,1.938982786280459e-88,-0.916335849472927,-6.479414151293461e-16,1.0548302231280544e-88,-0.2064036762553687,0,70,255.0,255.0,255.0
52,2.6,13.5,1.7837447052793008e-89,-1.3615288455227381,-9.373689646842263e-16,1.5260100544333866e-88,-0.9265138505490615,1.0794868585620163e-14,-1.757373949701099e-87,-0.20071636679001478,0,70,255.0,255.0,255.0
53,2.6500000000000004,13.5,2.2494589482827775e-89,-1.408103063796402,-1.115552853844733e-16,1.816088365793501e-89,-0.9364074861519285,2.2237678586369774e-14,-3.62023092171502e-87,-0.19502905732466078,0,70,255.0,255.0,255.0
54,2.7,13.5,1.8101154608574995e-89,-1.4551648547133769,1.2863988939527485e-15,-2.0942208672816291e-88,-0.9460167562815277,3.3680488587119285e-14,-5.483087893728925e-87,-0.18934174785930685,0,70,255.0,255.0,255.0
55,2.75,13.5,0.0,-1.5027,3.2564935733274432e-15,-5.301479057149555e-88,-0.9553416609378591,4.5123298587868796e-14,-7.345944865742829e-87,-0.1836544383939529,0,70,255.0,255.0,255.0
56,2.8000000000000003,13.5,-3.2793044340060885e-89,-1.5506936541634115,4.445029795103559e-15,-7.236382273301599e-88,-0.9643445669691044,2.418150283175565e-15,-3.936679988653083e-88,-0.1764618028558569,0,70,255.0,255.0,255.0
57,2.85,13.5,-6.657025867728478e-89,-1.5991284628339621,3.498308601645019e-15,-5.695147056014894e-88,-0.9729878412234448,-4.028699802151729e-14,6.55860886801215e-87,-0.16926916731776095,0,70,255.0,255.0,255.0
58,2.9000000000000004,13.5,-8.39509508444785e-89,-1.6479864444228076,4.163299929518065e-16,-6.777734052894113e-89,-0.9812714837008806,-8.299214632621051e-14,1.3510885734889671e-86,-0.16207653177966494,0,70,255.0,255.0,255.0
59,2.95,13.5,-6.755442867444799e-89,-1.6972496173411018,-4.800906030976021e-15,7.815738678874759e-88,-0.9891954944014113,-1.2569729463090337e-13,2.046316260176713e-86,-0.154883896241569,0,70,255.0,255.0,255.0
60,3.0,13.5,0.0,-1.7469,-1.2153399470138487e-14,1.9785389196477647e-87,-0.9967598733250373,-1.6840244293559627e-13,2.741543946864459e-86,-0.14769126070347305,0,70,255.0,255.0,255.0
61,3.0500000000000003,13.5,1.22385307611738e-88,-1.7969201651803055,-1.658907703646774e-14,2.700654630692594e-87,-1.0039978826506544,-9.024659717572917e-15,1.4691889731484285e-87,-0.14182911232121104,0,70,255.0,255.0,255.0
62,3.1,13.499999999999998,2.4844358765634622e-88,-1.8472949031414136,-1.305586544189585e-14,2.1254578169626187e-87,-1.0109427845571584,1.5035312350044903e-13,-2.4477061522347505e-86,-0.13596696393894908,0,70,255.0,255.0,255.0
63,3.1500000000000004,13.499999999999998,3.133092138950862e-88,-1.8980095585123695,-1.553764686422755e-15,2.5294847845782986e-88,-1.0175945790445493,3.097309067184724e-13,-5.042331201784367e-86,-0.13010481555668707,0,70,255.0,255.0,255.0
64,3.2,13.499999999999998,2.52116560089217e-88,-1.9490494759222168,1.791722522995134e-14,-2.9168733848217404e-87,-1.0239532661128272,4.691086899364943e-13,-7.63695625133396e-86,-0.12424266717442511,0,70,255.0,255.0,255.0
65,3.25,13.5,0.0,-2.0004,4.5357104307226505e-14,-7.384007772876103e-87,-1.0300188457619919,6.284864731545163e-13,-1.0231581300883555e-85,-0.1183805187921596,0,70,255.0,255.0,255.0
66,3.3000000000000003,13.500000000000002,-4.567481861068912e-88,-2.052046485115368,6.19112783507674e-14,-1.0078980295440218e-86,-1.0357919024282785,3.3680488587116155e-14,-5.483087893728417e-87,-0.11254174785930109,0,70,255.0,255.0,255.0
67,3.35,13.500000000000007,-9.272040919481001e-88,-2.103974324600384,4.8725153165938387e-14,-7.932316562248989e-87,-1.0412730205479221,-5.611254959802787e-13,9.134963722137786e-86,-0.10670297692644261,0,70,255.0,255.0,255.0
68,3.4000000000000004,13.500000000000007,-1.1692859047358666e-87,-2.1561689215277164,5.798728752739217e-15,-9.440165733023794e-88,-1.0464622001209227,-1.1559314805476788e-12,1.88182362336485e-85,-0.10086420599358409,0,70,255.0,255.0,255.0
69,3.45,13.500000000000005,-9.409118116824198e-88,-2.208615678970032,-6.686799488882936e-14,1.0885919671399486e-86,-1.0513594411472804,-1.7507374651150738e-12,2.8501508745159126e-85,-0.09502543506072561,0,70,255.0,255.0,255.0
70,3.5,13.5,0.0,-2.2613,-1.6927501775876753e-13,2.755749217185665e-86,-1.055964743626995,-2.345543449682469e-12,3.818478125666976e-85,-0.08918666412786536,0,70,255.0,255.0,255.0
71,3.5500000000000003,13.49999999999999,1.7046074368158267e-87,-2.314206694358224,-2.3105603636660187e-13,3.761526655106827e-86,-1.060242507636231,-1.2569729463089163e-13,2.046316260176523e-86,-0.08192389624156955,0,70,255.0,255.0,255.0
72,3.6,13.499999999999977,3.4603727801360536e-87,-2.3673181984570513,-1.818447472218577e-13,2.960380843203333e-86,-1.064157133251152,2.0941488604206655e-12,-3.4092148736316393e-85,-0.07466112835527382,0,70,255.0,255.0,255.0
73,3.6500000000000004,13.499999999999973,4.363834405048378e-87,-2.420616355376767,-2.164115032453415e-14,3.5231178147516842e-87,-1.0677086204717583,4.313995015472243e-12,-7.023061373280962e-85,-0.06739836046897801,0,70,255.0,255.0,255.0
74,3.7,13.499999999999979,3.511530686640463e-87,-2.4740830081976553,2.49554754325366e-13,-4.0626805300776204e-86,-1.0708969692980497,6.5338411705238e-12,-1.0636907872930255e-84,-0.06013559258268228,0,70,255.0,255.0,255.0
75,3.75,13.5,0.0,-2.5277,6.317429667278437e-13,-1.0284596091455049e-85,-1.0737221797300267,8.753687325575356e-12,-1.4250754372579547e-84,-0.052872824696391874,0,70,255.0,255.0,255.0
76,3.8000000000000003,13.500000000000039,-6.361681561156416e-87,-2.5814499374517377,8.623128671156401e-13,-1.4038208590883285e-85,-1.0762300670267972,4.691086899364482e-13,-7.636956251333225e-86,-0.047442667174429305,0,70,255.0,255.0,255.0
77,3.85,13.50000000000008,-1.2914287028596116e-86,-2.6353184815714115,6.786538357214921e-13,-1.1048291716588434e-85,-1.0784664464474698,-7.815469945702386e-12,1.2723363122312778e-84,-0.04201250965246678,0,70,255.0,255.0,255.0
78,3.9000000000000004,13.5000000000001,-1.628605171545765e-86,-2.6892920569652166,8.076587254539718e-14,-1.3148454685704325e-86,-1.0804313179920437,-1.6100048581341294e-11,2.6210421869759005e-84,-0.03658235213050421,0,70,255.0,255.0,255.0
79,3.95,13.500000000000082,-1.3105210934879428e-86,-2.7433570882393474,-9.313510224126346e-13,1.516213015317053e-85,-1.0821246816605201,-2.4384627216980127e-11,3.9697480617205103e-84,-0.031152194608541687,0,70,255.0,255.0,255.0
80,4.0,13.5,0.0,-2.7975,-2.357696849152607e-12,3.838263514863453e-85,-1.083546537452898,-3.266920585261895e-11,5.31845393646512e-84,-0.02572203708657561,0,70,255.0,255.0,255.0
81,4.05,13.499999999999854,2.37421188078096e-86,-2.8517063558348252,-3.2181954320959567e-12,5.23913077084263e-85,-1.0846452242565805,-1.7507374651151727e-12,2.850150874516084e-85,-0.018225435060721322,0,70,255.0,255.0,255.0
82,4.1000000000000005,13.499999999999703,4.8196775334248575e-86,-2.9059582752573037,-2.532770595664098e-12,4.123278602315018e-85,-1.0853690809589702,2.916773092238915e-11,-4.748423761561993e-84,-0.010728833034866901,0,70,255.0,255.0,255.0
83,4.15,13.499999999999627,6.078037245678221e-86,-2.9602370167623686,-3.0142233985705426e-13,4.9070700928065646e-86,-1.0857181075600673,6.008619930989292e-11,-9.781862610575504e-84,-0.003232231009012612,0,70,255.0,255.0,255.0
84,4.2,13.4999999999997,4.8909313052877254e-86,-3.0145238388449553,3.4758493353251733e-12,-5.658584008260448e-85,-1.0856923040598714,9.10046676973967e-11,-1.4815301459589013e-83,0.004264371016841677,0,70,255.0,255.0,255.0
85,4.25,13.5,0.0,-3.0688,8.799044429882584e-12,-1.4324594450308307e-84,-1.085291670458383,1.2192313608490045e-10,-1.9848740308602525e-83,0.011760973042699518,0,70,255.0,255.0,255.0
86,4.3,13.500000000000545,-8.860679367008205e-86,-3.1230478392089593,1.201046886126819e-11,-1.9552702224282188e-84,-1.0845810359468826,6.533841170524191e-12,-1.0636907872930865e-84,0.016664407417315258,0,70,255.0,255.0,255.0
87,4.3500000000000005,13.500000000001103,-1.7987281430839822e-85,-3.177254017399376,9.452428546934905e-12,-1.5388285237601233e-84,-1.0836252297166513,-1.0885545374385411e-10,1.772135873401669e-83,0.02156784179193108,0,70,255.0,255.0,255.0
88,4.4,13.500000000001393,-2.2683543811167117e-85,-3.231406275985313,1.1249234868828223e-12,-1.8313434902655797e-85,-1.0824242517676896,-2.242447486582304e-10,3.650640825532612e-83,0.02647127616654682,0,70,255.0,255.0,255.0
89,4.45,13.500000000001123,-1.825320412766295e-85,-3.285492356380833,-1.2972046318888052e-11,2.1118123017724765e-84,-1.080978102099997,-3.396340435726066e-10,5.5291457776635565e-83,0.03137471054116256,0,70,255.0,255.0,255.0
90,4.5,13.5,0.0,-3.3395,-3.2838480870377724e-11,5.3460114286369775e-84,-1.079286780713573,-4.5502333848698283e-10,7.407650729794496e-83,0.036278144915780075,0,70,255.0,255.0,255.0
91,4.55,13.49999999999797,3.306850558725186e-85,-3.3934158873293354,-4.482368001297679e-11,7.297167812628613e-84,-1.077286631955892,-2.438462721698156e-11,3.9697480617207376e-84,0.04372780539146317,0,70,255.0,255.0,255.0
92,4.6000000000000005,13.499999999995875,6.71294481899344e-85,-3.4472224551451935,-3.527694359207551e-11,5.742986234808992e-84,-1.0749140001744268,4.0625408405302737e-10,-6.613701117450475e-83,0.05117746586714639,0,70,255.0,255.0,255.0
93,4.65,13.499999999994799,8.465613799899024e-85,-3.500901079296382,-4.198271607674226e-12,6.83466695178169e-85,-1.0721688853691773,8.368927953230286e-10,-1.3624377041072896e-82,0.05862712634282948,0,70,255.0,255.0,255.0
94,4.7,13.499999999995817,6.812188520536405e-85,-3.5544331356317143,4.841233594022707e-11,-7.881390806263855e-84,-1.069051287540144,1.26753150659303e-09,-2.0635052964695317e-82,0.06607678681851258,0,70,255.0,255.0,255.0
95,4.75,13.5,0.0,-3.6078,1.225548790516283e-10,-1.9951586269517077e-83,-1.0655612066873263,1.6981702178630309e-09,-2.7645728888317735e-82,0.07352644729419744,0,70,255.0,255.0,255.0
96,4.800000000000001,13.500000000007581,-1.2341334298200163e-84,-3.660983811473698,1.6728425119063907e-10,-2.7233401028086246e-83,-1.0617444362295503,9.100466769737373e-11,-1.481530145958523e-83,0.07914437101684911,0,70,255.0,255.0,255.0
97,4.8500000000000005,13.500000000015389,-2.505305113288978e-84,-3.7139697620198535,1.3165534582136714e-10,-2.1433116415475843e-83,-1.0576467695856413,-1.5161608824682549e-09,2.468266859640022e-82,0.0847622947395007,0,70,255.0,255.0,255.0
98,4.9,13.500000000019408,-3.159410081847939e-84,-3.7667438068291594,1.5668162943814082e-11,-2.550732431686109e-84,-1.0532682067556,-3.123326432633884e-09,5.084686733875897e-82,0.09038021846215227,0,70,255.0,255.0,255.0
99,4.95,13.500000000015616,-2.5423433669379345e-84,-3.8192919010923108,-1.8067729744202012e-10,2.941375092328294e-83,-1.0486087477394261,-4.7304919827995125e-09,7.701106608111772e-82,0.09599814218480385,0,70,255.0,255.0,255.0
100,5.0,13.5,0.0,-3.8716,-4.573810353361355e-10,7.446033364943132e-83,-1.0436683925371197,-6.337657532965141e-09,1.0317526482347645e-81,0.10161606590745897,0,70,255.0,255.0,255.0
101,5.050000000000001,13.499999999971708,4.60584866340754e-84,-3.9236536667758752,-6.243133247495794e-10,1.0163643629971634e-82,-1.038423623125904,-3.396340435725205e-10,5.529145777662154e-83,0.10817471054116555,0,70,255.0,255.0,255.0
102,5.1000000000000005,13.499999999942567,9.349925971256567e-84,-3.9754368967753964,-4.91344439693393e-10,7.998947942709438e-83,-1.032850921483003,5.658389445819993e-09,-9.211697326815041e-82,0.114733355174872,0,70,255.0,255.0,255.0
103,5.15,13.499999999927573,1.179107894740185e-83,-4.02693329338698,-5.847438016758201e-11,9.51946303156628e-84,-1.026950287608417,1.1656412935212506e-08,-1.8976309231396297e-81,0.12129199980857845,0,70,255.0,255.0,255.0
104,5.2,13.499999999941716,9.488154615698094e-84,-4.078126459999043,6.742968538278534e-10,-1.097736128868679e-82,-1.0207217215021454,1.765443642460502e-08,-2.8740921135977553e-81,0.12785064444228492,0,70,255.0,255.0,255.0
105,5.25,13.5,0.0,-4.129,1.7069692622929136e-09,-2.778897483282082e-82,-1.0141652231641882,2.365245991399754e-08,-3.8505533040558805e-81,0.1344092890759967,0,70,255.0,255.0,255.0
106,5.300000000000001,13.500000000105587,-1.7189261223810146e-83,-4.179537521422805,2.3299690478076786e-09,-3.7931234417077914e-82,-1.0072810712668259,1.267531506592712e-09,-2.0635052964690056e-82,0.1409567868184916,0,70,255.0,255.0,255.0
107,5.3500000000000005,13.500000000214344,-3.4894398771737295e-83,-4.229722650878564,1.833722412952205e-09,-2.9852480129290163e-82,-1.0000695444823389,-2.1117396900811718e-08,3.437852244762015e-81,0.14750428456098638,0,70,255.0,255.0,255.0
108,5.4,13.500000000270305,-4.400490570775946e-83,-4.279539019622921,2.182293577265148e-10,-3.552711969457891e-83,-0.9925306428107273,-4.3502325308216154e-08,7.082055019170929e-81,0.15405178230348118,0,70,255.0,255.0,255.0
109,5.45,13.500000000217511,-3.5410275095854445e-83,-4.328970258911518,-2.516510117869394e-09,4.096807006241887e-82,-0.9846643662519909,-6.588725371562058e-08,1.0726257793579844e-80,0.16059928004597596,0,70,255.0,255.0,255.0
110,5.5,13.5,0.0,-4.378,-6.370496013835519e-09,1.0370986596634014e-81,-0.9764707148061298,-8.827218212302501e-08,1.437046056798876e-80,0.16714677778847076,0,70,255.0,255.0,255.0
111,5.550000000000001,13.499999999605944,6.415119623183303e-83,-4.426612247532907,-8.695562866481135e-09,1.4156129403834004e-81,-0.9679720918067976,-4.730491982798324e-09,7.701106608109844e-82,0.17279814218481285,0,70,255.0,255.0,255.0
112,5.6000000000000005,13.499999999200062,1.3022766911569261e-82,-4.47479249971035,-6.843545212115429e-09,1.1141097257445121e-81,-0.9591909005876484,7.881119815742688e-08,-1.283023924636655e-80,0.17844950658115485,0,70,255.0,255.0,255.0
113,5.65,13.499999998991207,1.6422854388363602e-82,-4.522526628121341,-8.144430507384734e-10,1.325890157467498e-82,-0.9501271411486822,1.6235288829765208e-07,-2.6430589153544084e-80,0.18410087097749686,0,70,255.0,255.0,255.0
114,5.7,13.499999999188237,1.3215294576771964e-82,-4.5698005043548875,9.391743617649725e-09,-1.528949189609887e-81,-0.9407808134898987,2.4589457843787725e-07,-4.003093906072162e-80,0.18975223537383884,0,70,255.0,255.0,255.0
115,5.75,13.5,0.0,-4.6166,2.3775014793049162e-08,-3.8705048903253975e-81,-0.9311519176112983,3.2943626857810235e-07,-5.363128896789915e-80,0.1954035997701773,0,70,255.0,255.0,255.0
116,5.800000000000001,13.500000001470637,-2.3941552370352198e-82,-4.662910288445573,3.245228241811686e-08,-5.283139417362822e-81,-0.9211985615059862,1.7654436424600517e-08,-2.874092113597034e-81,0.20273064444229985,0,70,255.0,255.0,255.0
117,5.8500000000000005,13.50000000298541,-4.8601627769103317e-82,-4.708713750280039,2.5540458435509503e-08,-4.1579141016851476e-81,-0.9108788531670682,-2.941273957288958e-07,4.788310474070418e-80,0.21005768911442224,0,70,255.0,255.0,255.0
118,5.9,13.500000003764864,-6.129092698267846e-82,-4.753992067891719,3.0395428452273897e-09,-4.9482894329242173e-82,-0.9001927925945441,-6.059092278823921e-07,9.864030159500538e-80,0.21738473378654466,0,70,255.0,255.0,255.0
119,5.95,13.500000003029548,-4.932015079750242e-82,-4.798726923668933,-3.505046435272948e-08,5.706116057815357e-81,-0.8891403797884139,-9.176910600358885e-07,1.493974984493066e-79,0.22471177845866708,0,70,255.0,255.0,255.0
120,6.0,13.5,0.0,-4.8429,-8.872956315836113e-08,1.4444920901638187e-80,-0.8777216147486774,-1.2294728921893843e-06,2.0015469530360778e-79,0.2320388231307957,0,70,255.0,255.0,255.0
121,6.050000000000001,13.499999994511509,8.935108985822548e-82,-4.886493798684806,-1.2111356680598628e-07,1.9716944729067884e-80,-0.8659856621692581,-6.588725371560383e-08,1.0726257793577127e-80,0.23739928004597022,0,70,255.0,255.0,255.0
122,6.1000000000000005,13.499999988858297,1.813837441648439e-81,-4.9294940991694975,-9.531828852992257e-08,1.551754668099607e-80,-0.8539816867440803,1.0976983847581558e-06,-1.7870217971645017e-79,0.24275973696114464,0,70,255.0,255.0,255.0
123,6.15,13.499999985949332,2.2874085354235015e-81,-4.971887500311785,-1.1343728330171079e-08,1.8467267574229273e-81,-0.8417096884731436,2.261284023231916e-06,-3.6813061722647743e-79,0.24812019387631906,0,70,255.0,255.0,255.0
124,6.2,13.49999998869358,1.8406530861323763e-81,-5.013660600969382,1.308101137932682e-07,-2.129551504165154e-80,-0.8291696673564485,3.424869661705676e-06,-5.575590547365047e-79,0.2534806507914935,0,70,255.0,255.0,255.0
125,6.25,13.5,0.0,-5.0548,3.311432378403953e-07,-5.390917871622735e-80,-0.8163616233939944,4.588455300179436e-06,-7.469874922465321e-79,0.25884110770667323,0,70,255.0,255.0,255.0
126,6.300000000000001,13.50000002048333,-3.334628070625497e-81,-5.095291316815206,4.5200198480582826e-07,-7.358463949890872e-80,-0.8032267898169811,2.458945784378153e-07,-4.003093906071152e-80,0.266552235373847,0,70,255.0,255.0,255.0
127,6.3500000000000005,13.500000041581396,-6.769333488902725e-81,-5.135116253041977,3.5573269568418086e-07,-5.791227262229917e-80,-0.7897063998566096,-4.096666143303729e-06,6.669256141250966e-79,0.2742633630410206,0,70,255.0,255.0,255.0
128,6.4,13.5000000524378,-8.536724871867225e-81,-5.174255530861144,4.233537047545715e-08,-6.892078086399295e-81,-0.7758004535128793,-8.439226865045272e-06,1.3738821673109047e-78,0.28197449070819425,0,70,255.0,255.0,255.0
129,6.45,13.500000042196135,-6.869410836554484e-81,-5.212689872453541,-4.881899908203435e-07,7.947594410879081e-80,-0.7615089507857903,-1.2781787586786816e-05,2.0808387204967125e-78,0.2896856183753679,0,70,255.0,255.0,255.0
130,6.5,13.5,0.0,-5.2504,-1.23584338820322e-06,2.011917939632712e-79,-0.7468318916753425,-1.7124348308528355e-05,2.7877952736825196e-78,0.29739674604254596,0,70,255.0,255.0,255.0
131,6.550000000000001,13.499999923555169,1.2445001383919732e-80,-5.287368934054374,-1.6868943724173268e-06,2.746216132665669e-79,-0.731907178562812,-9.176910600356574e-07,1.493974984492688e-79,0.2995917784586663,0,70,255.0,255.0,255.0
132,6.6000000000000005,13.499999844816111,2.526349651396245e-80,-5.323588888662601,-1.3276124942068008e-06,2.1613154380820053e-79,-0.7168727138294757,1.5288966188456756e-05,-2.489000276783936e-78,0.3017868108747866,0,70,255.0,255.0,255.0
133,6.65,13.499999804299467,3.1859490952045383e-80,-5.359054376243642,-1.5799775357165683e-07,2.572158558817423e-80,-0.7017284974753334,3.149562343694917e-05,-5.127398052017139e-78,0.3039818432909069,0,70,255.0,255.0,255.0
134,6.7,13.49999984252188,2.5636990260085535e-80,-5.393759909216454,1.8219498494881054e-06,-2.9660826139351164e-79,-0.6864745295003851,4.770228068544158e-05,-7.765795827250344e-78,0.30617687570702723,0,70,255.0,255.0,255.0
135,6.75,13.5,0.0,-5.4277,4.612230314972485e-06,-7.508579971368574e-79,-0.6711108099046307,6.3908937933934e-05,-1.0404193602483547e-77,0.3083719081231502,0,70,255.0,255.0,255.0
136,6.800000000000001,13.500000285295993,-4.644537746505343e-80,-5.4608609469672995,6.295575504863479e-06,-1.0249018135673589e-78,-0.6551444959317645,3.424869661704812e-06,-5.575590547363626e-79,0.3302806507914871,0,70,255.0,255.0,255.0
137,6.8500000000000005,13.50000057915416,-9.42846525669471e-80,-5.49319619230762,4.954717281143021e-06,-8.066139026105026e-79,-0.6380827448254818,-5.70591986105233e-05,9.289075493010645e-78,0.35218939345982364,0,70,255.0,255.0,255.0
138,6.9,13.50000073036433,-1.1890123893631433e-79,-5.524650964164291,5.896556438111685e-07,-9.59942642662975e-80,-0.6199255565857823,-0.00011754326688275142,1.9135710040757655e-77,0.3740981361281601,0,70,255.0,255.0,255.0
139,6.95,13.500000587716334,-9.567855020378772e-80,-5.55517049068064,-6.799609407132078e-06,1.1069571014652557e-78,-0.6006729312126659,-0.00017802733515497952,2.898234458850467e-77,0.39600687879649665,0,70,255.0,255.0,255.0
140,7.0,13.5,0.0,-5.5847,-1.721307787168672e-05,2.8022401945841584e-78,-0.5803248687061329,-0.0002385114034272076,3.8828979136251686e-77,0.4179156214648341,0,70,255.0,255.0,255.0
141,7.050000000000001,13.49999893526086,1.73336508476294e-79,-5.61318087807643,-2.3495407647036587e-05,3.8249856410028702e-78,-0.5586508377101274,-1.2781787586783617e-05,2.0808387204961916e-78,0.4490456183753747,0,70,255.0,255.0,255.0
142,7.1000000000000005,13.499997838567248,3.5187511375382604e-79,-5.64053914210692,-1.849125663036529e-05,3.0103240666338123e-78,-0.5354203068685952,0.00021294782825363636,-3.466730169525864e-77,0.48017561528591485,0,70,255.0,255.0,255.0
143,7.15,13.499997274243208,4.437454647932119e-79,-5.666696967099196,-2.200624821673031e-06,3.582554714770182e-79,-0.5106332761815361,0.0004386774440940564,-7.141544211101348e-77,0.511305612196455,0,70,255.0,255.0,255.0
144,7.2,13.49999780661278,3.570772105550655e-79,-5.691576528060982,2.537648777904019e-05,-4.1312201444675116e-78,-0.4842897456489499,0.0006644070599344763,-1.0816358252676833e-76,0.5424356091069951,0,70,255.0,255.0,255.0
145,7.25,13.5,0.0,-5.7151,6.424008117177439e-05,-1.0458102781199777e-77,-0.45638971527083666,0.0008901366757748964,-1.4491172294252318e-76,0.5735656060175365,0,70,255.0,255.0,255.0
146,7.300000000000001,13.500003973660572,-6.469006564401226e-79,-5.737215540726983,8.768605508328288e-05,-1.4275040750444121e-77,-0.42849215322772227,4.7702280685429596e-05,-7.765795827248398e-78,0.5423368757070237,0,70,255.0,255.0,255.0
147,7.3500000000000005,13.500008066576845,-1.313215802448357e-78,-5.757975239264698,6.901030924031813e-05,-1.1234682363924744e-77,-0.402156027700134,-0.0007947321144040222,1.2938013128802393e-76,0.5111081453965116,0,70,255.0,255.0,255.0
148,7.4,13.500010172662835,-1.6560806202365333e-78,-5.777457167438921,8.212843642880932e-06,-1.33702762164177e-78,-0.3773813386880713,-0.0016371665094934741,2.6652605840329627e-76,0.4798794150859994,0,70,255.0,255.0,255.0
149,7.45,13.500008185832547,-1.3326302920164745e-78,-5.79573939707543,-9.470634170902865e-05,1.541792347640479e-77,-0.35416808619153417,-0.002479600904582926,4.0367198551856864e-76,0.44865068477548725,0,70,255.0,255.0,255.0
150,7.5,13.5,0.0,-5.8129,-0.0002397472468154108,3.903017093021495e-77,-0.33251627021052266,-0.003322035299672378,5.4081791263384095e-76,0.4174219544649773,0,70,255.0,255.0,255.0
151,7.550000000000001,13.499984370096852,2.414266117284196e-78,-5.829010559015639,-0.0003752488126859844,5.327517736077361e-77,-0.3120365493789854,-0.0020980273351504874,2.898234458849731e-77,0.4017668787965002,0,70,255.0,255.0,255.0
152,7.6000000000000005,13.499963495125368,4.900988096039601e-78,-5.84411670083429,-0.0004495499803304617,4.192840538906516e-77,-0.2923395823308724,-0.0008740193706286183,-4.828532234568371e-76,0.3861118031280233,0,70,255.0,255.0,255.0
153,7.65,13.499940435105456,6.18057701615292e-78,-5.858257563145117,-0.00046265074974884585,4.989855015090069e-78,-0.27342536906618325,0.0003499885938932504,-9.946887915021718e-76,0.37045672745954644,0,70,255.0,255.0,255.0
154,7.7,13.49991825005703,4.973443957510831e-78,-5.8714722836372975,-0.00041455112094113675,-5.754047376115165e-77,-0.25529390958491793,0.00157399655841512,-1.5065243595475061e-75,0.3548016517910696,0,70,255.0,255.0,255.0
155,7.75,13.4999,0.0,-5.8838,-0.0003052510939073344,-1.4566258093966e-76,-0.23794520388707638,0.002798004522936989,-2.0183599275928405e-75,0.3391465761225929,0,70,255.0,255.0,255.0
156,7.800000000000001,13.499888145952015,-9.010163812696663e-78,-5.895281423210458,-0.00017069080433565782,-1.9882566869265032e-76,-0.22147364925633628,0.002584407059929998,-1.0816358252674094e-76,0.3197156091070024,0,70,255.0,255.0,255.0
157,7.8500000000000005,13.49988275292168,-1.8290736581710043e-77,-5.905963557398147,-4.681038791433307e-05,-1.5647893919233583e-76,-0.20597364297637594,0.0023708095969230104,1.8020327625393247e-75,0.3002846420914123,0,70,255.0,255.0,255.0
158,7.9,13.499883286915336,-2.3066227444375155e-77,-5.9158949799806075,6.639015535664237e-05,-1.862239243871843e-77,-0.19144518504719513,0.0021572121339160227,3.71222910760539e-75,0.2808536750758222,0,70,255.0,255.0,255.0
159,7.95,13.499889213939332,-1.856114553802685e-77,-5.92512426837538,0.00016891082547726844,2.147439715682019e-76,-0.17788827546879382,0.0019436146709090356,5.622425452671456e-75,0.26142270806023205,0,70,255.0,255.0,255.0
160,8.0,13.4999,0.0,-5.9337,0.0002607516224475452,5.436201528284251e-76,-0.16530291424117202,0.001730017207902048,7.532621797737522e-75,0.24199174104464238,0,70,255.0,255.0,255.0
161,8.05,13.499915046095087,3.3626389133502453e-77,-5.941670148142531,0.00033801203003030057,7.420274974098276e-76,-0.15365285359566871,0.0013603990954081224,4.036719855184675e-76,0.2240106847754833,0,70,255.0,255.0,255.0
162,8.1,13.499933493187909,6.826195823080006e-77,-5.949080269573125,0.00039679153198835757,5.839873513802844e-76,-0.14290184576362375,0.0009907809829142098,-6.725277826700333e-75,0.20602962850632486,0,70,255.0,255.0,255.0
163,8.15,13.499954417233191,8.608433276134766e-77,-5.955975316932452,0.00043709012832172055,6.949971473978391e-77,-0.13304989074503634,0.000621162870420284,-1.3854227638919385e-74,0.18804857223716578,0,70,255.0,255.0,255.0
164,8.200000000000001,13.499976894185647,6.927113819459586e-77,-5.962400242861186,0.00045890781903038685,-8.01435412511674e-76,-0.12409698853990689,0.0002515447579263582,-2.098317745113844e-74,0.1700675159680067,0,70,255.0,255.0,255.0
165,8.25,13.5,0.0,-5.9684,0.00046224460411435696,-2.0288180303740404e-75,-0.11604313914823568,-0.00011807335456755393,-2.8112127263357248e-74,0.15208645969884815,0,70,255.0,255.0,255.0
166,8.3,13.500022869667642,-1.2549539272131317e-76,-5.974020384219416,0.00045064268421065765,-2.76928432094666e-75,-0.10893893636098745,-0.0003460034415804129,-1.506524359547127e-75,0.13208165179107684,0,70,255.0,255.0,255.0
167,8.35,13.500044874326683,-2.5475709634149034e-76,-5.979310564309355,0.0004276442599563162,-2.1794704663288e-75,-0.10283497396912801,-0.0005739335285932638,2.5099078544262044e-74,0.11207684388330622,0,70,255.0,255.0,255.0
168,8.4,13.500065444151899,-3.212711036010156e-76,-5.984320552289586,0.000393249331351331,-2.593764665204176e-76,-0.0977312519726569,-0.0008018636156061228,5.170468144807217e-74,0.0920720359755349,0,70,255.0,255.0,255.0
169,8.450000000000001,13.500084009318078,-2.5852340724035672e-76,-5.989100360179878,0.0003474578983957028,2.99099767847849e-75,-0.09362777037157438,-0.0010297937026189819,7.83102843518823e-74,0.07206722806776357,0,70,255.0,255.0,255.0
170,8.5,13.5001,0.0,-5.9937,0.0002902699610894336,7.571651968667736e-75,-0.09052452916588054,-0.001257723789631834,1.0491588725569146e-73,0.05206242015999363,0,70,255.0,255.0,255.0
171,8.55,13.500113475234343,4.683551817517501e-76,-5.998168314979802,0.00025941723312147553,1.0335109786376812e-74,-0.0883514009603753,2.3614670913528653e-05,5.622425452670042e-75,0.03486270806021467,0,70,255.0,255.0,255.0
172,8.6,13.500127009505361,9.507664271351613e-76,-6.002549473189454,0.00029263142818078413,8.133894513934912e-75,-0.08703825835985905,0.0013049531314588457,-9.367103635034786e-74,0.017662995960436335,0,70,255.0,255.0,255.0
173,8.65,13.50014380615921,1.1990000816427148e-75,-6.006886473909204,0.00038991254626736193,9.680061513418884e-76,-0.0865851013643317,0.002586291592004209,-1.9296449815336924e-73,0.00046328386065738053,0,70,255.0,255.0,255.0
174,8.700000000000001,13.500167068542039,9.648224907668309e-76,-6.011222316419303,0.0005512605873812087,-1.1162555301402284e-74,-0.08699192997379332,0.0038676300525495714,-2.922579599563907e-73,-0.016736428239121567,0,70,255.0,255.0,255.0
175,8.75,13.5002,0.0,-6.0156,0.0007766755515223153,-2.8257789844296905e-74,-0.08825874418824382,0.005148968513094886,-3.915514217594086e-73,-0.03393614033889947,0,70,255.0,255.0,255.0
176,8.8,13.500244829394987,-1.7479253342856873e-75,-6.020063955861375,0.0010076883832984785,-3.857115482456059e-74,-0.09047145979751586,0.004091544757951508,-2.0983177451133045e-74,-0.054572484031981186,0,70,255.0,255.0,255.0
177,8.85,13.500299887651867,-3.5483086121991555e-75,-6.024664342932829,0.0011858300273174666,-3.035610758941087e-74,-0.0937159925914419,0.0030341210028081668,3.495850668571293e-73,-0.07520882772506218,0,70,255.0,255.0,255.0
178,8.9,13.500362531211255,-4.474729222969843e-75,-6.029452752073596,0.0013111004835792922,-3.6126481388471204e-75,-0.0979923425700221,0.0019766972476647883,7.201533111654049e-73,-0.09584517141814389,0,70,255.0,255.0,255.0
179,8.950000000000001,13.500430116513762,-3.6007665558269677e-75,-6.034480774142908,0.0013834997520839481,4.165922352713065e-74,-0.10330050973325641,0.0009192734925214099,1.0907215554736805e-72,-0.11648151511122562,0,70,255.0,255.0,255.0
180,9.0,13.5005,0.0,-6.0398,0.0014030278328314345,1.0545950740851988e-73,-0.10964049408114458,-0.0001381502626219295,1.461289799781943e-72,-0.1371178588043066,0,70,255.0,255.0,255.0
181,9.05,13.500570407185714,6.523346155390999e-75,-6.045459861574699,0.001421829233699448,1.4394950951186555e-73,-0.11688275984955837,0.0008902062973424583,7.831028435186239e-74,-0.15257277193224114,0,70,255.0,255.0,255.0
182,9.1,13.50064303988717,1.3242468021661459e-74,-6.051501155079229,0.0014920484625656782,1.1329053584370854e-73,-0.12489777127436862,0.0019185628573068097,-1.3046692310781694e-72,-0.16802768506017512,0,70,255.0,255.0,255.0
183,9.15,13.50072046899577,1.669991681023666e-74,-6.057962517796409,0.00161368551943013,1.348258640404664e-74,-0.13368552835557587,0.0029469194172711973,-2.6876487465082497e-72,-0.1834825981881097,0,70,255.0,255.0,255.0
184,9.200000000000001,13.500805265402914,1.3438243732541045e-74,-6.06488258700906,0.0017867404042928021,-1.5547433880712023e-73,-0.14324603109317985,0.003975275977235585,-4.070628261938331e-72,-0.19893751131604423,0,70,255.0,255.0,255.0
185,9.25,13.5009,0.0,-6.0723,0.0020112131171536856,-3.935802397897826e-73,-0.1535792794871802,0.005003632537199945,-5.453607777368362e-72,-0.21439242444397877,0,70,255.0,255.0,255.0
186,9.3,13.50100634186216,-2.4345459287278307e-74,-6.0802413978398295,0.0022329946818974255,-5.372268832229016e-73,-0.16396550080425779,0.003867630052549529,-2.922579599563152e-73,-0.20105642823911773,0,70,255.0,255.0,255.0
187,9.35,13.501122352799452,-4.942156347444667e-74,-6.0886854367502545,0.0023979761224086392,-4.228060357854232e-73,-0.17368492231109192,0.002731627567899153,4.869091857455549e-72,-0.1877204320342572,0,70,255.0,255.0,255.0
188,9.4,13.501245192805664,-6.232493801797679e-74,-6.097598776740767,0.002506157438687338,-5.0317697477339174e-74,-0.18273754400768338,0.0015956250832487363,1.0030441674867595e-71,-0.17438443582939617,0,70,255.0,255.0,255.0
189,9.450000000000001,13.501372021874582,-5.015220837433717e-74,-6.106948077820853,0.0025575386307335147,5.802381317013504e-73,-0.19112336589403178,0.00045962259859832,1.519179149227964e-71,-0.16104843962453513,0,70,255.0,255.0,255.0
190,9.5,13.5015,0.0,-6.1167,0.0025521196985471713,1.4688614517506104e-72,-0.19884238797013687,-0.0006763798860520524,2.0353141309691507e-71,-0.1477124434196746,0,70,255.0,255.0,255.0
191,9.55,13.501627425365644,9.085849099372223e-74,-6.126828147065986,0.0025581920387097593,2.0049580233797403e-72,-0.20631123693340916,0.0009192734925555625,1.0907215554734002e-72,-0.15104151511121278,0,70,255.0,255.0,255.0
192,9.600000000000001,13.501757148915019,1.8444378587612803e-73,-6.137333897919752,0.002644047047802729,1.5779336072979516e-72,-0.21394653948125836,0.0025149268711631774,-1.8171698198744707e-71,-0.15437058680275095,0,70,255.0,255.0,255.0
193,9.65,13.501893159781574,2.3259983526167047e-73,-6.148225575240521,0.002809684725826073,1.8778820350531018e-73,-0.2217482956136842,0.004110580249770735,-3.743411795296214e-71,-0.15769965849428902,0,70,255.0,255.0,255.0
194,9.700000000000001,13.502039447098753,1.871705897648077e-73,-6.159511501707529,0.0030551050727798037,-2.165478187998282e-72,-0.22971650533068722,0.00570623362837835,-5.6696537707180246e-71,-0.1610287301858272,0,70,255.0,255.0,255.0
195,9.75,13.5022,0.0,-6.1712,0.0033803080886639037,-5.481865567212659e-72,-0.23785116863226682,0.007301887006985905,-7.595895746139767e-71,-0.16435780187736637,0,70,255.0,255.0,255.0
196,9.8,13.502377556675263,-3.390885046876106e-73,-6.183297213896226,0.0037102371632684802,-7.482605210296061e-72,-0.24602155146210264,0.005895275977196962,-4.0706282619372864e-72,-0.16245751131606154,0,70,255.0,255.0,255.0
197,9.850000000000001,13.502569851540468,-6.883535800300647e-73,-6.195800571570743,0.0039698356863836085,-5.888928393406393e-72,-0.2540969197638732,0.004488664947408021,6.78177009375231e-71,-0.1605572207547567,0,70,255.0,255.0,255.0
198,9.9,13.502773368068043,-8.68074403028705e-73,-6.208705322297146,0.004159103658009282,-7.008351165439033e-73,-0.26207727353757826,0.0030820539176191286,1.3970603013698093e-70,-0.15865693019345195,0,70,255.0,255.0,255.0
199,9.950000000000001,13.502984589730412,-6.985301506848939e-73,-6.222006715349033,0.004278041078145518,8.081674620291777e-72,-0.26996261278321837,0.001675442887830187,2.1159435933644132e-70,-0.15675663963214712,0,70,255.0,255.0,255.0
200,10.0,13.5032,0.0,-6.2357,0.004326647946792304,2.0458600817100025e-71,-0.27775293750079294,0.0002688318580412741,2.834826885358992e-70,-0.15485634907084256,0,70,255.0,255.0,255.0
201,10.05,13.503416747933302,1.2654955277567203e-72,-6.249781397349109,0.004344859308209147,2.7925462817804504e-71,-0.28550655721817736,0.00045962259863244475,1.5191791492275737e-71,-0.15528843962453154,0,70,255.0,255.0,255.0
202,10.100000000000001,13.503634644923105,2.568970534244131e-72,-6.264251015797279,0.0043726102066555484,2.1977779966327625e-71,-0.29328178146324635,0.0006504133392236154,-2.5309910555134773e-70,-0.15572053017822052,0,70,255.0,255.0,255.0
203,10.15,13.503854167946253,3.2396977768531503e-72,-6.279109935570895,0.004409900642131508,2.615552262670304e-72,-0.3010786102359994,0.0008412040798147794,-5.213900025949616e-70,-0.1561526207319095,0,70,255.0,255.0,255.0
204,10.200000000000001,13.5040757939796,2.606950012974767e-72,-6.294359236896341,0.004456730614637027,-3.016122029316883e-71,-0.3088970435364372,0.00103199482040595,-7.896808996385851e-70,-0.15658471128559848,0,70,255.0,255.0,255.0
205,10.25,13.5043,0.0,-6.31,0.004513100124172102,-7.635253770118745e-71,-0.31673708136455925,0.0012227855609971,-1.057971796682199e-69,-0.15701680183928612,0,70,255.0,255.0,255.0
206,10.3,13.504527451591521,-4.72289360633927e-72,-6.326032396707337,0.0045903256039058595,-1.0421924606092196e-70,-0.3245442196651875,0.001866233628353168,-5.669653770716564e-71,-0.15526873018584,0,70,255.0,255.0,255.0
207,10.350000000000001,13.504759568767113,-9.587528556946458e-72,-6.342452965240141,0.004699723487007422,-8.202219147190409e-71,-0.33226395438314343,0.002509681695709236,9.445787212678677e-70,-0.15352065853239386,0,70,255.0,255.0,255.0
208,10.4,13.504997960146945,-1.2090716704383897e-71,-6.359257335419274,0.004841293773476782,-9.761373934137273e-72,-0.3398962855184269,0.0031531297630652813,1.9458539802428654e-69,-0.1517725868789478,0,70,255.0,255.0,255.0
209,10.450000000000001,13.505244234351185,-9.72926990121417e-72,-6.376441137065606,0.005015036463313949,1.1256320655238348e-70,-0.3474412130710382,0.003796577830421349,2.9471292392178987e-69,-0.15002451522550167,0,70,255.0,255.0,255.0
210,10.5,13.5055,0.0,-6.394,0.005220951556518914,2.8495154998764978e-70,-0.35489873704097696,0.004440025897777408,3.9484044981928976e-69,-0.14827644357205383,0,70,255.0,255.0,255.0
211,10.55,13.50576624570061,1.7626078897600365e-71,-6.4119306158215394,0.005421838276158995,3.8895152142588336e-70,-0.3623325641210817,0.0035954428878257304,2.115943593363871e-70,-0.14907663963213072,0,70,255.0,255.0,255.0
212,10.600000000000001,13.506041480008442,3.5781143693541714e-71,-6.4302339232421595,0.005580495845301492,3.061109859212888e-70,-0.3698064010041902,0.002750859877874052,-3.5252157795201233e-69,-0.1498768356922076,0,70,255.0,255.0,255.0
213,10.65,13.506323591465966,4.512316904068242e-71,-6.448911922752008,0.005696924263946401,3.64299434738789e-71,-0.37732024769030237,0.0019062768679224042,-7.262025918376501e-69,-0.1506770317522845,0,70,255.0,255.0,255.0
214,10.700000000000001,13.50661046861566,3.631012959188195e-71,-6.46796661484124,0.005771123532093731,-4.2009160591636535e-70,-0.38487410417941864,0.001061693857970726,-1.0998836057233014e-68,-0.1514772278123614,0,70,255.0,255.0,255.0
215,10.75,13.5069,0.0,-6.4874,0.005803093649743476,-1.0634536622494117e-69,-0.3924679704715384,0.00021711084801907116,-1.4735646196089391e-68,-0.15227742387243692,0,70,255.0,255.0,255.0
216,10.8,13.507190765606035,-6.578142198406219e-71,-6.507213140006506,0.005834321291454954,-1.4515868396426114e-69,-0.4000455238504893,0.0010319948204400484,-7.896808996383837e-70,-0.15082471128559466,0,70,255.0,255.0,255.0
217,10.850000000000001,13.507484111199123,-1.335370462172204e-70,-6.527403341791228,0.005906293131787482,-1.1424217522132512e-69,-0.40755044160009807,0.0018468787928610255,1.3156284396812624e-68,-0.14937199869875237,0,70,255.0,255.0,255.0
218,10.9,13.50778207398919,-1.6840195945834582e-70,-6.547966973572693,0.006019009170741054,-1.3595839996137861e-70,-0.41498272372036454,0.0026617627652819735,2.7102249693263135e-68,-0.14791928611191016,0,70,255.0,255.0,255.0
219,10.950000000000001,13.508086691186175,-1.3551124846631362e-70,-6.56890040356944,0.00617246940831568,1.5678032171130778e-69,-0.42234237021128906,0.0034766467377029507,4.104821498971415e-68,-0.14646657352506787,0,70,255.0,255.0,255.0
220,11.0,13.5084,0.0,-6.5902,0.006366673844511348,3.968863099009997e-69,-0.4296293810728712,0.004291530710123892,5.499418028616466e-68,-0.14501386093822521,0,70,255.0,255.0,255.0
221,11.05,13.508723491875248,2.454996090386484e-70,-6.611862424152437,0.006568876558024128,5.417395837144563e-69,-0.43686134047696434,0.0037965778303872223,2.9471292392171395e-69,-0.1442645152254977,0,70,255.0,255.0,255.0
222,11.100000000000001,13.50905647519507,4.9836704117533984e-70,-6.633885509592937,0.006746331627550076,4.263576022931716e-69,-0.44405583259542114,0.0033016249506505526,-4.9099921807730385e-68,-0.1435151695127702,0,70,255.0,255.0,255.0
223,11.15,13.509397712577266,6.284846687927009e-70,-6.656267382957218,0.006899039053089183,5.074036563716326e-70,-0.45121285742824135,0.0028066720709139007,-1.0114697285467607e-67,-0.14276582380004274,0,70,255.0,255.0,255.0
224,11.200000000000001,13.509745966639644,5.0573486427337224e-70,-6.679006170881,0.007026998834641464,-5.851121262535948e-69,-0.4583324149754254,0.002311719191177231,-1.531940239016236e-67,-0.14201647808731524,0,70,255.0,255.0,255.0
225,11.25,13.5101,0.0,-6.7021,0.007130210972206907,-1.4811998733790576e-68,-0.4654145052369728,0.001816766311440593,-2.0524107494856923e-67,-0.14126713237458688,0,70,255.0,255.0,255.0
226,11.3,13.510458466892976,-9.162170141705313e-70,-6.72554756338375,0.007202172476443044,-2.0217996508935635e-68,-0.4724931142416467,0.0010616938580048478,-1.0998836057230172e-68,-0.14187722781236564,0,70,255.0,255.0,255.0
227,11.350000000000001,13.510819588020599,-1.8599311184841387e-69,-6.74934981983703,0.0072363803580073926,-1.5911882339513606e-68,-0.47960222801820956,0.0003066214045691026,1.832434028341089e-67,-0.14248732325014438,0,70,255.0,255.0,255.0
228,11.4,13.511181475701733,-2.345536715712457e-69,-6.773508294598434,0.007232834616899955,-1.893656225525157e-69,-0.48674184656666114,-0.00044845104886661593,3.774856417254411e-67,-0.1430974186879231,0,70,255.0,255.0,255.0
229,11.450000000000001,13.511542242255246,-1.8874282086271759e-69,-6.79802451290656,0.00719153525312073,2.183668183303071e-68,-0.4939119698870018,-0.001203523502302361,5.7172788061678014e-67,-0.14370751412570187,0,70,255.0,255.0,255.0
230,11.5,13.5119,0.0,-6.8229,0.007112482266669722,5.5279131836152306e-68,-0.5011125979792312,-0.0019585959557381002,7.659701195081122e-67,-0.14431760956347972,0,70,255.0,255.0,255.0
231,11.55,13.512253840552845,3.4193684476434763e-69,-6.848135322312566,0.007054433536218214,7.545459019859799e-68,-0.5082862025564457,-0.00036335326232221437,4.1048214989703475e-68,-0.14262657352509328,0,70,255.0,255.0,255.0
232,11.600000000000001,13.512606772722535,6.941357432761215e-69,-6.873727211058946,0.0070761469404375,5.93839533351227e-68,-0.5153752553317408,0.0012318894310936715,-6.838736895287053e-67,-0.1409355374867068,0,70,255.0,255.0,255.0
233,11.65,13.5129627846158,8.753662194057128e-69,-6.899671438649042,0.0071776224793275775,7.067221245728968e-69,-0.5223797563051163,0.0028271321245095004,-1.4087955940470883e-66,-0.13924450144832043,0,70,255.0,255.0,255.0
234,11.700000000000001,13.513325864339377,7.043977970235324e-69,-6.9259637774927585,0.007358860152888451,-8.149560606958687e-68,-0.5292997054765728,0.004422374817925386,-2.133717498565497e-66,-0.13755346540993396,0,70,255.0,255.0,255.0
235,11.75,13.5137,0.0,-6.9526,0.007619859961120111,-2.0630452861081865e-67,-0.5361351028461097,0.006017617511341215,-2.8586394030838797e-66,-0.1358624293715458,0,70,255.0,255.0,255.0
236,11.8,13.514087770895644,-1.2761256776403376e-68,-6.979576747365985,0.007876093378682964,-2.816003642854563e-67,-0.5429380755325807,0.004231719191172751,-1.531940239015836e-67,-0.1362564780872937,0,70,255.0,255.0,255.0
237,11.850000000000001,13.514486121089268,-2.5905498612560724e-68,-7.006894135927189,0.008043031880237392,-2.2162393100097722e-67,-0.5497607506548393,0.0024458208710042874,2.5522513552807125e-66,-0.13665052680304157,0,70,255.0,255.0,255.0
238,11.9,13.514890585835067,-3.266911206051606e-68,-7.034553150805399,0.008120675465783395,-2.6375228757390766e-68,-0.5566031282128849,0.0006599225508358867,5.257696734462913e-66,-0.13704457551878946,0,70,255.0,255.0,255.0
239,11.950000000000001,13.515296700387246,-2.6288483672314138e-68,-7.062554777122408,0.008109024135320978,3.0414574244531696e-67,-0.5634652082067181,-0.0011259757693325772,7.96314211364521e-66,-0.13743862423453734,0,70,255.0,255.0,255.0
240,12.0,13.5157,0.0,-7.0909,0.008008077888850142,7.699389826071223e-67,-0.5703469906363385,-0.002911874089500971,1.066858749282741e-65,-0.13783267295028523,0,70,255.0,255.0,255.0
241,12.05,13.516097475864575,4.762565865797003e-68,-7.119588888223495,0.007905192949055059,1.0509468669432275e-66,-0.5771934953132378,-0.0012035235023023262,5.7172788061663446e-67,-0.13602751412568562,0,70,255.0,255.0,255.0
242,12.100000000000001,13.516491942920396,9.668063701748169e-68,-7.148617845232304,0.007887725538619907,8.271117706687865e-67,-0.5839497420489074,0.0005048270848963185,-9.525131731594141e-66,-0.13422235530108603,0,70,255.0,255.0,255.0
243,12.15,13.516887672043927,1.2192278604800712e-67,-7.177982358129365,0.007955675657544686,9.843369378383472e-68,-0.5906157308433465,0.0022131776720949025,-1.9621991343804556e-65,-0.1324171964764865,0,70,255.0,255.0,255.0
244,12.200000000000001,13.517288934111638,9.810995671902131e-68,-7.207677914017619,0.0081090433058294,-1.1350873637116797e-66,-0.5971914616965559,0.003921528259293547,-2.971885095601533e-65,-0.1306120376518869,0,70,255.0,255.0,255.0
245,12.25,13.5177,0.0,-7.2377,0.008347828483474037,-2.8734514018176707e-66,-0.603676934608535,0.0056298788464921035,-3.981571056822576e-65,-0.1288068788272847,0,70,255.0,255.0,255.0
246,12.3,13.518123925646053,-1.7774137785547672e-67,-7.268045299740037,0.008599134825084476,-3.9221871034874526e-66,-0.6101439432144655,0.004422374817925323,-2.133717498564949e-66,-0.12987346540993364,0,70,255.0,255.0,255.0
247,12.350000000000001,13.518558907229151,-3.6081704945736595e-67,-7.2987152831436,0.008790065965266575,-3.086823151674168e-66,-0.6166642811495285,0.0032148707893585415,3.554827557109586e-65,-0.13094005199258255,0,70,255.0,255.0,255.0
248,12.4,13.519001925989222,-4.5502203213151236e-67,-7.329712616677143,0.008920621904020331,-3.6735954637794707e-67,-0.6232379484137237,0.0020073667607918037,7.323026864075533e-65,-0.13200663857523143,0,70,255.0,255.0,255.0
249,12.450000000000001,13.519449963166196,-3.661513432037709e-67,-7.361039966807125,0.008990802641345753,4.236203712401404e-66,-0.6298649450070517,0.0007998627322250229,1.1091226171041614e-64,-0.13307322515788036,0,70,255.0,255.0,255.0
250,12.5,13.5199,0.0,-7.3927,0.009000608177242833,1.072386662466356e-65,-0.6365452709295117,-0.00040764129634181245,1.4859425478007558e-64,-0.13413981174052747,0,70,255.0,255.0,255.0
251,12.55,13.520350021551211,6.633398527639368e-67,-7.424693912816357,0.009010267750601717,1.4637801547006583e-65,-0.6431907318288893,0.0007940242306970911,7.963142113643134e-66,-0.1316786242345676,0,70,255.0,255.0,255.0
252,12.600000000000001,13.520802028162999,1.346587560811982e-66,-7.457017022193301,0.009080010600312544,1.1520180836027886e-65,-0.6497131333529687,0.0019956897577359948,-1.326679705527893e-64,-0.12921743672860775,0,70,255.0,255.0,255.0
253,12.65,13.52125902399918,1.6981653424780425e-66,-7.489663175162066,0.009209836726375311,1.371004491727956e-66,-0.65611247550175,0.0031973552847748554,-2.7329908321921674e-64,-0.12675624922264797,0,70,255.0,255.0,255.0
254,12.700000000000001,13.521724013223574,1.3664954160960622e-66,-7.522626218753888,0.009399746128790031,-1.5809727485893936e-65,-0.6623887582752335,0.0043990208118137595,-4.139301958856492e-64,-0.12429506171668811,0,70,255.0,255.0,255.0
255,12.75,13.5222,0.0,-7.5559,0.009649738807556683,-4.002201509683657e-65,-0.6685419816734188,0.005600686338852551,-5.545613085520768e-64,-0.12183387421072922,0,70,255.0,255.0,255.0
256,12.8,13.522688788149102,-2.4756180332002713e-66,-7.589479848994536,0.009887794172509484,-5.46290190845389e-65,-0.6746611294699839,0.00392152825925937,-2.971885095600773e-65,-0.12293203765186933,0,70,255.0,255.0,255.0
257,12.850000000000001,13.52318738011885,-5.025533193790562e-66,-7.6233670280832015,0.010041891633482625,-4.299390019243739e-65,-0.6808351854386059,0.0022423701796661887,4.951236066400613e-64,-0.12403020109300943,0,70,255.0,255.0,255.0
258,12.9,13.52369157801405,-6.337639337780658e-66,-7.657564282674597,0.010112031190476104,-5.116658420533862e-66,-0.6870641495792849,0.0005632121000730675,1.0199660642361117e-63,-0.1251283645341495,0,70,255.0,255.0,255.0
259,12.950000000000001,13.5241971839395,-5.099830321180478e-66,-7.69207435817733,0.01009821284348993,5.900270623117432e-65,-0.6933480218920208,-0.0011159459795201136,1.5448085218321806e-63,-0.1262265279752896,0,70,255.0,255.0,255.0
260,13.0,13.5247,0.0,-7.7269,0.010000436592524095,1.4936419376268273e-64,-0.6996868023768138,-0.002795104059113304,2.0696509794282313e-63,-0.12732469141642877,0,70,255.0,255.0,255.0
261,13.05,13.52519722585238,9.239132280037148e-66,-7.762042691205504,0.009902555559352851,2.03878274791149e-64,-0.7060047502911716,-0.0011201372677363997,1.1091226171038797e-64,-0.12539322515787937,0,70,255.0,255.0,255.0
262,13.100000000000001,13.525691651361594,1.875554521435027e-65,-7.797498865473902,0.009888422865750455,1.6045541993372163e-64,-0.712226124892602,0.0005548295236405048,-1.8478264560074554e-63,-0.12346175889932999,0,70,255.0,255.0,255.0
263,13.15,13.526187463944614,2.3652392008644596e-65,-7.833263694139549,0.009958038511716899,1.9095629190407517e-65,-0.7183509261811045,0.00222979631501735,-3.806565173725229e-63,-0.12153029264078066,0,70,255.0,255.0,255.0
264,13.200000000000001,13.526688851018426,1.903282586862586e-65,-7.869332348536796,0.010111402497252191,-2.2020109743880334e-64,-0.72437915415668,0.003904763106394254,-5.765303891443073e-63,-0.11959882638223128,0,70,255.0,255.0,255.0
265,13.25,13.5272,0.0,-7.9057,0.01034851482235632,-5.5743475995389434e-64,-0.7303108088193275,0.005579729897771071,-7.724042609160847e-63,-0.11766736012368106,0,70,255.0,255.0,255.0
266,13.3,13.527723908441372,-3.4480911086948316e-65,-7.942362986183452,0.01059798359009509,-7.608840800800569e-64,-0.7362158693653372,0.004399020811779578,-4.139301958855424e-64,-0.11853506171670283,0,70,255.0,255.0,255.0
267,13.350000000000001,13.528258814434771,-6.999664766361052e-65,-7.979322310021195,0.010788416903534284,-5.988277795424489e-64,-0.742164314990998,0.0032183117257880835,6.896182217389762e-63,-0.11940276330972462,0,70,255.0,255.0,255.0
268,13.4,13.528801766207486,-8.827192869679771e-65,-8.016580140767212,0.0109198147626739,-7.126585834109602e-65,-0.7481561456963096,0.002037602639796632,1.4206294630664805e-62,-0.12027046490274636,0,70,255.0,255.0,255.0
269,13.450000000000001,13.529349811986801,-7.1031473153322924e-65,-8.054138647675488,0.010992177167513944,8.218016835240394e-64,-0.7541913614812725,0.0008568935538051381,2.151640704394011e-62,-0.12113816649576814,0,70,255.0,255.0,255.0
270,13.5,13.5299,0.0,-8.092,0.011005504118054414,2.0803748460528946e-63,-0.7602699623458865,-0.00032381553218625847,2.8826519457215156e-62,-0.122005868088789,0,70,255.0,255.0,255.0
271,13.55,13.530450340382135,1.2868451206775612e-64,-8.13016536406069,0.011017510080261646,2.8396580455290784e-63,-0.7663317722474876,0.0008040540204754553,1.54480852183178e-63,-0.12046652797525129,0,70,255.0,255.0,255.0
272,13.600000000000001,13.531002690899319,2.6123104544009177e-64,-8.168631894441324,0.011085909520101961,2.234855698236075e-63,-0.7723166151434118,0.0019319235731371691,-2.5736902413551596e-62,-0.11892718786171357,0,70,255.0,255.0,255.0
273,13.65,13.53155987122544,3.294353227785462e-64,-8.207395742791604,0.011210702437575357,2.659678041739765e-64,-0.778224491033659,0.0030597931257988426,-5.3018613348934e-62,-0.11738784774817591,0,70,255.0,255.0,255.0
274,13.700000000000001,13.532124701034371,2.6509306674466576e-64,-8.24645306076126,0.011391888832681846,-3.067005636657354e-63,-0.7840553999182294,0.004187662678460557,-8.030032428431739e-62,-0.11584850763463819,0,70,255.0,255.0,255.0
275,13.75,13.5327,0.0,-8.2858,0.011629468705421413,-7.764064624257684e-63,-0.7898093417971227,0.005315532231122244,-1.0758203521969979e-61,-0.11430916752109876,0,70,255.0,255.0,255.0
276,13.8,13.533287530030092,-4.802571371840762e-64,-8.325433157573785,0.01185997608886018,-1.0597748102036258e-62,-0.7955130416447068,0.0039047631064282797,-5.765303891441582e-63,-0.11383882638226037,0,70,255.0,255.0,255.0
277,13.850000000000001,13.53388482196795,-9.749275340967567e-64,-8.365350912213522,0.012019945016064246,-8.34059501340185e-63,-0.8011932244353489,0.002493993981734315,9.605142743681663e-62,-0.11336848524342197,0,70,255.0,255.0,255.0
278,13.9,13.534488348890761,-1.2294693624173872e-63,-8.405552088066369,0.012109375487033613,-9.926053583548154e-64,-0.806849890169049,0.0010832248570404003,1.978681587650712e-61,-0.11289814410458358,0,70,255.0,255.0,255.0
279,13.950000000000001,13.535094583875713,-9.89340793825341e-64,-8.44603550927948,0.012128267501768283,1.1446220863105375e-62,-0.8124830388458072,-0.00032754426765356417,2.9968489009332938e-61,-0.11242780296574519,0,70,255.0,255.0,255.0
280,14.0,13.5357,0.0,-8.4868,0.012076621060268257,2.897588365097784e-62,-0.8180926704656234,-0.001738313392347493,4.015016214215839e-61,-0.11195746182690502,0,70,255.0,255.0,255.0
281,14.05,13.5363019394975,1.7923440366685482e-63,-8.527844405644178,0.012006585564303958,3.955133436261595e-62,-0.8236800611736904,-0.0010631064462244366,2.151640704393448e-62,-0.11153816649577325,0,70,255.0,255.0,255.0
282,14.100000000000001,13.536901221228886,3.638479090946934e-63,-8.569167656704595,0.01197031041564581,3.112752435537132e-62,-0.8292464871152009,-0.00038789950010137994,-3.584688073337149e-61,-0.11111887116464149,0,70,255.0,255.0,255.0
283,14.15,13.53749953321152,4.5884421268910013e-63,-8.610768704942922,0.011967795614293819,3.7044536292452687e-63,-0.8347919482901546,0.00028730744602165287,-7.384540217113508e-61,-0.11069957583350973,0,70,255.0,255.0,255.0
284,14.200000000000001,13.538098563462771,3.692270108556693e-63,-8.652646502120835,0.011999041160247978,-4.2717877815764165e-62,-0.8403164446985517,0.0009625143921447093,-1.1184392360890002e-60,-0.11028028050237797,0,70,255.0,255.0,255.0
285,14.25,13.5387,0.0,-8.6948,0.012064047053508288,-1.0813946997965367e-61,-0.8458199763403922,0.001637721338267742,-1.4984244504666356e-60,-0.10986098517124354,0,70,255.0,255.0,255.0
286,14.3,13.539305511979906,-6.689119009490117e-63,-8.73722841984951,0.012161681653926608,-1.4760758934842755e-61,-0.8513187136605388,0.002267662678465033,-8.030032428429635e-62,-0.11008850763461667,0,70,255.0,255.0,255.0
287,14.350000000000001,13.53991669311651,-1.3578988829690982e-62,-8.77993206096811,0.012290813321354795,-1.1616950240808344e-61,-0.856828827103854,0.002897604018662324,1.337823801898043e-60,-0.11031603009798979,0,70,255.0,255.0,255.0
288,14.4,13.54053511826316,-1.712429914514662e-62,-8.82291149216195,0.01245144205579284,-1.3825209158626285e-62,-0.8623503166703378,0.003527545358859592,2.7559479280803316e-60,-0.1105435525613629,0,70,255.0,255.0,255.0
289,14.450000000000001,13.541162362273207,-1.377973964040144e-62,-8.866167282237194,0.012643567857240752,1.594252903999512e-61,-0.8678831823599902,0.004157486699056884,4.1740720542626706e-60,-0.11077107502473603,0,70,255.0,255.0,255.0
290,14.5,13.5418,0.0,-8.9097,0.012867190725698526,4.035819962676368e-61,-0.8734274241728113,0.004787428039254166,5.59219618044496e-60,-0.11099859748810381,0,70,255.0,255.0,255.0
291,14.55,13.542448812582874,2.496413200129192e-62,-8.953509114957784,0.01307468781998832,5.508790230310942e-61,-0.8789170841841569,0.0035124557323374813,2.9968489009325217e-61,-0.1085878029657177,0,70,255.0,255.0,255.0
292,14.600000000000001,13.543106406305078,5.067747622781699e-62,-8.997589699422983,0.01321843629893228,4.335504852769624e-61,-0.8842862044693832,0.002237483425420797,-4.992826400258456e-60,-0.10617700844333157,0,70,255.0,255.0,255.0
293,14.65,13.543769593735844,6.390875445369547e-62,-9.041935726409287,0.013298436162530401,5.159638300525984e-62,-0.88953478502849,0.000962511118504158,-1.0285337690609976e-59,-0.10376621392094554,0,70,255.0,255.0,255.0
294,14.700000000000001,13.544435187444407,5.1426688453049085e-62,-9.086541168930395,0.013314687410782693,-5.949832837840406e-61,-0.8946628258614777,-0.0003124611884125269,-1.5577848980961687e-59,-0.10135541939855942,0,70,255.0,255.0,255.0
295,14.75,13.5451,0.0,-9.1314,0.013267190043689153,-1.5061885150908937e-60,-0.8996703269683458,-0.001587433495329152,-2.0870360271313205e-59,-0.09894462487617428,0,70,255.0,255.0,255.0
296,14.8,13.545761637688601,-9.316740899567756e-62,-9.176507920319358,0.013203567066110505,-2.0559085027759496e-60,-0.9046609496028112,-0.0009574856078167209,-1.1184392360887126e-60,-0.10068028050243483,0,70,255.0,255.0,255.0
297,14.850000000000001,13.546420881663185,-1.89130916081577e-61,-9.22186754133997,0.013171441482907479,-1.6180324386997665e-60,-0.9097383550185895,-0.0003275377203042899,1.863348179913578e-59,-0.10241593612869537,0,70,255.0,255.0,255.0
298,14.9,13.547079306793465,-2.3851071866963533e-61,-9.267483202200903,0.013170813294080074,-1.92560322862413e-61,-0.9149025432156807,0.0003024101672081186,3.838540283435957e-59,-0.10415159175495586,0,70,255.0,255.0,255.0
299,14.950000000000001,13.547738487949164,-1.919270141717948e-61,-9.313359242041228,0.013201682499628293,2.220507844736211e-60,-0.920153514194085,0.0009323580547205496,5.8137323869584065e-59,-0.10588724738121641,0,70,255.0,255.0,255.0
300,15.0,13.5484,0.0,-9.3595,0.013264049099552129,5.621172064095938e-60,-0.9254912679538023,0.0015623059422330138,7.788924490480786e-59,-0.10762290300747601,0,70,255.0,255.0,255.0
301,15.05,13.549065436662723,3.477055039814183e-61,-9.405908003764791,0.013359043915583638,7.672754988072704e-60,-0.9308071174046071,0.0022374866990272813,4.174072054261594e-60,-0.1050110750247121,0,70,255.0,255.0,255.0
302,15.100000000000001,13.54973646704219,7.05846188098491e-61,-9.452578535217144,0.013487797769454858,6.038579269522102e-60,-0.9359923754562737,0.0029126674558215488,-6.9541100796284675e-59,-0.1023992470419482,0,70,255.0,255.0,255.0
303,15.15,13.550414779090298,8.901341202248457e-61,-9.4995050647871,0.01365031066116579,7.186449084443906e-61,-0.9410470421088019,0.003587848212615793,-1.4325627364682832e-58,-0.09978741905918438,0,70,255.0,255.0,255.0
304,15.200000000000001,13.551102060758936,7.162813682341302e-61,-9.546681062904705,0.013846582590716439,-8.287048095160811e-60,-0.9459711173621921,0.00426302896941006,-2.169714464973746e-58,-0.09717559107642047,0,70,255.0,255.0,255.0
305,15.25,13.5518,0.0,-9.5941,0.014076613558106795,-2.097849974129286e-59,-0.9507646012164439,0.004938209726204262,-2.906866193479183e-58,-0.09456376309365133,0,70,255.0,255.0,255.0
306,15.3,13.552509415660515,-1.2976546069299958e-60,-9.641756864621483,0.014288257271551369,-2.8635111449514868e-59,-0.9555185807787487,0.0035275388115785086,-1.5577848980957667e-59,-0.09559541939853668,0,70,255.0,255.0,255.0
307,15.350000000000001,13.553227650168061,-2.634253836312387e-60,-9.689652717791464,0.014429367439264651,-2.2536284639388644e-59,-0.9603241431562977,0.0021168678969527553,2.5953092138600296e-58,-0.09662707570342202,0,70,255.0,255.0,255.0
308,15.4,13.553951176845347,-3.322025762229748e-60,-9.7377901386507,0.014499944061246646,-2.682019310915166e-60,-0.9651812883490908,0.0007061969823270522,5.3463969175295375e-58,-0.09765873200830734,0,70,255.0,255.0,255.0
309,15.450000000000001,13.554676469015089,-2.673198458764726e-60,-9.786171706339958,0.014499987137497353,3.092768453590701e-59,-0.9700900163571284,-0.0007044739322987015,8.097484621199143e-58,-0.09869038831319268,0,70,255.0,255.0,255.0
310,15.5,13.5554,0.0,-9.8348,0.014429496668016776,7.82928269010755e-59,-0.97505032718041,-0.0021151448469244466,1.0848572324868652e-57,-0.09972204461807177,0,70,255.0,255.0,255.0
311,15.55,13.556119300695219,4.842912923738565e-60,-9.88367653774928,0.014351926998211788,1.0686769080998676e-58,-0.9799985594803935,-0.0009876419452749508,5.813732386956912e-59,-0.09820724738126765,0,70,255.0,255.0,255.0
312,15.600000000000001,13.556836132285573,9.831169157151055e-60,-9.932798593617008,0.01433073247348928,8.410655928803248e-59,-0.9848710519185369,0.000139860956374545,-9.685825847477269e-58,-0.09669245014446352,0,70,255.0,255.0,255.0
313,15.65,13.557553313528318,1.2397968928694145e-59,-9.9821623806101,0.014365913093849242,1.0009432335216219e-59,-0.9896678044948398,0.0012673638580240005,-1.9953024933649865e-57,-0.09517765290765946,0,70,255.0,255.0,255.0
314,15.700000000000001,13.55827366318071,9.976512466824775e-60,-10.031764111735463,0.01445746885929168,-1.1542369004846729e-58,-0.9943888172093028,0.0023948667596734967,-3.022022401982283e-57,-0.09366285567085533,0,70,255.0,255.0,255.0
315,15.75,13.559,0.0,-10.0816,0.01460539976981659,-2.9219280786300915e-58,-0.9990340900619252,0.003522369661322966,-4.0487423105995423e-57,-0.09214805843404683,0,70,255.0,255.0,255.0
316,15.8,13.559734181558612,-1.8073997088024265e-59,-10.131666584381408,0.01475203473558503,-3.988356517904322e-58,-1.0036231812996856,0.0023430289694145014,-2.169714464973188e-58,-0.0914155910763636,0,70,255.0,255.0,255.0
317,15.850000000000001,13.560474220689649,-3.6690422792291847e-59,-10.181961707740506,0.014839702666758044,-3.1388995251274128e-58,-1.0081756491695617,0.0011636882775060363,3.6147994176049047e-57,-0.09068312371868037,0,70,255.0,255.0,255.0
318,15.9,13.56121716904138,-4.6269849952546835e-59,-10.232483538908898,0.014868403563335636,-3.7355710029949797e-59,-1.0126914936715534,-1.565241440238665e-05,7.446570281706991e-57,-0.08995065636099717,0,70,255.0,255.0,255.0
319,15.950000000000001,13.561960078262072,-3.723285140853437e-59,-10.283230246718194,0.014838137425317805,4.307670756579621e-58,-1.0171707148056615,-0.0011949931063108517,1.1278341145809215e-56,-0.08921818900331394,0,70,255.0,255.0,255.0
320,16.0,13.5627,0.0,-10.3342,0.01474890425270455,1.090478404550961e-57,-1.0216133125718851,-0.0023743337982192886,1.5110112009911304e-56,-0.08848572164563251,0,70,255.0,255.0,255.0
321,16.05,13.563435173070332,6.745307542835849e-59,-10.385391524725096,0.014671934059442452,1.488474916351742e-57,-1.0260527153208563,-0.0007044739322645667,8.097484621197053e-58,-0.08909038831321255,0,70,255.0,255.0,255.0
322,16.1,13.564168584955832,1.369305220120163e-58,-10.436805775420975,0.014678456859478092,1.1714532507629328e-57,-1.0305223514032067,0.0009653859336901552,-1.3490615085671893e-56,-0.0896950549807926,0,70,255.0,255.0,255.0
323,16.150000000000002,13.564904410306166,1.726814308814934e-58,-10.488444263754307,0.01476847265281147,1.3941340778453352e-58,-1.0350222208189357,0.002635245799644877,-2.779097863346349e-56,-0.09029972164837263,0,70,255.0,255.0,255.0
324,16.2,13.565646823771003,1.389548931673155e-58,-10.540308501391758,0.01494198143944257,-1.6076446125833065e-57,-1.0395523235680437,0.00430510566559948,-4.209134218125407e-56,-0.09090438831595264,0,70,255.0,255.0,255.0
325,16.25,13.5664,0.0,-10.5924,0.015198983219371414,-4.069720810340835e-57,-1.044112659650531,0.005974965531554258,-5.639170572904568e-56,-0.09150905498353445,0,70,255.0,255.0,255.0
326,16.3,13.567166726160062,-2.517383046254097e-58,-10.64471931671821,0.015456229026651147,-5.555064013616535e-57,-1.048645957416891,0.004314866759634907,-3.0220224019815e-57,-0.08982285567086128,0,70,255.0,255.0,255.0
327,16.35,13.567944239487021,-5.1103166525577335e-58,-10.697263190575597,0.01563046989533491,-4.3719230505389886e-57,-1.0530949452176173,0.002654767987715556,5.034766092508268e-56,-0.0881366563581881,0,70,255.0,255.0,255.0
328,16.400000000000002,13.56872838973395,-6.444558735734268e-58,-10.75002740607388,0.01572170582542271,-5.202979211081963e-58,-1.05745962305271,0.0009946692157962057,1.0371734425214684e-55,-0.08645045704551492,0,70,255.0,255.0,255.0
329,16.45,13.56951502665392,-5.185867212607269e-58,-10.803007747714771,0.015729936816914536,5.999811374675284e-57,-1.0617399909221685,-0.0006654295561230273,1.5708702757920722e-55,-0.08476425773284187,0,70,255.0,255.0,255.0
330,16.5,13.5703,0.0,-10.8562,0.015655162869810398,1.518840483681238e-56,-1.065936048825994,-0.002325528328042392,2.1045671090627137e-55,-0.08307805842016869,0,70,255.0,255.0,255.0
331,16.55,13.571080322289422,9.395001430732803e-58,-10.909600808402068,0.015567149833951566,2.07317811381144e-56,-1.0700994550115805,-0.0011949931063108326,1.1278341145806288e-56,-0.0834581890032947,0,70,255.0,255.0,255.0
332,16.6,13.571857657096078,1.9071961390110774e-57,-10.963210262276645,0.015535663559179312,1.6316238951393024e-56,-1.0742818677263235,-6.445788457927308e-05,-1.879000286146588e-55,-0.08383831958642071,0,70,255.0,255.0,255.0
333,16.650000000000002,13.572634830758025,2.4051420634122137e-57,-11.017029311950187,0.015560704045493638,1.9417782766482556e-57,-1.0784832869702228,0.0010660773371522865,-3.870783983751239e-55,-0.08421845016954671,0,70,255.0,255.0,255.0
334,16.7,13.573414669613314,1.9353919918755918e-57,-11.071058907749151,0.015642271292894534,-2.2391600886117836e-56,-1.082703712743278,0.0021966125588837654,-5.862567681355748e-55,-0.0845985807526727,0,70,255.0,255.0,255.0
335,16.75,13.5742,0.0,-11.1253,0.01578036530138201,-5.6683898536908685e-56,-1.0869431450454898,0.0033271477806152416,-7.854351378960399e-55,-0.08497871133579515,0,70,255.0,255.0,255.0
336,16.8,13.574992784682246,-3.5062622676677116e-57,-11.17975264967352,0.015923171637538345,-7.737206053884106e-56,-1.0911482225367841,0.0023851056656380796,-4.209134218124366e-56,-0.08322438831597087,0,70,255.0,255.0,255.0
337,16.85,13.575791532128658,-7.117752890788536e-57,-11.234413360317829,0.01601887586794582,-6.0893032755033105e-56,-1.095265583877087,0.0014430635506609178,7.012524535335526e-55,-0.08147006529614659,0,70,255.0,255.0,255.0
338,16.900000000000002,13.576593887233946,-8.97611238007543e-57,-11.289277746125379,0.01606747799260444,-7.246815185484822e-57,-1.0992952290663989,0.0005010214356837559,1.4445962492483488e-54,-0.07971574227632232,0,70,255.0,255.0,255.0
339,16.95,13.577397494892821,-7.222981246241643e-57,-11.344341421288616,0.0160689780115142,8.3566592169796e-56,-1.1032371581047191,-0.0004410206792933389,2.1879400449630923e-54,-0.07796141925649816,0,70,255.0,255.0,255.0
340,17.0,13.5782,0.0,-11.3996,0.016023375924675107,2.1154718931082236e-55,-1.1070913709920482,-0.0013830627942704177,2.9312838406778876e-54,-0.0762070962366721,0,70,255.0,255.0,255.0
341,17.05,13.578999738981588,1.3085548927597565e-56,-11.455050192903855,0.015972163615914418,2.8875646101724985e-55,-1.1109236548412864,-0.0006654295561571276,1.5708702757916868e-55,-0.07708425773286082,0,70,255.0,255.0,255.0
342,17.1,13.579797814389291,2.656381542414306e-56,-11.510693096452043,0.015956832969059392,2.272558920687394e-55,-1.1147997967653345,5.220368195616256e-05,-2.61710978551955e-54,-0.07796141922904953,0,70,255.0,255.0,255.0
343,17.150000000000002,13.580596020306194,3.34993074568895e-56,-11.566530903548305,0.015977383984110034,2.7045482465291013e-56,-1.1187197967641915,0.0007698369200694528,-5.39130659861827e-54,-0.07883858072523825,0,70,255.0,255.0,255.0
344,17.2,13.5813961508154,2.6956532993090966e-56,-11.622565807096374,0.016033816661066333,-3.118747677930662e-55,-1.1226836548378583,0.001487470158182692,-8.165503411716791e-54,-0.07971574222142691,0,70,255.0,255.0,255.0
345,17.25,13.5822,0.0,-11.6788,0.016126130999928302,-7.895048587063807e-55,-1.1266913709863342,0.0022051033962959266,-1.093970022481551e-53,-0.08059290371761563,0,70,255.0,255.0,255.0
346,17.3,13.583009059391394,-4.883593344272254e-56,-11.735234578711063,0.01623617389880694,-1.0776537835301581e-54,-1.13067715809809,0.0021966125588495865,-5.862567681354273e-55,-0.07883858075261682,0,70,255.0,255.0,255.0
347,17.35,13.583823610314184,-9.91375088057837e-56,-11.791866253874009,0.016345792255813264,-8.48130535519924e-55,-1.134575229061596,0.0021881217214032465,9.767186688544655e-54,-0.07708425778761802,0,70,255.0,255.0,255.0
348,17.400000000000002,13.584643631541276,-1.2502111744748256e-55,-11.84869063968142,0.01645498607094727,-1.0093511467567869e-55,-1.138385583876852,0.0021796308839569065,2.0120630145224734e-53,-0.07532993482261922,0,70,255.0,255.0,255.0
349,17.45,13.58546910184558,-1.0060315072612222e-55,-11.905703350325885,0.01656375534420895,1.1639324790024697e-54,-1.142108222543858,0.002171140046510567,3.047407360190408e-53,-0.07357561185762054,0,70,255.0,255.0,255.0
350,17.5,13.5863,0.0,-11.9629,0.01667210007559832,2.9464722455147003e-54,-1.145743145062614,0.0021626492090641714,4.0827517058584163e-53,-0.07182128889261996,0,70,255.0,255.0,255.0
351,17.55,13.587136023452837,1.8225818484329264e-55,-12.020277092251899,0.016763140788844187,4.0218586731033833e-54,-1.1493437127663424,0.0014789793207704142,2.187940044962554e-54,-0.07220141925650801,0,70,255.0,255.0,255.0
352,17.6,13.587975744353978,3.699862197989918e-55,-12.07783468805194,0.016819998007675366,3.165266250010959e-54,-1.1529632869882651,0.0007953094324766568,-3.6451636968659055e-53,-0.07258154962039606,0,70,255.0,255.0,255.0
353,17.650000000000002,13.588817453528698,4.665851623330408e-55,-12.13557373772603,0.016842671732091856,3.7669497623742526e-55,-1.156601867728382,0.00011163954418289945,-7.509121398228066e-53,-0.0729616799842841,0,70,255.0,255.0,255.0
354,17.7,13.58965944180228,3.754560699113979e-55,-12.193495191600078,0.016831161962093655,-4.3438551482168124e-54,-1.1602594549866931,-0.0005720303441108091,-1.1373079099589953e-52,-0.07334181034817212,0,70,255.0,255.0,255.0
355,17.75,13.5905,0.0,-12.2516,0.016785468697680772,-1.099638412335242e-53,-1.1639360487631993,-0.0012557002324046218,-1.5237036800952112e-52,-0.07372194071206195,0,70,255.0,255.0,255.0
356,17.8,13.591338046797258,-6.80196805930448e-55,-12.309888252281345,0.016743262945824483,-1.5009780908883374e-53,-1.1675799908365379,-0.00043252984184695084,-8.165503411714778e-54,-0.0720357422214789,0,70,255.0,255.0,255.0
357,17.85,13.592175012269907,-1.3808073703901835e-54,-12.368356593918246,0.016742215713496076,-1.1812934464523912e-53,-1.1711396229853475,0.00039064054871072013,1.3603936118609157e-52,-0.07034954373089586,0,70,255.0,255.0,255.0
358,17.900000000000002,13.593012954343932,-1.7413195318846802e-54,-12.427000809414475,0.016782327000695554,-1.405844790274028e-54,-1.1746149452096277,0.001213810939268391,2.802442257838979e-52,-0.06866334524031281,0,70,255.0,255.0,255.0
359,17.95,13.593853930945304,-1.401221128919471e-54,-12.485816683273798,0.01686359680742291,1.6211488113864771e-53,-1.1780059575093784,0.0020369813298260035,4.24449090381694e-52,-0.06697714674972988,0,70,255.0,255.0,255.0
360,18.0,13.5947,0.0,-12.5448,0.01698602513367815,4.103906424789498e-53,-1.1813126598846004,0.0028601517203835913,5.686539549795002e-52,-0.06529094825915038,0,70,255.0,255.0,255.0
361,18.05,13.595552589358137,2.538529038878499e-54,-12.603947498622723,0.017111807427850505,5.601726496243011e-53,-1.1845923238875185,0.002171140046510529,3.0474073601896543e-53,-0.06589561185757163,0,70,255.0,255.0,255.0
362,18.1,13.59641060656639,5.153243261761741e-54,-12.663259736275087,0.017203139138329205,4.408647160808468e-53,-1.1879022210703576,0.0014821283726374672,-5.077058077757071e-52,-0.06650027545599288,0,70,255.0,255.0,255.0
363,18.150000000000002,13.597272329095576,6.498692965205679e-54,-12.72273822461609,0.017260020265114254,5.246684184858671e-54,-1.1912423514331179,0.0007931166987644052,-1.0458856891533108e-51,-0.06710493905441413,0,70,255.0,255.0,255.0
364,18.2,13.598136034416505,5.229428445766482e-54,-12.782384475304726,0.017282450808205646,-6.0502097307242235e-53,-1.194612714975799,0.00010410502489139207,-1.584065570530876e-51,-0.06770960265283534,0,70,255.0,255.0,255.0
365,18.25,13.599,0.0,-12.8422,0.017270430767603387,-1.531598728682275e-52,-1.1980133116984013,-0.0005849066489816979,-2.1222454519084795e-51,-0.06831426625125658,0,70,255.0,255.0,255.0
366,18.3,13.599862795770195,-9.473919349583548e-54,-12.902185753227775,0.017241507342776925,-2.0905927894083706e-52,-1.2014107136133876,-0.0005720303440767125,-1.137307909958712e-52,-0.06758181034818661,0,70,255.0,255.0,255.0
367,18.35,13.600724161464532,-1.9232165676656784e-53,-12.962340460981423,0.017213227733195717,-1.6453295196781473e-52,-1.20477149273322,-0.0005591540391717272,1.894783869916737e-51,-0.06684935444511664,0,70,255.0,255.0,255.0
368,18.400000000000002,13.60158412927377,-2.4253452328938034e-53,-13.02266229212118,0.017185591938859754,-1.9580891949160633e-53,-1.2080956490578991,-0.0005462777342667419,3.9032985308293463e-51,-0.06611689854204666,0,70,255.0,255.0,255.0
369,18.45,13.602442731388672,-1.9516492654146458e-53,-13.08314941550729,0.017158599959769042,2.2579690111510435e-52,-1.2113831825874246,-0.0005334014293617575,5.911813191741811e-51,-0.06538444263897675,0,70,255.0,255.0,255.0
370,18.5,13.6033,0.0,-13.1438,0.017132251795923575,5.71600427225015e-52,-1.2146340933217967,-0.0005205251244568554,7.920327852654421e-51,-0.06465198673590322,0,70,255.0,255.0,255.0
371,18.55,13.60415622756108,3.5357148359455694e-53,-13.204611888466184,0.01712216320105621,7.802198508009182e-52,-1.217828821658938,0.00011698132976222593,4.2444909038158955e-52,-0.06313714674973878,0,70,255.0,255.0,255.0
372,18.6,13.605012747575485,7.177541944486539e-53,-13.26558161979924,0.017143949928899796,6.1404533626317445e-52,-1.2209478079967706,0.0007544877839813073,-7.071429671891242e-51,-0.061622306763574344,0,70,255.0,255.0,255.0
373,18.650000000000002,13.60587115380935,9.05151163505465e-53,-13.326705406899208,0.01719761197945434,7.307688361178373e-53,-1.2239910523352953,0.0013919942382003886,-1.4567308434164074e-50,-0.060107466777409906,0,70,255.0,255.0,255.0
374,18.7,13.606733040028809,7.283654217081934e-53,-13.387979462666111,0.01728314935271983,-8.426855071531749e-52,-1.2269585546745116,0.002029500692419425,-2.206318719643637e-50,-0.05859262679124557,0,70,255.0,255.0,255.0
375,18.75,13.6076,0.0,-13.4494,0.01740056204869628,-2.1332418360318324e-51,-1.22985031501442,0.0026670071466384504,-2.95590659587092e-50,-0.05707778680508646,0,70,255.0,255.0,255.0
376,18.8,13.608473093985484,-1.3195467408823923e-52,-13.510964292907499,0.01751783985298527,-2.911820124262835e-51,-1.232729999750867,0.002024105024920971,-1.584065570530486e-51,-0.058109602652791296,0,70,255.0,255.0,255.0
377,18.85,13.60935124823353,-2.678695121028048e-52,-13.572673859821629,0.017602972551188378,-2.2916483930848828e-51,-1.2356612752796992,0.0013812029032034918,2.6390934817648226e-50,-0.05914141850049613,0,70,255.0,255.0,255.0
378,18.900000000000002,13.610232855488835,-3.378070130732478e-52,-13.63453128028201,0.01765596014330562,-2.7272664249797555e-52,-1.2386441416009168,0.0007383007814860125,5.436593520582694e-50,-0.06017323434820097,0,70,255.0,255.0,255.0
379,18.95,13.611116308496092,-2.71829676029131e-52,-13.696539133828256,0.017676802629336984,3.144945127497596e-51,-1.2416785987145191,9.539865976857876e-05,8.2340935594003655e-50,-0.061205050195905726,0,70,255.0,255.0,255.0
380,19.0,13.612,0.0,-13.7587,0.017665500009282475,7.961366916902314e-51,-1.244764646620507,-0.0005475034619489005,1.1031593598218233e-49,-0.062236866043608785,0,70,255.0,255.0,255.0
381,19.05,13.612882596496982,4.9246154799350114e-52,-13.821014939903828,0.01763847738700056,1.0867060646250422e-50,-1.2478111793375726,-0.0005334014293276899,5.911813191740334e-51,-0.0596244426390221,0,70,255.0,255.0,255.0
382,19.1,13.613763859490394,9.997026289663535e-52,-13.883478940914255,0.017612159866349706,8.552548236076354e-51,-1.2507270908844093,-0.0005192993967064793,-9.849230959870166e-50,-0.05701201923443541,0,70,255.0,255.0,255.0
383,19.150000000000002,13.61464382423531,1.2607129359424448e-51,-13.946085471972767,0.01758654744732991,1.0178296863801173e-51,-1.2535123812610163,-0.0005051973640852685,-2.0289643238914364e-49,-0.054399595829848726,0,70,255.0,255.0,255.0
384,19.200000000000003,13.61552252598682,1.0144821619456618e-51,-14.008828002020854,0.017561640129941176,-1.17370950028383e-50,-1.2561670504673943,-0.0004910953314640579,-3.0730055517958565e-49,-0.05178717242526204,0,70,255.0,255.0,255.0
385,19.25,13.6164,0.0,-14.0717,0.017537437914183506,-2.971222583157742e-50,-1.2586910985035427,-0.00047699329884279273,-4.117046779700203e-49,-0.049174749020680864,0,70,255.0,255.0,255.0
386,19.3,13.617276520026582,-1.8378915178857653e-51,-14.134696747477191,0.01752825059902133,-4.055642246073886e-50,-1.2611932828988415,0.00010950069235570457,-2.206318719643102e-50,-0.050912626791268095,0,70,255.0,255.0,255.0
387,19.35,13.618153313804894,-3.73094100376261e-51,-14.197820776521361,0.017548387983419074,-3.1918544551220557e-50,-1.2637823611826695,0.0006959946835542019,3.675783035771583e-49,-0.05265050456185532,0,70,255.0,255.0,255.0
388,19.400000000000002,13.619031847569918,-4.7050447306965323e-51,-14.261076431826936,0.017597850067376748,-3.798592103022504e-51,-1.266458333355027,0.0012824886747526993,7.572197943507477e-49,-0.05438838233244255,0,70,255.0,255.0,255.0
389,19.450000000000003,13.619913587556626,-3.7860989717535304e-51,-14.32446805808834,0.01767663685089435,4.38034348838553e-50,-1.269221199415914,0.0018689826659511965,1.146861285124337e-48,-0.056126260103029776,0,70,255.0,255.0,255.0
390,19.5,13.6208,0.0,-14.388,0.017784748333971864,1.1088753640940738e-49,-1.27207095936533,0.0024554766571495412,1.5365027758978987e-48,-0.05786413787361511,0,70,255.0,255.0,255.0
391,19.55,13.621692123396686,6.85910452354956e-51,-14.45167487018741,0.01789652021689556,1.5135862919670501e-49,-1.2749036890670675,0.002015398659798139,8.234093559398334e-50,-0.055445050195880405,0,70,255.0,255.0,255.0
392,19.6,13.622589285290024,1.3924061386084087e-50,-14.515488353000311,0.01798628819995168,1.1912162996880583e-49,-1.2776154643849182,0.001575320662446737,-1.371820904709932e-48,-0.0530259625181457,0,70,255.0,255.0,255.0
393,19.650000000000002,13.623490385485018,1.7559465986843683e-50,-14.579434400719506,0.018054052283140234,1.4176538725709852e-50,-1.2802062853188823,0.0011352426650953352,-2.825982745013847e-48,-0.05060687484041101,0,70,255.0,255.0,255.0
394,19.700000000000003,13.624394323786673,1.4129913725068465e-50,-14.643506965625802,0.018099812466461217,-1.6347664453258291e-49,-1.2826761518689593,0.0006951646677439331,-4.2801445853177626e-48,-0.048187787162676306,0,70,255.0,255.0,255.0
395,19.75,13.6253,0.0,-14.7077,0.018123568749914627,-4.138379198060521e-49,-1.2850250640351497,0.0002550866703925625,-5.734306425621574e-48,-0.04576869948494178,0,70,255.0,255.0,255.0
396,19.8,13.626206186386668,-2.5598526576312475e-50,-14.772008571773174,0.018117668533388694,-5.6487809432608114e-49,-1.2873199608329045,-0.0004910953314299189,-3.0730055517950182e-49,-0.04602717242524506,0,70,255.0,255.0,255.0
397,19.85,13.627111145035002,-5.196530454057373e-50,-14.83643221147741,0.018074459216771636,-4.445679753240027e-49,-1.2896277812776744,-0.0012372773332524002,5.1197053152625707e-48,-0.04628564536554834,0,70,255.0,255.0,255.0
398,19.900000000000002,13.628013010490008,-6.55328192166782e-50,-14.900971565295059,0.017993940800063453,-5.290756279981683e-50,-1.2919485253694594,-0.0019834593350748814,1.0546711185704641e-47,-0.046544118305851624,0,70,255.0,255.0,255.0
399,19.950000000000003,13.628909917296674,-5.273355592852031e-50,-14.965627279408475,0.01787611328326414,6.101031432464767e-49,-1.2942821931082595,-0.002729641336897363,1.5973717056146716e-47,-0.046802591246154907,0,70,255.0,255.0,255.0
400,20.0,13.6298,0.0,-15.0304,0.017720976666373723,1.544464142814801e-48,-1.2966287844940747,-0.003475823338719791,2.14007229265884e-47,-0.047061064186454615,0,70,255.0,255.0,255.0
401,20.05,13.630682331056647,9.553500178170037e-50,-15.095290042719904,0.017584805649553874,2.1081537481076197e-48,-1.2989684676013116,-0.001971017334074016,1.1468612851240261e-48,-0.04652626010301687,0,70,255.0,255.0,255.0
402,20.1,13.63155973456996,1.9393715677621086e-49,-15.160296401090063,0.017523874932966317,1.659150271327205e-48,-1.3012814105043764,-0.0004662113294282414,-1.910700035634035e-47,-0.04599145601957913,0,70,255.0,255.0,255.0
403,20.150000000000002,13.632435972554946,2.4457181087986908e-49,-15.225417738100273,0.01753818451661105,1.9745371247355754e-49,-1.3035676132032696,0.0010385946752175333,-3.936086199780472e-47,-0.04545665193614139,0,70,255.0,255.0,255.0
404,20.200000000000003,13.633314807026624,1.9680430998901285e-49,-15.290652716740322,0.017627734400488072,-2.2769359284533227e-48,-1.3058270756979906,0.0025434006798633084,-5.96147236392691e-47,-0.044921847852703645,0,70,255.0,255.0,255.0
405,20.25,13.6342,0.0,-15.356,0.017792524584597375,-5.764018651453152e-48,-1.3080597979885398,0.004048206684509004,-7.9868585280732e-47,-0.044387043769265944,0,70,255.0,255.0,255.0
406,20.3,13.635094089386746,-3.565414805504889e-49,-15.421458457347219,0.01795910886840359,-7.867736898104398e-48,-1.3102781687618394,0.0026151646677394576,-4.280144585316597e-48,-0.04434778716272021,0,70,255.0,255.0,255.0
407,20.35,13.63599471668516,-7.237833225642695e-49,-15.487027784162347,0.018054041051371324,-6.192033109984818e-48,-1.312494576704812,0.0011821226509699115,7.130829611009881e-47,-0.04430853055617447,0,70,255.0,255.0,255.0
408,20.400000000000002,13.6368982992902,-9.127544243027984e-49,-15.552707882303864,0.018077321133500582,-7.369072870944136e-49,-1.3147090218174569,-0.00025091936579963413,1.468967368055142e-46,-0.04426927394962874,0,70,255.0,255.0,255.0
409,20.450000000000003,13.637801254596829,-7.344836840275307e-49,-15.618498653630255,0.01802894911479136,8.497640570566813e-48,-1.3169215040997748,-0.0016839613825691806,2.224851775009296e-46,-0.044230017343083,0,70,255.0,255.0,255.0
410,20.5,13.6387,0.0,-15.6844,0.017908924995243672,2.1511610462997805e-47,-1.3191320235517654,-0.0031170033993386803,2.980736181963397e-46,-0.0441907607365426,0,70,255.0,255.0,255.0
411,20.55,13.639591711396372,1.330630920420255e-48,-15.750411327891223,0.01776275887683777,2.936279384430997e-47,-1.3213108573513324,-0.0027296413368973426,1.5973717056142435e-47,-0.04296259124612936,0,70,255.0,255.0,255.0
412,20.6,13.640476598689403,2.701196133480868e-48,-15.81653006226056,0.017635960861553935,2.3108982168612065e-47,-1.3234282826763784,-0.002342279274456005,-2.6612618408405485e-46,-0.04173442175571612,0,70,255.0,255.0,255.0
413,20.650000000000002,13.641355630284247,3.406445886331325e-48,-15.882753132684288,0.017528530949392166,2.7501754359041055e-48,-1.3254842995269038,-0.0019549172120146676,-5.482260852242522e-46,-0.04050625226530288,0,70,255.0,255.0,255.0
414,20.700000000000003,13.642229774586061,2.74113042612111e-48,-15.949077468738677,0.017440469140352462,-3.1713626353813937e-47,-1.3274789079029088,-0.0015675551495733298,-8.303259863644495e-46,-0.039278082774889644,0,70,255.0,255.0,255.0
415,20.75,13.6431,0.0,-16.0155,0.017371775434434834,-8.028242320053807e-47,-1.3294121078043926,-0.0011801930871320754,-1.1124258875046265e-45,-0.03804991328447471,0,70,255.0,255.0,255.0
416,20.8,13.643967065027766,-4.965982201130532e-48,-16.082017831087896,0.017309855624252482,-1.0958343847913548e-46,-1.3312944018328225,-0.0012965993201619192,-5.96147236392529e-47,-0.037241847852720854,0,70,255.0,255.0,255.0
417,20.85,13.644830888557232,-1.0081001211359201e-47,-16.148628766795422,0.01724211550241864,-8.624389556446343e-47,-1.3331362925896646,-0.001413005553191763,9.931964402261207e-46,-0.036433782420966995,0,70,255.0,255.0,255.0
418,20.900000000000002,13.645691179572813,-1.2713029121022496e-47,-16.215330786959004,0.017168555068933306,-1.0263794456521974e-47,-1.3349377800749191,-0.0015294117862216065,2.0460076040914947e-45,-0.03562571698921314,0,70,255.0,255.0,255.0
419,20.950000000000003,13.646547647058929,-1.0230038020456911e-47,-16.282121871415058,0.017089174323796478,1.1835686484468896e-46,-1.336698864288586,-0.0016458180192514503,3.098818767956868e-45,-0.034817651557459285,0,70,255.0,255.0,255.0
420,21.0,13.6474,0.0,-16.349,0.017003973267008164,2.9961808233915447e-46,-1.3384195452306649,-0.0017622242522813414,4.151629931822167e-45,-0.03400958612570726,0,70,255.0,255.0,255.0
421,21.05,13.648248028492564,1.8533297884101872e-47,-16.4159637477572,0.016917818626137754,4.0897096007223194e-46,-1.3401355353173845,-0.0016839613825350252,2.224851775008698e-46,-0.03463001734307661,0,70,255.0,255.0,255.0
422,21.1,13.649091847081671,3.7622808711955934e-47,-16.483014070557754,0.016835577128754657,3.218666000892417e-46,-1.3418825469649724,-0.001605698512788709,-3.7066595768204273e-45,-0.035250448560445964,0,70,255.0,255.0,255.0
423,21.150000000000002,13.649931651424497,4.744567059775865e-47,-16.550152519479713,0.01675724877485888,3.830500239018386e-47,-1.3436605801734292,-0.001527435643042393,-7.635804331141724e-45,-0.035870879777815314,0,70,255.0,255.0,255.0
424,21.200000000000003,13.650767637178214,3.817902165570653e-47,-16.617380645601113,0.016682833564450418,-4.417138330249417e-46,-1.345469634942754,-0.0014491727732960768,-1.156494908546302e-44,-0.03649131099518467,0,70,255.0,255.0,255.0
425,21.25,13.6516,0.0,-16.6847,0.016612331497529276,-1.1181899061560798e-45,-1.3473097112729477,-0.0013709099035498218,-1.5494093839784039e-44,-0.0371117422125522,0,70,255.0,255.0,255.0
426,21.3,13.652428821001978,-6.9167209335276955e-47,-16.752111177883314,0.016538869871201196,-1.5263004018097922e-45,-1.349123456897634,-0.001567555149573388,-8.30325986364222e-46,-0.03543808277489473,0,70,255.0,255.0,255.0
427,21.35,13.65325372311608,-1.4041023363646452e-46,-16.81961095097357,0.016455575982571934,-1.2012225047925031e-45,-1.3508535195504372,-0.0017642003955969543,1.3833441867055595e-44,-0.033764423337237254,0,70,255.0,255.0,255.0
428,21.400000000000002,13.654074214729198,-1.7706965327001213e-46,-16.887195135122163,0.016362449831641496,-1.4295621510421327e-46,-1.3524998992313577,-0.0019608456416205207,2.849720972047541e-44,-0.03209076389957978,0,70,255.0,255.0,255.0
429,21.450000000000003,13.654889804228208,-1.4248604860236914e-46,-16.954859546180504,0.016259491418409877,1.648498467255078e-45,-1.3540625959403951,-0.002157490887644087,4.316097757389523e-44,-0.030417104461922313,0,70,255.0,255.0,255.0
430,21.5,13.6557,0.0,-17.0226,0.016146700742877093,4.173141542285165e-45,-1.3555416096775499,-0.002354136133667639,5.7824745427314e-44,-0.028743445024264958,0,70,255.0,255.0,255.0
431,21.55,13.656504687499526,2.5813553945700595e-46,-17.090413140709547,0.016046701889054115,5.696230647166937e-45,-1.3569866370920933,-0.001645818019251445,3.098818767956042e-45,-0.029057651557472756,0,70,255.0,255.0,255.0
432,21.6,13.657305260454,5.240181258339023e-46,-17.15829892554799,0.015982118940951945,4.483023419080773e-45,-1.3584473748332972,-0.0009374999048352504,-5.162710789140192e-44,-0.029371858090680558,0,70,255.0,255.0,255.0
433,21.650000000000002,13.658103489658716,6.6083294248229006e-46,-17.226258140031657,0.01595295189857059,5.335198580266705e-46,-1.3599238229011614,-0.0002291817904190559,-1.0635303455075989e-43,-0.029686064623888356,0,70,255.0,255.0,255.0
434,21.700000000000003,13.658901145908953,5.3176517275377046e-46,-17.294291569676886,0.015959200761910042,-6.152280035995366e-45,-1.361415981295686,0.0004791363239971384,-1.6107896121011784e-43,-0.030000271157096154,0,70,255.0,255.0,255.0
435,21.75,13.6597,0.0,-17.3624,0.016000865530970295,-1.5574376262984578e-44,-1.362923850016871,0.001187454438413199,-2.1580488786947196e-43,-0.030314477690307484,0,70,255.0,255.0,255.0
436,21.8,13.660501228999927,-9.633749484927468e-46,-17.430583459278502,0.01604232257259811,-2.1258622186857957e-44,-1.3644019947340071,0.000470827226699395,-1.156494908545991e-44,-0.028811310995136074,0,70,255.0,255.0,255.0
437,21.85,13.661303635067917,-1.9556622696991443e-45,-17.49883894683449,0.016047948253640233,-1.6730871171530585e-44,-1.3658049811163846,-0.0002457999850144091,1.9267498969855214e-43,-0.027308144299964667,0,70,255.0,255.0,255.0
438,21.900000000000002,13.662105426635947,-2.4662621166591483e-45,-17.56716270475123,0.016017742574096668,-1.9911232170024736e-45,-1.3671328091640036,-0.0009624271967282132,3.969149284825642e-43,-0.025804977604793257,0,70,255.0,255.0,255.0
439,21.950000000000003,13.662904812135984,-1.9845746424127118e-45,-17.635550975111983,0.015951705533967412,2.29606216767264e-44,-1.368385478876864,-0.0016790544084420173,6.0115486726657625e-43,-0.02430181090962185,0,70,255.0,255.0,255.0
440,22.0,13.6637,0.0,-17.704,0.015849837133252477,5.812436350965315e-44,-1.3695629902549658,-0.002395681620155743,8.053948060505738e-43,-0.022798644214443442,0,70,255.0,255.0,255.0
441,22.05,13.664489596500776,3.5953642545139815e-45,-17.772506622176454,0.01573600782055663,7.933825810026489e-44,-1.3707013839718754,-0.0021574908876781673,4.3160977573883543e-44,-0.02273710446193675,0,70,255.0,255.0,255.0
442,22.1,13.665273799274335,7.298630952962675e-45,-17.841070087114062,0.015634088044484656,6.244046126704158e-44,-1.3718367007011594,-0.0019193001552005916,-7.190728509028067e-43,-0.022675564709430062,0,70,255.0,255.0,255.0
443,22.150000000000002,13.666053203797503,9.204215524154303e-45,-17.909690240963446,0.015544077805036565,7.430973009983199e-45,-1.3729689404428183,-0.001681109422723016,-1.4813066793794967e-42,-0.02261402495692337,0,70,255.0,255.0,255.0
444,22.200000000000003,13.666828405547113,7.406533396897077e-45,-17.97836692987522,0.015465977102212352,-8.56902066709102e-44,-1.3740981031968518,-0.0014429186902454403,-2.2435405078561872e-42,-0.02255248520441668,0,70,255.0,255.0,255.0
445,22.25,13.6676,0.0,-18.0471,0.015399785936012024,-2.16923077775628e-43,-1.3752241889632597,-0.001204727957767937,-3.005774336332823e-42,-0.022490945451904665,0,70,255.0,255.0,255.0
446,22.3,13.66836838499697,-1.3418082069563177e-44,-18.115889252015688,0.015333646145168715,-2.960944102142016e-43,-1.3763444693784852,-0.0014408636759644022,-1.6107896121007442e-43,-0.02232027115711581,0,70,255.0,255.0,255.0
447,22.35,13.669133167834751,-2.7238861542151553e-44,-18.18473430470927,0.015255699568415581,-2.3303097389663566e-43,-1.3774562160789714,-0.0016769993941608673,2.6836164139126742e-42,-0.022149596862326953,0,70,255.0,255.0,255.0
448,22.400000000000002,13.669893758174046,-3.4350599979958053e-44,-18.25363473139501,0.015165946205752626,-2.773276882293031e-44,-1.3785594290647178,-0.0019131351123573327,5.5283117890354224e-42,-0.021978922567538098,0,70,255.0,255.0,255.0
449,22.450000000000003,13.670649565675562,-2.764155894517559e-44,-18.322590105387167,0.015064386057179847,3.198002050069146e-43,-1.3796541083357252,-0.0021492708305537976,8.373007164158171e-42,-0.021808248272749242,0,70,255.0,255.0,255.0
450,22.5,13.6714,0.0,-18.3916,0.014951019122697253,8.095679475928589e-43,-1.380740253891993,-0.00238540654875026,1.1217702539280716e-41,-0.02163757397795507,0,70,255.0,255.0,255.0
451,22.55,13.67214486351134,5.007696402373873e-44,-18.460663569760793,0.014849407598767447,1.1050393827565413e-42,-1.3817927385141826,-0.0016790544084419419,6.011548672664132e-43,-0.020461810909625892,0,70,255.0,255.0,255.0
452,22.6,13.67288552938666,1.016568152156435e-43,-18.529778294048864,0.014783113681853055,8.69683434319501e-43,-1.3827864349829557,-0.0009727022681336234,-1.001539280474789e-41,-0.019286047841296717,0,70,255.0,255.0,255.0
453,22.650000000000002,13.67362376350631,1.2819818439567793e-43,-18.598941233456536,0.014752137371954082,1.0350010228173791e-43,-1.3837213432983122,-0.00026635012782530486,-2.0631940476762192e-41,-0.018110284772967538,0,70,255.0,255.0,255.0
454,22.700000000000003,13.67436133175064,1.0315970238380526e-43,-18.668149448576138,0.014756478669070526,-1.1935106133567479e-42,-1.3845974634602525,0.0004400020124830134,-3.1248488148776496e-41,-0.016934521704638363,0,70,255.0,255.0,255.0
455,22.75,13.6751,0.0,-18.7374,0.014796137573202382,-3.0213487125958073e-42,-1.385414795468776,0.0011463541527912957,-4.1865035820790036e-41,-0.015758758636309267,0,70,255.0,255.0,255.0
456,22.8,13.675840960957666,-1.8688977402539172e-43,-18.80669006894114,0.014836723459765918,-4.124063120811963e-42,-1.386180576564793,0.0004770813097500397,-2.2435405078555774e-42,-0.014872485204364226,0,70,255.0,255.0,255.0
457,22.85,13.676583114618609,-3.793883993204225e-43,-18.87601731909529,0.014843845704177386,-3.2457027633813676e-42,-1.3869020439892126,-0.00019219153329121628,3.737795480507888e-41,-0.013986211772419186,0,70,255.0,255.0,255.0
458,22.900000000000002,13.677324787800714,-4.7844213760275364e-43,-18.945379534778873,0.014817504306436795,-3.862676403040209e-43,-1.3875791977420349,-0.0008614643763324723,7.699945011801333e-41,-0.013099938340474144,0,70,255.0,255.0,255.0
459,22.950000000000003,13.678064307321883,-3.849972505900454e-43,-19.014774500308302,0.014757699266544138,4.454242248420076e-42,-1.38821203782326,-0.0015307372193737283,1.166209454309478e-40,-0.012213664908529103,0,70,255.0,255.0,255.0
460,23.0,13.6788,0.0,-19.0842,0.014664430584499429,1.1275826902790369e-41,-1.388800564232888,-0.0022000100624149505,1.5624244074387945e-40,-0.011327391476578796,0,70,255.0,255.0,255.0
461,23.05,13.679530492657994,6.974821320778281e-43,-19.153654554474656,0.014555698562174356,1.539121310049131e-41,-1.3893889552266216,-0.0021492708305879036,8.373007164155903e-42,-0.012208248272767376,0,70,255.0,255.0,255.0
462,23.1,13.680255612138911,1.4158967820660464e-42,-19.223139629569992,0.014449503501440636,1.2113127619205968e-41,-1.3900213890601647,-0.0020985315987608567,-1.3949642641556764e-40,-0.013089105068955956,0,70,255.0,255.0,255.0
463,23.150000000000002,13.680975485290832,1.7855703660153366e-42,-19.292657427428008,0.014345845402298267,1.441570458934344e-42,-1.3906978657335172,-0.00204779236693381,-2.8736585999529123e-40,-0.013969961865144535,0,70,255.0,255.0,255.0
464,23.200000000000003,13.681690238961835,1.4368292999763767e-42,-19.362210150190677,0.014244724264747252,-1.662345838032356e-41,-1.3914183852466793,-0.0019970531351067634,-4.352352935750147e-40,-0.014850818661333115,0,70,255.0,255.0,255.0
465,23.25,13.6824,0.0,-19.4318,0.014146140088787597,-4.208195889856567e-41,-1.3921829475996506,-0.0019463139032797339,-5.831047271547277e-40,-0.01573167545751808,0,70,255.0,255.0,255.0
466,23.3,13.68310506841036,-2.6030387542859206e-42,-19.50142771316024,0.014060482291518642,-5.744078928115328e-41,-1.3929036025287065,-0.0014799979874784365,-3.124848814876806e-41,-0.013094521704715197,0,70,255.0,255.0,255.0
467,23.35,13.683806436825748,-5.284198728943764e-42,-19.571088162624743,0.013998140290039752,-4.520680771344252e-41,-1.393492399770122,-0.001013682071677139,5.206077508571916e-40,-0.010457367951912313,0,70,255.0,255.0,255.0
468,23.400000000000002,13.68450527103596,-6.663839326458591e-42,-19.640774755509128,0.013959114084350925,-5.3800141954333636e-42,-1.3939493393238978,-0.0005473661558758414,1.0724639898631515e-39,-0.007820214199109431,0,70,255.0,255.0,255.0
469,23.450000000000003,13.68520273683078,-5.362319949315462e-42,-19.710480898929006,0.013943403674452166,6.203959127287414e-41,-1.394274421190033,-8.105024007454406e-05,1.624320228869111e-39,-0.005183060446306547,0,70,255.0,255.0,255.0
470,23.5,13.6859,0.0,-19.7802,0.01395100906034347,1.570520086914723e-40,-1.3944676453685283,0.0003852656757267203,2.1761764678750315e-39,-0.002545906693503852,0,70,255.0,255.0,255.0
471,23.55,13.686598033700573,9.714672885065854e-42,-19.849927392884386,0.013970372271752185,2.143719440241218e-40,-1.394644634658578,0.0003892627806218408,1.1662094543091637e-40,-0.0045336649084785135,0,70,255.0,255.0,255.0
472,23.6,13.687297040558096,1.9720898133709008e-41,-19.91966611993104,0.013989935338405656,1.6871410323456412e-40,-1.394921011859376,0.0003932598855169612,-1.9429345770131987e-39,-0.006521423123453175,0,70,255.0,255.0,255.0
473,23.650000000000002,13.687997030565334,2.4869786939819025e-41,-19.989421150535502,0.01400969826030388,2.007848632279911e-41,-1.3952967769709232,0.0003972569904120817,-4.002490099457314e-39,-0.008509181338427835,0,70,255.0,255.0,255.0
474,23.700000000000003,13.688698013715047,2.0012450497285473e-41,-20.05919745409331,0.014029661037446864,-2.3153490671117304e-40,-1.395771929993219,0.00040125409530720216,-6.062045621901429e-39,-0.010496939553402498,0,70,255.0,255.0,255.0
475,23.75,13.6894,0.0,-20.129,0.0140498236698346,-5.8612607586732354e-40,-1.3963464709262634,0.00040525120020223904,-8.121601144345399e-39,-0.012484697768377018,0,70,255.0,255.0,255.0
476,23.8,13.690102796787352,-3.6255652785977496e-41,-20.19883151530223,0.014058028621461875,-8.00046986815334e-40,-1.3968858588370048,-7.705313511127817e-05,-4.352352935748972e-40,-0.009090818661276808,0,70,255.0,255.0,255.0
477,23.85,13.690805400941866,-7.359939380589228e-41,-20.268685757651113,0.014042118356323472,-6.2964960522481385e-40,-1.397255552792391,-0.0005593574704247954,7.251130557195605e-39,-0.005696939554176598,0,70,255.0,255.0,255.0
478,23.900000000000002,13.691506606702704,-9.281530843281753e-41,-20.33855424234888,0.014002092874419395,-7.493393109576296e-41,-1.3974555527924226,-0.0010416618057383126,1.4937496407966105e-38,-0.002303060447076387,0,70,255.0,255.0,255.0
479,23.950000000000003,13.692205208309028,-7.46874820398264e-41,-20.40842848469777,0.013937952175749639,8.64100035571818e-40,-1.3974858588370986,-0.0015239661410518298,2.2623862258736608e-38,0.0010908186600238224,0,70,255.0,255.0,255.0
480,24.0,13.6929,0.0,-20.4783,0.013849696260314216,2.187452294777822e-39,-1.39734647092642,-0.0020062704763653683,3.031022810950656e-38,0.004484697767123791,0,70,255.0,255.0,255.0
481,24.05,13.693589979150019,1.3530793825884415e-40,-20.548162545906706,0.013749513242404181,2.985816003237214e-39,-1.3971719299934002,-0.0020010502400359953,1.6243202288686695e-39,0.002496939553675375,0,70,255.0,255.0,255.0
482,24.1,13.694274955674437,2.7467667708986e-40,-20.61801884946452,0.013649591236310614,2.349884317664691e-39,-1.3970967769710525,-0.0019958300037066223,-2.706158765176922e-38,0.0005091813402269595,0,70,255.0,255.0,255.0
483,24.150000000000002,13.694954942623847,3.4639144679145107e-40,-20.687873880068988,0.013549930242033515,2.7965723806025427e-40,-1.3971210118593775,-0.001990609767377249,-5.57474955324071e-38,-0.0014785768732214558,0,70,255.0,255.0,255.0
484,24.200000000000003,13.695629953048838,2.787374776620202e-40,-20.75773260711564,0.013450530259572886,-3.224865235576099e-39,-1.3972446346583747,-0.001985389531047876,-8.4433403413045e-38,-0.003466335086669872,0,70,255.0,255.0,255.0
485,24.25,13.6963,0.0,-20.8276,0.013351391288928734,-8.163683103243964e-39,-1.3974676453680444,-0.0019801692947184896,-1.1311931129368082e-37,-0.005454093300114593,0,70,255.0,255.0,255.0
486,24.3,13.696965286612576,-5.049761002493991e-40,-20.89747910107097,0.013263918408941856,-1.1143217026133521e-38,-1.3976744211893828,-0.001518745904756554,-6.062045621899766e-39,-0.0028169395534188247,0,70,255.0,255.0,255.0
487,24.35,13.697626776360387,-1.025107314553548e-39,-20.967365244490818,0.013199516698453076,-8.76988766543395e-39,-1.3977493393233862,-0.0010573225147946183,1.0099522004988129e-37,-0.00017978580672305643,0,70,255.0,255.0,255.0
488,24.400000000000002,13.698285622801912,-1.2927504787329866e-39,-21.037251837375187,0.013158186157462394,-1.0436950211452492e-39,-1.397692399770055,-0.0005958991248326826,2.080524857216623e-37,0.002457367939972711,0,70,255.0,255.0,255.0
489,24.450000000000003,13.698942979495623,-1.0402624286082541e-39,-21.107132286839704,0.013139926785969808,1.2035360906732585e-38,-1.397503602529389,-0.00013447573487074694,3.151097513934434e-37,0.00509452168666848,0,70,255.0,255.0,255.0
490,24.5,13.6996,0.0,-21.177,0.013144738583975317,3.046728011819803e-38,-1.397182947601388,0.00032694765509110046,4.221670170652167e-37,0.007731675433372942,0,70,255.0,255.0,255.0
491,24.55,13.700257674399685,1.884596462738752e-39,-21.246849849809436,0.013162813121826187,4.158705210129687e-38,-1.3968183852490534,0.00039603385894367666,2.2623862258730485e-38,0.0068508186600119685,0,70,255.0,255.0,255.0
492,24.6,13.700916338884019,3.825752581124332e-39,-21.316682572572216,0.013184341969869685,3.272966634407111e-38,-1.3964978657353868,0.0004651200627962529,-3.7691929254775576e-37,0.005969961886650996,0,70,255.0,255.0,255.0
493,24.650000000000002,13.70157616616851,4.8246104681404956e-39,-21.386500370430284,0.013209325128105813,3.895122846520744e-39,-1.3962213890603883,0.0005342062666488292,-7.764624473542421e-37,0.005089105113290022,0,70,255.0,255.0,255.0
494,24.700000000000003,13.702237328968666,3.882312236770997e-39,-21.45630544552557,0.01323776259653457,-4.4916578391354203e-38,-1.3959889552240576,0.0006032924705014054,-1.1760056021607282e-36,0.00420824833992905,0,70,255.0,255.0,255.0
495,24.75,13.7029,0.0,-21.5261,0.013269654375155954,-1.1370543736954815e-37,-1.395800564226395,0.0006723786743539351,-1.575548756967186e-36,0.0033273915665734677,0,70,255.0,255.0,255.0
496,24.8,13.703564015788682,-7.033409750705608e-39,-21.595885499691303,0.013284829103740198,-1.5520499137905393e-37,-1.395612037814398,-6.538953098414956e-05,-8.443340341302196e-38,0.004213664913313066,0,70,255.0,255.0,255.0
497,24.85,13.704227868103535,-1.4277903009943778e-38,-21.665660465220316,0.013263115422057539,-1.2214877771085045e-37,-1.3953791977350638,-0.0008031577363222342,1.4066819501411419e-36,0.005099938260052664,0,70,255.0,255.0,255.0
498,24.900000000000002,13.70488971252405,-1.8005691393828989e-38,-21.73542268090369,0.013204513330107973,-1.4536796364937726e-38,-1.3951020439883928,-0.0015409259416603186,2.897797303695306e-36,0.005986211606792262,0,70,255.0,255.0,255.0
499,24.950000000000003,13.705547704629709,-1.4488986518475733e-38,-21.80516993105804,0.013109022827891505,1.6763095265868433e-37,-1.3947805765743846,-0.0022786941469984034,4.3889126572494697e-36,0.006872484953531861,0,70,255.0,255.0,255.0
500,25.0,13.7062,0.0,-21.8749,0.012976643915408141,4.243544693599945e-37,-1.3944147954930393,-0.003016462352336491,5.880028010803528e-36,0.007758758300276725,0,70,255.0,255.0,255.0
501,25.05,13.706845462445587,2.624904254008368e-38,-21.944610551425367,0.012849870463227216,5.792329134149189e-37,-1.393997463493364,-0.002054475734900427,3.1510975139335845e-37,0.008934521686732227,0,70,255.0,255.0,255.0
502,25.1,13.707485788701836,5.328585945865078e-38,-22.014298766546517,0.012771196341918097,4.558654444993308e-37,-1.393521343324366,-0.001092489117464363,-5.2498085080168114e-36,0.01011028507318773,0,70,255.0,255.0,255.0
503,25.150000000000002,13.708123383735296,6.719815510717546e-38,-22.08396170595498,0.012740621551480778,5.425206261323027e-38,-1.3929864349860452,-0.00013050250002829894,-1.081472676742698e-35,0.011286048459643233,0,70,255.0,255.0,255.0
504,25.200000000000003,13.7087606525125,5.40736338371319e-38,-22.153596430242303,0.012758146091915265,-6.256072322433827e-37,-1.3923927384784016,0.0008314841174077649,-1.637964502683715e-35,0.012461811846098736,0,70,255.0,255.0,255.0
505,25.25,13.7094,0.0,-22.2232,0.012823769963221548,-1.58371244007043e-36,-1.3917402538014354,0.001793470734843719,-2.1944563286246925e-35,0.013637575232561261,0,70,255.0,255.0,255.0
506,25.3,13.71004293442897,-9.79627604096291e-38,-22.292769894607233,0.012883689043354324,-2.1617266622806215e-36,-1.3910541082121235,0.0006032924704672728,-1.1760056021604129e-36,0.013808248339911702,0,70,255.0,255.0,255.0
507,25.35,13.710687377089116,-1.9886553482465932e-37,-22.362305268593623,0.012884099210268276,-1.7013130002864734e-36,-1.3903594289674441,-0.0005868857939091733,1.95925520819261e-35,0.013978921447262142,0,70,255.0,255.0,255.0
508,25.400000000000002,13.711330352534777,-2.5078692903487286e-37,-22.431805695276395,0.012825000463963405,-2.0247145408798338e-37,-1.3896562160673973,-0.001777064058285619,4.0361109766012616e-35,0.014149594554612585,0,70,255.0,255.0,255.0
509,25.450000000000003,13.71196888532029,-2.0180554883005203e-37,-22.50127074797277,0.012706392804439713,2.3347979763148455e-36,-1.388944469511983,-0.0029672423226620656,6.112966745009912e-35,0.014320267661963025,0,70,255.0,255.0,255.0
510,25.5,13.7126,0.0,-22.5707,0.012528276231697208,5.9104952909217256e-36,-1.388224189301201,-0.004157420587038496,8.189822513418418e-35,0.014490940769309901,0,70,255.0,255.0,255.0
511,25.55,13.713221999838535,3.6560199909843273e-37,-22.640093070145692,0.012367373363347138,8.067673735707567e-36,-1.387498103658132,-0.002278694146964262,4.3889126572482816e-36,0.014552484953446056,0,70,255.0,255.0,255.0
512,25.6,13.713838302941701,7.421762798399865e-37,-22.709449759078993,0.012300406817000778,6.34938655664656e-36,-1.3867689408058566,-0.0003999677068900276,-7.312039981968761e-35,0.014614029137582208,0,70,255.0,255.0,255.0
513,25.650000000000002,13.714453606125602,9.359495610323161e-37,-22.778769912939456,0.012327376592658134,7.55633753738702e-37,-1.386036700744374,0.001478758733184207,-1.5062971229662348e-34,0.014675573321718363,0,70,255.0,255.0,255.0
514,25.700000000000003,13.715072606206334,7.531485614830763e-37,-22.848053377866613,0.012448282690319203,-8.713584673016005e-36,-1.3853013834736845,0.003357485173258441,-2.281390247735594e-34,0.014737117505854517,0,70,255.0,255.0,255.0
515,25.75,13.7157,0.0,-22.9173,0.012663125109983962,-2.2058268723616472e-35,-1.3845629889937885,0.0052362116133325,-3.0564833725048973e-34,0.014798661689987114,0,70,255.0,255.0,255.0
516,25.8,13.716338666216894,-1.3644452359841018e-36,-22.98650902481001,0.012862817503252357,-3.010896828054965e-35,-1.3837854771553832,0.0027514841174031807,-1.6379645026832762e-35,0.0163018118462283,0,70,255.0,255.0,255.0
517,25.85,13.716984211144078,-2.7698395845352865e-36,-23.055677295090412,0.012938273521724284,-2.3696233226299768e-35,-1.3829328078091656,0.000266756621473861,2.728890471968242e-34,0.01780496200246948,0,70,255.0,255.0,255.0
518,25.900000000000002,13.717630422962818,-3.4930113150943906e-36,-23.1248010529658,0.012889493165399744,-2.8200635608668336e-36,-1.3820049809551362,-0.0022179708744554582,5.621577394204811e-34,0.019308112158710665,0,70,255.0,255.0,255.0
519,25.950000000000003,13.718271089854372,-2.810788697102252e-36,-23.193876540560797,0.012716476434278735,3.251954071574917e-35,-1.3810019965932945,-0.004702698370384778,8.514264316441382e-34,0.020811262314951846,0,70,255.0,255.0,255.0
520,26.0,13.7189,0.0,-23.2629,0.012419223328361284,8.232257960354415e-35,-1.379923854723641,-0.007187425866313948,1.1406951238677748e-33,0.022314412471192924,0,70,255.0,255.0,255.0
521,26.05,13.719512935293894,5.092178944837974e-36,-23.331868430614264,0.012117356623636994,1.1236819938649103e-34,-1.3788159877203126,-0.004887242322657529,6.112966745008272e-35,0.022000267661944403,0,70,255.0,255.0,255.0
522,26.1,13.720113652481984,1.0337182058301158e-35,-23.400781860559373,0.011930499096095525,8.84355463485525e-35,-1.3777238279574464,-0.00258705877900111,-1.0184357889676094e-33,0.021686122852695878,0,70,255.0,255.0,255.0
523,26.150000000000002,13.720707902023124,1.3036095699345248e-35,-23.469641075197348,0.011858650745736879,1.0524620489728622e-35,-1.3766473754350428,-0.0002868752353446906,-2.0980012453853018e-33,0.021371978043447357,0,70,255.0,255.0,255.0
524,26.200000000000003,13.721301434376176,1.0490006226925927e-35,-23.538446859890218,0.011901811572561054,-1.2136457818998066e-34,-1.375586630153102,0.0020133083083117287,-3.1775667018029935e-33,0.021057833234198835,0,70,255.0,255.0,255.0
525,26.25,13.7219,0.0,-23.6072,0.012059981576568039,-3.0723204969056016e-34,-1.374541592111623,0.004313491851968013,-4.2571321582206086e-33,0.020743688424953888,0,70,255.0,255.0,255.0
526,26.3,13.722507992607527,-1.9004270543367795e-35,-23.675900452732936,0.0122517560021987,-4.193638292654145e-34,-1.3734625719633549,0.0033574851732583125,-2.281390247734975e-34,0.022417117505768427,0,70,255.0,255.0,255.0
527,26.35,13.723124378927988,-3.8578888648669353e-35,-23.7445448626721,0.012395730093893874,-3.300459521679102e-34,-1.3722998803610462,0.0024014784945486124,3.800854108673614e-33,0.024090546586582964,0,70,255.0,255.0,255.0
528,26.400000000000002,13.723746768944684,-4.865137148228661e-35,-23.813129046244807,0.012491903851653566,-3.9278418398047546e-35,-1.3710535173046967,0.0014454718158389123,7.829847242120725e-33,0.025763975667397503,0,70,255.0,255.0,255.0
529,26.450000000000003,13.72437277264092,-3.9149236210601485e-35,-23.881648819878343,0.012540277275477768,4.5293877204417356e-34,-1.3697234827943063,0.0004894651371292118,1.1858840375567836e-32,0.02743740474821204,0,70,255.0,255.0,255.0
530,26.5,13.725,0.0,-23.9501,0.01254085036536649,1.1466056191586964e-33,-1.3683097768298753,-0.0004665415415803509,1.5887833509014658e-32,0.029110833829035343,0,70,255.0,255.0,255.0
531,26.55,13.725626294275996,7.092490322863319e-35,-24.018479358454005,0.01250761936756714,1.5650871176751666e-33,-1.3668697244262744,-0.0008626983703935887,8.514264316439083e-34,0.028491262315003842,0,70,255.0,255.0,255.0
532,26.6,13.726250431806065,1.4397837253637623e-34,-24.086787488752226,0.01245458052832713,1.2317482623230884e-33,-1.3654606505983748,-0.0012588551992068265,-1.4184980645726842e-32,0.02787169080097234,0,70,255.0,255.0,255.0
533,26.650000000000002,13.726871422198137,1.8156939022980113e-34,-24.155025939823442,0.012381733847646455,1.465890531024614e-34,-1.364082555346177,-0.0016550120280200643,-2.92213877230976e-32,0.02725211928694084,0,70,255.0,255.0,255.0
534,26.700000000000003,13.72748827506014,1.4610693861547992e-34,-24.223196260596442,0.012289079325525122,-1.690390509986713e-33,-1.3627354386696808,-0.002051168856833302,-4.425779480046834e-32,0.02663254777290934,0,70,255.0,255.0,255.0
535,26.75,13.7281,0.0,-24.2913,0.012176616961963134,-4.2791904269442254e-33,-1.3614193005688862,-0.0024473256856464704,-5.929420187783803e-32,0.026012976258877885,0,70,255.0,255.0,255.0
536,26.8,13.728706030288487,-2.64695342371165e-34,-24.359338113451052,0.012069766527529984,-5.840984641435252e-33,-1.3600985303315596,-0.001826691691679438,-3.177566701802129e-33,0.026817833234185084,0,70,255.0,255.0,255.0
537,26.85,13.729307493847747,-5.373346014968356e-34,-24.42730918231901,0.011993947792795187,-4.596947097124443e-33,-1.3587375172454677,-0.0012060576977124056,5.293906847423377e-32,0.027622690209492286,0,70,255.0,255.0,255.0
538,26.900000000000002,13.729905942262763,-6.776261894369179e-34,-24.49521119446145,0.011949160757758743,-5.470777940117999e-34,-1.3573362613106104,-0.0005854237037453732,1.0905570365026965e-31,0.028427547184799486,0,70,255.0,255.0,255.0
539,26.950000000000003,13.730502927118518,-5.452785182513184e-34,-24.563042137735927,0.01193540542242065,6.308623267902678e-33,-1.3558947625269877,3.5210290221659134e-05,1.6517233882630557e-31,0.029232404160106685,0,70,255.0,255.0,255.0
540,27.0,13.7311,0.0,-24.6308,0.011952681786780906,1.5970156088618206e-32,-1.3544130208946,0.0006558442841885642,2.2128897400233744e-31,0.030037261135412052,0,70,255.0,255.0,255.0
541,27.05,13.73169838457005,9.87856466256027e-34,-24.698482587741807,0.011981314522313852,2.1798851448065842e-32,-1.3528801542475075,0.0004894651371292584,1.1858840375564615e-32,0.0312774047482762,0,70,255.0,255.0,255.0
542,27.1,13.732297992802941,2.005360033450966e-33,-24.766086981971743,0.012001628300493833,1.7156040126174682e-32,-1.3512852804197724,0.0003230859900699526,-1.975712932512082e-31,0.03251754836114035,0,70,255.0,255.0,255.0
543,27.150000000000002,13.73289840875081,2.5289353675178702e-33,-24.83361008233077,0.012013623121320849,2.0417221229447287e-33,-1.3496283994113936,0.0001567068430106468,-4.070014268779811e-31,0.033757691974004495,0,70,255.0,255.0,255.0
544,27.200000000000003,13.733499216465786,2.0350071343897935e-33,-24.90104878845987,0.012017298984794898,-2.3544102561624007e-32,-1.3479095112223718,-9.672304048659037e-06,-6.164315605047539e-31,0.03499783558686864,0,70,255.0,255.0,255.0
545,27.25,13.7341,0.0,-24.9684,0.01201265589091598,-5.96014339275286e-32,-1.3461286158527068,-0.0001760514511079947,-8.258616941315119e-31,0.03623797919973981,0,70,255.0,255.0,255.0
546,27.3,13.734700431431314,-3.6867305226529425e-33,-25.03566113558173,0.012004975383217337,-8.13544211508281e-32,-1.3443168526783909,-0.00013116885683772054,-4.425779480045642e-32,0.0362325477728902,0,70,255.0,255.0,255.0
547,27.35,13.735300534940484,-7.484105532307028e-33,-25.10283168979403,0.011999539005232207,-6.40272134075743e-32,-1.3425053610754178,-8.628626256744638e-05,7.3734610453059905e-31,0.03622711634604059,0,70,255.0,255.0,255.0
