idx,t,px,py,pz,vx,vy,vz,ax,ay,az,yaw,mode,ledr,ledg,ledb
0,0.0,-4.5,0.0,0.0,-8.952288221471812e-19,3.4169045310994406e-91,0.019030436778708193,1.0742745865766174e-17,-4.100285437319329e-90,-0.5155652413444983,0,70,255.0,255.0,255.0
1,0.05,-4.5,1.2300856311957985e-92,0.00030909572403349495,-4.118052581877033e-19,1.5717760843057425e-91,-0.006625999081794231,8.594196692612939e-18,-3.2802283498554632e-90,-0.5106921930755987,0,70,255.0,255.0,255.0
2,0.1,-4.5,1.6401141749277314e-92,-0.000658539034622007,-3.5809152885887207e-20,1.3667618124397753e-92,-0.03203878252885167,6.445647519459704e-18,-2.4601712623915975e-90,-0.505819144806699,0,70,255.0,255.0,255.0
3,0.15000000000000002,-4.5,1.4350999030617646e-92,-0.002890721655294257,2.327594937582672e-19,-8.883951780858546e-92,-0.05720791356246414,4.297098346306469e-18,-1.6401141749277314e-90,-0.5009460965377992,0,70,255.0,255.0,255.0
4,0.2,-4.5,8.200570874638647e-93,-0.006375269517311004,3.9390068174475975e-19,-1.5034379936837536e-91,-0.08213339218263159,2.1485491731532336e-18,-8.200570874638657e-91,-0.49607304826889953,0,70,255.0,255.0,255.0
5,0.25,-4.5,0.0,-0.0111,4.476144110735906e-19,-1.7084522655497203e-91,-0.1068152183893541,0.0,0.0,-0.4912000000000001,0,70,255.0,255.0,255.0
6,0.30000000000000004,-4.5,-8.200570874638664e-93,-0.017052730482689002,3.9390068174475966e-19,-1.5034379936837536e-91,-0.13125339218263163,-2.1485491731532366e-18,8.200570874638665e-91,-0.48632695173110047,0,70,255.0,255.0,255.0
7,0.35000000000000003,-4.5,-1.4350999030617653e-92,-0.02422127834470575,2.32759493758267e-19,-8.883951780858539e-92,-0.15544791356246415,-4.297098346306471e-18,1.640114174927732e-90,-0.48145390346220085,0,70,255.0,255.0,255.0
8,0.4,-4.5,-1.6401141749277317e-92,-0.032593460965378,-3.58091528858873e-20,1.3667618124397834e-92,-0.1793987825288517,-6.445647519459705e-18,2.4601712623915975e-90,-0.4765808551933012,0,70,255.0,255.0,255.0
9,0.45,-4.5,-1.2300856311957982e-92,-0.042157095724033505,-4.118052581877035e-19,1.5717760843057436e-91,-0.20310599908179428,-8.59419669261294e-18,3.2802283498554632e-90,-0.47170780692440156,0,70,255.0,255.0,255.0
10,0.5,-4.5,0.0,-0.0529,-8.952288221471812e-19,3.4169045310994406e-91,-0.22656956322129185,-1.0742745865766175e-17,4.10028543731933e-90,-0.4668347586555024,0,70,255.0,255.0,255.0
11,0.55,-4.5,2.0501427186596663e-92,-0.06480937379327753,-1.1637974687913356e-18,4.441975890429274e-91,-0.24975243218767942,9.244463733058732e-33,-2.6160905257010078e-105,-0.4604799999999999,0,70,255.0,255.0,255.0
12,0.6000000000000001,-4.5,4.100285437319332e-92,-0.07786994758655505,-8.952288221471803e-19,3.416904531099438e-91,-0.2726175632212919,1.0742745865766194e-17,-4.100285437319335e-90,-0.45412524134449744,0,70,255.0,255.0,255.0
13,0.65,-4.5,5.125356796649162e-92,-0.09206583448319379,-8.952288221471768e-20,3.416904531099431e-92,-0.2951649563221292,2.1485491731532354e-17,-8.20057087463866e-90,-0.44777048268899494,0,70,255.0,255.0,255.0
14,0.7000000000000001,-4.5,4.1002854373193244e-92,-0.10738114758655504,1.253320351006056e-18,-4.7836663435392235e-91,-0.3173946114901913,3.222823759729854e-17,-1.2300856311957993e-89,-0.44141572403349244,0,70,255.0,255.0,255.0
15,0.75,-4.5,0.0,-0.1238,3.1333008775151346e-18,-1.1959165858848042e-90,-0.3393065287254784,4.29709834630647e-17,-1.640114174927732e-89,-0.43506096537799177,0,70,255.0,255.0,255.0
16,0.8,-4.5,-7.3805137871748e-92,-0.14130657434420096,4.261289193420583e-18,-1.6264465568033337e-90,-0.36090487906665075,2.1485491731531966e-18,-8.200570874638513e-91,-0.42887304826890027,0,70,255.0,255.0,255.0
17,0.8500000000000001,-4.5,-1.4966041846215563e-91,-0.1598853313090742,3.3481557948304545e-18,-1.2779222946311893e-90,-0.38219383355236847,-3.867388511675831e-17,1.4761027574349617e-89,-0.42268513115980877,0,70,255.0,255.0,255.0
18,0.9,-4.5,-1.886131301166892e-91,-0.1795208011018469,3.9390068174475764e-19,-1.5034379936837454e-91,-0.40317339218263154,-7.949631940666972e-17,3.0342112236163046e-89,-0.41649721405071727,0,70,255.0,255.0,255.0
19,0.9500000000000001,-4.5,-1.5171056118081505e-91,-0.20019751392974644,-4.601476145836519e-18,1.7562889289851158e-90,-0.4238435549574402,-1.2031875369658123e-16,4.592319689797652e-89,-0.41030929694162577,0,70,255.0,255.0,255.0
20,1.0,-4.5,0.0,-0.2219,-1.1637974687913358e-17,4.441975890429273e-90,-0.4442043218767942,-1.611411879864927e-16,6.150428155978995e-89,-0.4041213798325347,0,70,255.0,255.0,255.0
21,1.05,-4.5,2.7471912430039534e-91,-0.24461232882991865,-1.5881359304890998e-17,6.061588638170409e-90,-0.4642280515457176,-8.594196692612836e-18,3.280228349855419e-90,-0.39682780692440206,0,70,255.0,255.0,255.0
22,1.1,-4.5,5.576388194754291e-91,-0.26831672717714833,-1.249739435717464e-17,4.769998725414815e-90,-0.48388710256923445,1.4395279460126702e-16,-5.494382486007911e-89,-0.38953423401626946,0,70,255.0,255.0,255.0
23,1.1500000000000001,-4.5,7.031989525002651e-91,-0.29299496110941875,-1.4860798447642817e-18,5.672061521624932e-91,-0.5031814749473446,2.964997858951469e-16,-1.1316787807001364e-88,-0.3822406611081368,0,70,255.0,255.0,255.0
24,1.2000000000000002,-4.5,5.658393903500664e-91,-0.3186287966944594,1.7152584232340072e-17,-6.546789081586557e-90,-0.5221111686800481,4.4904677718902675e-16,-1.7139193127994816e-88,-0.3749470882000042,0,70,255.0,255.0,255.0
25,1.25,-4.5,0.0,-0.3452,4.34185978741383e-17,-1.657198697583229e-89,-0.5406761837673449,6.01593768482906e-16,-2.296159844898824e-88,-0.36765351529187296,0,70,255.0,255.0,255.0
26,1.3,-4.5,-1.0250713593298333e-90,-0.3726913103361245,5.926414802614342e-17,-2.26199079958783e-89,-0.5589349147504791,3.222823759729806e-17,-1.2300856311957794e-89,-0.362695724033493,0,70,255.0,255.0,255.0
27,1.35,-4.5,-2.080894859439561e-90,-0.40108935998233264,4.664142163386812e-17,-1.7802072607028072e-89,-0.5769457561706943,-5.371372932883099e-16,2.0501427186596682e-88,-0.35773793277511295,0,70,255.0,255.0,255.0
28,1.4000000000000001,-4.5,-2.624182679884371e-90,-0.4303817544604786,5.5504186973123844e-18,-2.1184808092815947e-90,-0.5947087080279905,-1.1065028241739177e-15,4.2232940004389144e-88,-0.352780141516733,0,70,255.0,255.0,255.0
29,1.4500000000000002,-4.5,-2.1116470002194505e-90,-0.4605560992924164,-6.400886078352376e-17,2.4430867397361106e-89,-0.6122237703223675,-1.6758683550595257e-15,6.39644528221816e-88,-0.347822350258353,0,70,255.0,255.0,255.0
30,1.5,-4.5,0.0,-0.4916,-1.6203641680863983e-16,6.184597201289988e-89,-0.6294909430538258,-2.2452338859451308e-15,8.569596563997398e-88,-0.3428645589999775,0,70,255.0,255.0,255.0
31,1.55,-4.5,3.8255663130189376e-90,-0.5235000298255836,-2.2117523279968266e-16,8.44180433453428e-89,-0.646448289452366,-1.203187536965791e-16,4.592319689797587e-89,-0.33542929694162743,0,70,255.0,255.0,255.0
32,1.6,-4.5,7.765940618282816e-90,-0.5562386328935214,-1.740682921782978e-16,6.643829170269748e-89,-0.6630338727479886,2.0045963785519726e-15,-7.651132626037881e-88,-0.3279940348832774,0,70,255.0,255.0,255.0
33,1.6500000000000001,-4.5,9.793531767037218e-90,-0.5897972210486673,-2.071559494448517e-17,7.906717084963901e-90,-0.6792476929406938,4.129511510800524e-15,-1.5761497221055523e-87,-0.32055877282492734,0,70,255.0,255.0,255.0
34,1.7000000000000002,-4.5,7.880748610527735e-90,-0.6241572061358754,2.3888285890175497e-16,-9.117668050785789e-89,-0.6950897500304813,6.254426643049076e-15,-2.387186181607316e-87,-0.3131235107665773,0,70,255.0,255.0,255.0
35,1.75,-4.5,0.0,-0.6593,6.047270693604211e-16,-2.3081190107576723e-88,-0.7105600440173514,8.379341775297616e-15,-3.198222641109076e-87,-0.3056882487082291,0,70,255.0,255.0,255.0
36,1.8,-4.5,-1.4277193892745916e-89,-0.6952077703615411,8.254367831725872e-16,-3.150522653854928e-88,-0.7257039274400572,4.490467771890191e-16,-1.7139193127994484e-88,-0.30006708820000405,0,70,255.0,255.0,255.0
37,1.85,-4.5,-2.8982867613691698e-89,-0.7318657084435822,6.496317470793231e-16,-2.4795109420376173e-88,-0.7405667528373518,-7.481248220919578e-15,2.855438778549186e-87,-0.294445927691779,0,70,255.0,255.0,255.0
38,1.9000000000000001,-4.5,-3.654994438826449e-89,-0.7692597613448529,7.731196108062871e-17,-2.9508387530573912e-89,-0.7551485202092352,-1.5411543219028178e-14,5.882269488378316e-87,-0.288824767183554,0,70,255.0,255.0,255.0
39,1.9500000000000002,-4.5,-2.9411347441891484e-89,-0.8073758761640824,-8.915225748234958e-16,3.402758546340704e-88,-0.7694492295557072,-2.334183821713677e-14,8.909100198207448e-87,-0.28320360667532896,0,70,255.0,255.0,255.0
40,2.0,-4.5,0.0,-0.8462,-2.2568718606330443e-15,8.61401632290169e-88,-0.783468880876768,-3.1272133215245333e-14,1.1935930908036568e-86,-0.2775824461671039,0,70,255.0,255.0,255.0
41,2.0500000000000003,-4.5,5.3283209257965e-89,-0.8857176887282522,-3.080571899890666e-15,1.175791018196629e-87,-0.7971840007874046,-1.675868355059356e-15,6.39644528221756e-88,-0.2710223502583559,0,70,255.0,255.0,255.0
42,2.1,-4.5,1.0816552983648398e-88,-0.9259129333321499,-2.424458696138993e-15,9.253660851123496e-88,-0.8105711159026037,2.7920396505126356e-14,-1.0656641851592956e-86,-0.264462254349608,0,70,255.0,255.0,255.0
43,2.15,-4.5,1.3640624578602076e-88,-0.9667693335719216,-2.8853224937803955e-16,1.101268330373368e-88,-0.8236302262223654,5.751666136531206e-14,-2.1952928231407665e-86,-0.25790215844086006,0,70,255.0,255.0,255.0
44,2.2,-4.500000000000001,1.0976464115703821e-88,-1.0082704892077956,3.3272074403922307e-15,-1.2699267380284238e-87,-0.8363613317466896,8.711292622549805e-14,-3.324921461122248e-86,-0.2513420625321121,0,70,255.0,255.0,255.0
45,2.25,-4.5,0.0,-1.0504,8.422760373171756e-15,-3.214794628084909e-87,-0.8487644324755765,1.1670919108568376e-13,-4.454550099103719e-86,-0.24478196662336593,0,70,255.0,255.0,255.0
46,2.3000000000000003,-4.5,-1.98855643139114e-88,-1.0931414747254513,1.1496850816390078e-14,-4.388111807401022e-87,-0.8608400694103252,6.254426643048496e-15,-2.387186181607095e-87,-0.2382435107665795,0,70,255.0,255.0,255.0
47,2.35,-4.499999999999998,-4.036792517322442e-88,-1.1364785582278185,9.048203037476658e-15,-3.453513246245637e-87,-0.8725887835522346,-1.0420033779958579e-13,3.977112862782263e-86,-0.23170505490979315,0,70,255.0,255.0,255.0
48,2.4000000000000004,-4.499999999999999,-5.090750387558188e-88,-1.1803949043674609,1.0768170364314415e-15,-4.109989446187358e-88,-0.8840105749013045,-2.1465510224222104e-13,8.192944343725273e-86,-0.22516659905300673,0,70,255.0,255.0,255.0
49,2.45,-4.499999999999998,-4.096472171862614e-88,-1.2248741670047352,-1.2417307186745418e-14,4.739431097479624e-87,-0.8951054434575353,-3.2510986668485534e-13,1.2408775824668245e-85,-0.21862814319622037,0,70,255.0,255.0,255.0
50,2.5,-4.5,0.0,-1.2699,-3.143416963205398e-14,1.1997776880049466e-86,-0.9058733892209265,-4.3556463112748953e-13,1.6624607305611216e-85,-0.21208968733943756,0,70,255.0,255.0,255.0
51,2.5500000000000003,-4.500000000000003,7.421393632984909e-88,-1.3154564123699444,-4.2906831365669644e-14,1.637665621140746e-86,-0.9163357215712956,-2.334183821713447e-14,8.909100198206578e-87,-0.20640360667532565,0,70,255.0,255.0,255.0
52,2.6,-4.5000000000000036,1.5065514770924926e-87,-1.3615288337565763,-3.376835345376761e-14,1.2888686899870193e-86,-0.926513749888459,3.8888095469321696e-13,-1.4842787265969758e-85,-0.20071752601121381,0,70,255.0,255.0,255.0
53,2.6500000000000004,-4.500000000000005,1.8998939092372538e-87,-1.4081030489582367,-4.018735896347721e-15,1.5338689454376152e-87,-0.9364074741724171,8.01103747603572e-13,-3.0576484551760313e-85,-0.1950314453471019,0,70,255.0,255.0,255.0
54,2.7,-4.500000000000004,1.5288242275880073e-87,-1.4551648427732644,4.6342021306589456e-14,-1.7687797651890077e-86,-0.9460168944231694,1.2133265405139235e-12,-4.631018183755073e-85,-0.18934536468299007,0,70,255.0,255.0,255.0
55,2.75,-4.5,0.0,-1.5027,1.1731391815504416e-13,-4.4776312892112956e-86,-0.9553420106407159,1.6255493334242748e-12,-6.204387912334114e-85,-0.1836592840188791,0,70,255.0,255.0,255.0
56,2.8000000000000003,-4.499999999999993,-2.7697018100548493e-87,-1.5506936757947736,1.601304746462885e-13,-6.1118513038228814e-86,-0.9643450443044908,8.711292622548978e-14,-3.3249214611219266e-86,-0.1764620625321148,0,70,255.0,255.0,255.0
57,2.85,-4.499999999999986,-5.622526656637727e-87,-1.5991285067458767,1.2602521077759384e-13,-4.810123435323515e-86,-0.9729882168939273,-1.451323480973282e-12,5.539403620109679e-85,-0.16926484104535058,0,70,255.0,255.0,255.0
58,2.9000000000000004,-4.4999999999999805,-7.090500598193198e-87,-1.647986499799594,1.4998126548959528e-14,-5.7244768371317e-87,-0.9812715284090258,-2.9897598881720668e-12,1.14112993863316e-84,-0.16206761955858628,0,70,255.0,255.0,255.0
59,2.95,-4.499999999999985,-5.705649693165767e-87,-1.697249661902207,-1.7295077803961246e-13,6.601175951008069e-86,-0.989194978849786,-4.528196295370839e-12,1.7283195152553472e-84,-0.15487039807182207,0,70,255.0,255.0,255.0
60,3.0,-4.5,0.0,-1.7469,-4.3782150298812267e-13,1.6710747468840236e-85,-0.9967585682162079,-6.06663270256961e-12,2.315509091877534e-84,-0.1476731765850534,0,70,255.0,255.0,255.0
61,3.0500000000000003,-4.5000000000000275,1.0336667876920907e-86,-1.796920084450963,-5.976150672194844e-13,2.2809739594150782e-85,-1.00399610121074,-3.25109866684825e-13,1.240877582466704e-85,-0.14182814319622455,0,70,255.0,255.0,255.0
62,3.1,-4.500000000000054,2.0983555149458418e-86,-1.8472947392599166,-4.703324896566077e-13,1.7951625051307036e-85,-1.0109413825358302,5.41641296919991e-12,-2.067333575384173e-84,-0.13598310980739575,0,70,255.0,255.0,255.0
63,3.1500000000000004,-4.500000000000069,2.6462108483535536e-86,-1.898009351843389,-5.59737702994902e-14,2.136403840308928e-86,-1.0175944121914795,1.1157935805084696e-11,-4.258754909015037e-84,-0.1301380764185669,0,70,255.0,255.0,255.0
64,3.2,-4.500000000000057,2.129377454507507e-86,-1.9490493096179071,6.454610908518602e-13,-2.4635924038843273e-85,-1.023955190177687,1.689945864096943e-11,-6.45017624264588e-84,-0.12429304302973809,0,70,255.0,255.0,255.0
65,3.25,-4.5,0.0,-2.0004,1.6339720937974465e-12,-6.236535858614965e-85,-1.030023716494453,2.2640981476854162e-11,-8.641597576276724e-84,-0.11844800964090751,0,70,255.0,255.0,255.0
66,3.3000000000000003,-4.499999999999899,-3.857696969762878e-86,-2.0520467864013745,2.2303297942316493e-12,-8.512710707278024e-85,-1.0357985508525505,1.2133265405138064e-12,-4.631018183754629e-85,-0.11254536468298679,0,70,255.0,255.0,255.0
67,3.35,-4.499999999999795,-7.831169394119592e-86,-2.103974936214457,1.7553047478488372e-12,-6.699637676990464e-85,-1.0412782529627518,-2.021432839582636e-11,7.715393939525727e-84,-0.1066427197250661,0,70,255.0,255.0,255.0
68,3.4000000000000004,-4.499999999999741,-9.875793333594898e-86,-2.1561696928268517,2.0889695464900132e-13,-7.973167677522559e-86,-1.046462822825057,-4.164198333216671e-11,1.5893889697426987e-83,-0.10074007476714537,0,70,255.0,255.0,255.0
69,3.45,-4.499999999999791,-7.946944848713445e-86,-2.2086162996261645,-2.408893585367829e-12,9.194252020436502e-85,-1.0513522604394663,-6.306963826850689e-11,2.4072385455328178e-83,-0.09483742980922469,0,70,255.0,255.0,255.0
70,3.5,-4.5,0.0,-2.2613,-6.098066872201663e-12,2.3275068687575834e-84,-1.0559465658059797,-8.449729320484704e-11,3.225088121322937e-83,-0.08893478485130935,0,70,255.0,255.0,255.0
71,3.5500000000000003,-4.500000000000377,1.439712109135942e-85,-2.3142055699435384,-8.323704109707112e-12,3.1769868869697022e-84,-1.060217695379058,-4.5281962953704045e-12,1.728319515255189e-84,-0.08191039807182068,0,70,255.0,255.0,255.0
72,3.6,-4.5000000000007665,2.922632206153254e-85,-2.3673159158822563,-6.550886501738739e-12,2.5003388202831153e-84,-1.0641376056131617,7.544090061410553e-11,-2.879424218271872e-83,-0.07488601129233209,0,70,255.0,255.0,255.0
73,3.6500000000000004,-4.5000000000009654,3.685696248602603e-85,-2.420613476849205,-7.796140482965165e-13,2.975626686978145e-85,-1.067706296508291,1.5540999752358214e-10,-5.931680388069291e-83,-0.06786162451284343,0,70,255.0,255.0,255.0
74,3.7,-4.500000000000777,2.9658401940346285e-85,-2.4740806918774356,8.990113250619453e-12,-3.431341567786166e-84,-1.070923768064446,2.3537909443305813e-10,-8.983936557866681e-83,-0.06083723773335483,0,70,255.0,255.0,255.0
75,3.75,-4.5,0.0,-2.5277,2.2758295395009208e-11,-8.686373889168838e-84,-1.0737900202816264,3.1534819134253404e-10,-1.2036192727664073e-82,-0.05381285095386801,0,70,255.0,255.0,255.0
76,3.8000000000000003,-4.499999999998592,-5.373078739567482e-85,-2.5814541338244723,3.1064486644596796e-11,-1.1856676477151005e-83,-1.0763226676312165,1.689945864096783e-11,-6.450176242645256e-84,-0.04749304302974121,0,70,255.0,255.0,255.0
77,3.85,-4.499999999997143,-1.0907411885201052e-84,-2.635327000256518,2.4448241259106122e-11,-9.331391513433415e-84,-1.0785393245846004,-2.815492740605958e-10,1.074615747913492e-82,-0.04117323510561447,0,70,255.0,255.0,255.0
78,3.9000000000000004,-4.499999999996396,-1.3755205661050925e-84,-2.6893027997763292,2.9095592385370623e-12,-1.1105189980160255e-84,-1.0804399911417781,-5.79998006762162e-10,2.2137332582534464e-82,-0.03485342718148767,0,70,255.0,255.0,255.0
79,3.95,-4.4999999999971,-1.1068666291267175e-84,-2.7433657328640924,-3.355155941710999e-11,1.280594106910102e-83,-1.0820246673027494,-8.784467394637256e-10,3.352850768593391e-82,-0.02853361925736093,0,70,255.0,255.0,255.0
80,4.0,-4.5,0.0,-2.7975,-8.493511470783516e-11,3.241798868791777e-83,-1.0832933530675142,-1.1768954721652886e-09,4.491968278933337e-82,-0.022213811333237743,0,70,255.0,255.0,255.0
81,4.05,-4.500000000005253,2.005260284913379e-84,-2.8516898947585734,-1.1593424246868004e-10,4.424971902163431e-83,-1.084251634096076,-6.306963826851051e-11,2.407238545532973e-83,-0.01611742980923341,0,70,255.0,255.0,255.0
82,4.1000000000000005,-4.500000000010665,4.0707015334651123e-84,-2.9059200830916714,-9.124207853468528e-11,3.4825227233450385e-83,-1.0849050960484377,1.0507561956282874e-09,-4.010520569826817e-82,-0.010021048285228963,0,70,255.0,255.0,255.0
83,4.15,-4.50000000001345,5.13351263956011e-84,-2.960175324045481,-1.0858622905851739e-11,4.144513323366301e-84,-1.0852537389245989,2.1645820295250653e-09,-8.261764994206857e-82,-0.003924666761224629,0,70,255.0,255.0,255.0
84,4.2,-4.5000000000108225,4.130882497103405e-84,-3.0144403766661942,1.2521612441782048e-10,-4.77924227086179e-83,-1.08529756272456,3.2784078634218436e-09,-1.2513009418586896e-81,0.002171714762779709,0,70,255.0,255.0,255.0
85,4.25,-4.5,0.0,-3.0687,3.1698216343633143e-10,-1.2098558086250224e-82,-1.0850365674483207,4.392233697318622e-09,-1.6764253842966935e-81,0.00826809628678582,0,70,255.0,255.0,255.0
86,4.3,-4.499999999980392,-7.483733265696771e-84,-3.1229390871412326,4.326724832301234e-10,-1.6514219960938624e-82,-1.0844787959844844,2.35379094433073e-10,-8.983936557867217e-83,0.014042762266658905,0,70,255.0,255.0,255.0
87,4.3500000000000005,-4.499999999960197,-1.5192064945340337e-83,-3.177143067376799,3.4052007287963526e-10,-1.2996951742036812e-82,-1.0836322912216547,-3.921475508452549e-09,1.4967466531393773e-81,0.01981742824653209,0,70,255.0,255.0,255.0
88,4.4,-4.499999999949804,-1.9158529992135344e-83,-3.2312975040417484,4.052493238487009e-11,-1.5467534295449055e-83,-1.0824970531598312,-8.078330111338097e-09,3.0833326718573986e-81,0.02559209422640518,0,70,255.0,255.0,255.0
89,4.45,-4.499999999959608,-1.5416663359286904e-83,-3.285387960471132,-4.673129382541718e-10,1.7836374976537066e-82,-1.0810730817990144,-1.2235184714223646e-08,4.6699186905754195e-81,0.031366760206278266,0,70,255.0,255.0,255.0
90,4.5,-4.5,0.0,-3.3394,-1.1829935390374905e-09,4.515243347620912e-82,-1.0793603771392035,-1.63920393171092e-08,6.256504709293439e-81,0.0371414261861549,0,70,255.0,255.0,255.0
91,4.55,-4.500000000073176,2.7929672777873704e-83,-3.3933185566764954,-1.6147556904518132e-09,6.163190794159105e-82,-1.0773211819659836,-8.784467394637793e-10,3.3528507685935865e-82,0.04442638074263916,0,70,255.0,255.0,255.0
92,4.6000000000000005,-4.500000000148547,5.669755824789624e-83,-3.447126047401135,-1.2708382129838553e-09,4.8505284244802214e-82,-1.0749177390649396,1.4635145838181911e-08,-5.585934555574827e-81,0.05171133529912354,0,70,255.0,255.0,255.0
93,4.65,-4.500000000187332,7.150060732898125e-83,-3.500804259787526,-1.5124110663362779e-10,5.7725623858430344e-83,-1.0721500484360713,3.014873841582733e-08,-1.1507154188008905e-80,0.05899628985560779,0,70,255.0,255.0,255.0
94,4.7,-4.500000000150743,5.75357709400442e-83,-3.554334981449278,1.7440356285988668e-09,-6.656625763528642e-82,-1.069018110079379,4.5662330993472756e-08,-1.7428373820442985e-80,0.06628124441209204,0,70,255.0,255.0,255.0
95,4.75,-4.5,0.0,-3.6077,4.414991992713631e-09,-1.6851117581858623e-81,-1.0655219239948621,6.117592357111816e-08,-2.3349593452877064e-80,0.0735661989685763,0,70,255.0,255.0,255.0
96,4.800000000000001,-4.499999999726905,-1.0423495784580007e-82,-3.6608818861527856,6.026350278577133e-09,-2.3001341180542574e-81,-1.0617084761515787,3.2784078634210085e-09,-1.2513009418583706e-81,0.07897171476276385,0,70,255.0,255.0,255.0
97,4.8500000000000005,-4.499999999445612,-2.115981680462446e-82,-3.713866343018663,4.7428327790557856e-09,-1.8102418523717196e-81,-1.0576247525185856,-5.461910784427511e-08,2.0846991569159926e-80,0.08437723055695129,0,70,255.0,255.0,255.0
98,4.9,-4.4999999993008695,-2.668438993237897e-82,-3.7666398568081485,5.644394941496415e-10,-2.1543496113827103e-82,-1.0532707530958834,-1.1251662355197123e-07,4.294528408017823e-80,0.08978274635113874,0,70,255.0,255.0,255.0
99,4.95,-4.499999999437417,-2.1472642040088987e-82,-3.819188913731756,-6.508829576141296e-09,2.484286555646087e-81,-1.0486464778834719,-1.7041413925966735e-07,6.5043576591196526e-80,0.09518826214532619,0,70,255.0,255.0,255.0
100,5.0,-4.5,0.0,-3.8715,-1.6476974431817033e-08,6.288922697981358e-81,-1.043751926881351,-2.2831165496736343e-07,8.71418691022148e-80,0.10059377793950475,0,70,255.0,255.0,255.0
101,5.050000000000001,-4.500000001019206,3.8901015860532605e-82,-3.923558698712366,-2.2490645423856718e-08,8.584217392801119e-81,-1.038532913427706,-1.2235184714220546e-08,4.669918690574225e-81,0.10816676020629441,0,70,255.0,255.0,255.0
102,5.1000000000000005,-4.500000002069,7.89695113937082e-82,-3.975346980524216,-1.770049290323929e-08,6.755914567038858e-81,-1.0329352508607215,2.0384128553891853e-07,-7.780203172106489e-80,0.11573974247308393,0,70,255.0,255.0,255.0
103,5.15,-4.500000002609193,9.958749899661774e-82,-4.026845912979883,-2.1065168699649397e-09,8.040142206946529e-82,-1.0269589391803977,4.1991775579205757e-07,-1.60273982132704e-79,0.12331272473987345,0,70,255.0,255.0,255.0
104,5.2,-4.500000002099589,8.01369910663515e-82,-4.0780365636237,2.4291282675966325e-08,-9.271483646231483e-81,-1.0206039783867342,6.359942260451966e-07,-2.427459325443431e-79,0.130885707006663,0,70,255.0,255.0,255.0
105,5.25,-4.5,0.0,-4.1289,6.14929057345545e-08,-2.347057903373957e-80,-1.0138703684797317,8.520706962983354e-07,-3.252178829559823e-79,0.13845868927344895,0,70,255.0,255.0,255.0
106,5.300000000000001,-4.499999996196269,-1.4518056765755044e-81,-4.179418518997754,8.393623141684972e-08,-3.203673545315021e-80,-1.0068318701375931,4.56623309934611e-08,-1.742837382043864e-80,0.14308124441209358,0,70,255.0,255.0,255.0
107,5.3500000000000005,-4.499999992278383,-2.9471822877020844e-81,-4.229579334884477,6.605913883390134e-08,-2.5213416415783714e-80,-0.9995622440385221,-7.607460343113991e-07,2.9036113531509965e-79,0.14770379955073812,0,70,255.0,255.0,255.0
108,5.4,-4.499999990262363,-3.7166560605409204e-81,-4.279370891272324,7.861627985710073e-09,-3.000621921640363e-81,-0.9920614901825192,-1.5671543996162591e-06,5.981506444506379e-79,0.15232635468938266,0,70,255.0,255.0,255.0
109,5.45,-4.499999992164229,-2.990753222253173e-81,-4.328781631773447,-9.065630112772401e-08,3.460164802927985e-80,-0.9843296085695841,-2.373562764921119e-06,9.059401535861761e-79,0.1569489098280272,0,70,255.0,255.0,255.0
110,5.5,-4.5,0.0,-4.3778,-2.2949464850640092e-07,8.759339343697692e-80,-0.9763665991997166,-3.1799711302259784e-06,1.2137296627217145e-78,0.16157146496667352,0,70,255.0,255.0,255.0
111,5.550000000000001,-4.500000014195714,5.418212547696692e-81,-4.4264128252966195,-3.132542802435422e-07,1.1956272441979975e-79,-0.9680756060219168,-1.7041413925962431e-07,6.504357659118043e-80,0.17006826214531057,0,70,255.0,255.0,255.0
112,5.6000000000000005,-4.500000028817464,1.0999034036871258e-80,-4.474600479937877,-2.4653606243236616e-07,9.409775109609605e-80,-0.9593597729851855,2.8391428517066764e-06,-1.0836425095393335e-78,0.17856505932394748,0,70,255.0,255.0,255.0
113,5.65,-4.500000036341357,1.3870749252197505e-80,-4.522341721930823,-2.9339995072875543e-08,1.1198473465866825e-80,-0.9502191000895223,5.848699842672977e-06,-2.232328595669847e-78,0.1870618565025844,0,70,255.0,255.0,255.0
114,5.7,-4.500000029243499,1.1161642978349176e-80,-4.569615309282512,3.383339218349295e-07,-1.2913510847088786e-79,-0.940653587334927,8.858256833639279e-06,-3.3810146818003603e-78,0.1955586536812213,0,70,255.0,255.0,255.0
115,5.75,-4.5,0.0,-4.6164,8.564856882910491e-07,-3.269029947141681e-79,-0.9306632347214002,1.1867813824605577e-05,-4.529700767930875e-78,0.20405545085986088,0,70,255.0,255.0,255.0
116,5.800000000000001,-4.499999947020873,-2.0221044514211264e-80,-4.662676579815768,1.1690808895573189e-06,-4.462141622260487e-79,-0.9203697057747372,6.359942260450354e-07,-2.427459325442818e-79,0.20768570700665331,0,70,255.0,255.0,255.0
117,5.8500000000000005,-4.49999989245176,-4.104895385978294e-80,-4.7084339453640185,9.200851108955631e-07,-3.5117758796860024e-79,-0.9098946640207347,-1.0595825372515306e-05,4.0442089028422343e-78,0.21131596315344567,0,70,255.0,255.0,255.0
118,5.9,-4.499999864372212,-5.17663409482491e-80,-4.753663021004384,1.0949835230579194e-07,-4.179327194182661e-80,-0.8992381094593928,-2.1827644971075645e-05,8.33116373822875e-78,0.21494621930023802,0,70,255.0,255.0,255.0
119,5.95,-4.499999890861775,-4.165581869114354e-80,-4.798354731096501,-1.2626793862119947e-06,4.81938785854272e-79,-0.8884000420907111,-3.305946456963599e-05,1.2618118573615268e-77,0.2185764754470304,0,70,255.0,255.0,255.0
120,6.0,-4.5,0.0,-4.8425,-3.1964481046577956e-06,1.2200185854196954e-78,-0.8773804619146898,-4.429128416819634e-05,1.6905073409001785e-77,0.2222067315938263,0,70,255.0,255.0,255.0
121,6.050000000000001,-4.5000001977207935,7.546596550914835e-80,-4.886087255440311,-4.363069277985733e-06,1.665293924484395e-78,-0.8660295708791429,-2.3735627649205195e-06,9.059401535859483e-79,0.231828909828042,0,70,255.0,255.0,255.0
122,6.1000000000000005,-4.500000401375494,1.5319678140226047e-79,-4.929094938606053,-3.4338043811498865e-06,1.3106126007783051e-78,-0.8541975709318855,3.9544158638354554e-05,-1.5093193101829604e-77,0.24145108806225749,0,70,255.0,255.0,255.0
123,6.15,-4.500000506169796,1.9319461454079883e-79,-4.971498994051638,-4.0865341415029307e-07,1.5597461430144e-79,-0.8418844620729172,8.146188004162961e-05,-3.1092326357245155e-77,0.251073266296473,0,70,255.0,255.0,255.0
124,6.2,-4.5000004073094,1.5546163178622487e-79,-5.013275366331483,4.712383623013047e-06,-1.7986200349462002e-78,-0.8290902443022382,0.0001233796014449047,-4.709145961266071e-77,0.2606954445306885,0,70,255.0,255.0,255.0
125,6.25,-4.5,0.0,-5.0544,1.1929306730340133e-05,-4.553171346964614e-78,-0.8158149176198486,0.0001652973228481797,-6.309059286807626e-77,0.2703176227649031,0,70,255.0,255.0,255.0
126,6.300000000000001,-4.499999262095955,-2.816428175223821e-79,-5.0948527984229885,1.628319622238561e-05,-6.214961535711532e-78,-0.802296010708695,8.858256833637029e-06,-3.381014681799513e-78,0.2704386536812343,0,70,255.0,255.0,255.0
127,6.3500000000000005,-4.499998502046266,-5.71738171749259e-79,-5.134629500211774,1.281513241370398e-05,-4.891272815144619e-78,-0.7887710522517251,-0.00014758080918090289,5.632856350447617e-77,0.2705596845975656,0,70,255.0,255.0,255.0
128,6.4,-4.499998110948602,-7.210121172149463e-79,-5.173729802789064,1.5251153042953778e-06,-5.821051852639358e-79,-0.7752400422489385,-0.0003040198751954428,1.1603814169075186e-76,0.2706807155138968,0,70,255.0,255.0,255.0
129,6.45,-4.499998479900624,-5.801907084537562e-79,-5.21215340357757,-1.75868551058402e-05,6.712541353930521e-78,-0.7617029807003354,-0.00046045894120998263,1.757477198770275e-76,0.27080174643022803,0,70,255.0,255.0,255.0
130,6.5,-4.5,0.0,-5.2499,-4.452077881670273e-05,1.699266680243876e-77,-0.7481598676059159,-0.0006168980072245225,2.3545729806330323e-76,0.27092277734655656,0,70,255.0,255.0,255.0
131,6.550000000000001,-4.50000275389539,1.0511053045803801e-78,-5.286959150867738,-6.076971561155671e-05,2.3194552218361732e-77,-0.7340023862860762,-3.3059464569627555e-05,1.2618118573612045e-77,0.29537647544702333,0,70,255.0,255.0,255.0
132,6.6000000000000005,-4.500005590439442,2.1337559055947752e-78,-5.323279860546858,-4.782672527366602e-05,1.8254478659800177e-77,-0.7186222200612135,0.000550779078085257,-2.1022106091607515e-76,0.31983017354748966,0,70,255.0,255.0,255.0
133,6.65,-4.500007050035799,2.6908538543189866e-78,-5.35880099479211,-5.691807803031196e-06,2.172446126754291e-78,-0.7020193689313274,0.0011346176207401417,-4.330602404057624e-76,0.34428387164795604,0,70,255.0,255.0,255.0
134,6.7,-4.500005673088103,2.165301202028799e-78,-5.393461419358239,6.563503680034771e-05,-2.5051545380775913e-77,-0.684193832896418,0.001718456163395026,-6.558994198954496e-76,0.36873756974842237,0,70,255.0,255.0,255.0
135,6.75,-4.5,0.0,-5.4272,0.0001661538085364708,-6.341749586279043e-77,-0.6651456119564854,0.0023022947060499102,-8.787385993851367e-76,0.3931912678488878,0,70,255.0,255.0,255.0
136,6.800000000000001,-4.499988922322483,-3.922778400799139e-78,-5.459952998106063,0.00027479566622373074,-8.65632473377354e-77,-0.6447184441469958,0.002043379601440426,-4.709145961264877e-77,0.42389544453068356,0,70,255.0,255.0,255.0
137,6.8500000000000005,-4.499972736195965,-7.963285450629843e-78,-5.491646257600799,0.00037049176868051467,-6.812664182405608e-77,-0.6227560675034167,0.001784464496830946,7.845556801598244e-76,0.45459962121247877,0,70,255.0,255.0,255.0
138,6.9,-4.499952088908204,-1.0042403300061e-77,-5.522203018042503,0.00045324211590682474,-8.107679321753223e-78,-0.5992584820257482,0.0015255493922214664,1.6162028199322974e-75,0.4853037978942739,0,70,255.0,255.0,255.0
139,6.95,-4.4999276277469615,-8.081014099661442e-78,-5.551546518989472,0.0005230467079026607,9.349364016917309e-77,-0.5742256877139896,0.0012666342876119867,2.44784995970477e-75,0.5160079745760692,0,70,255.0,255.0,255.0
140,7.0,-4.4999,0.0,-5.5796,0.000579905544668023,2.3667731664872296e-76,-0.5476576845681412,0.0010077191830025088,3.2794970994772435e-75,0.546712151257867,0,70,255.0,255.0,255.0
141,7.050000000000001,-4.499869556814673,1.4640008298616175e-77,-5.606310456708013,0.0006415870507131517,3.2305843713257986e-76,-0.5209798371259385,0.0014595410588026034,1.7574771987698308e-76,0.5204017464302249,0,70,255.0,255.0,255.0
142,7.1000000000000005,-4.499835464776699,2.97193858969246e-77,-5.63171990904995,0.0007258596505482837,2.5425208863642412e-76,-0.49561750992511844,0.00191136293460269,-2.9280016597232224e-75,0.49409134160258317,0,70,255.0,255.0,255.0
143,7.15,-4.4997965943313885,3.7478759345925016e-77,-5.655894133037882,0.0008327233441734199,3.02582711602586e-77,-0.4715707029656804,0.0023631848104027765,-6.031751039323428e-75,0.4677809367749415,0,70,255.0,255.0,255.0
144,7.2,-4.499751815924052,3.0158755196616955e-77,-5.678898904683876,0.0009621781315885605,-3.489230152959166e-76,-0.44883941624762447,0.002815006686202863,-9.135500418923632e-75,0.4414705319472998,0,70,255.0,255.0,255.0
145,7.25,-4.4997,0.0,-5.7008,0.0011142240127937051,-8.832917707321014e-76,-0.4274236497709506,0.0032668285620029453,-1.223924979852384e-74,0.4151601271196599,0,70,255.0,255.0,255.0
146,7.300000000000001,-4.499640850418824,-5.4637254793665555e-77,-5.721657175061886,0.0012388561309286555,-1.205670501192584e-75,-0.40696220734924815,0.0017184561633950004,-6.558994198952855e-76,0.4032975697484261,0,70,255.0,255.0,255.0
147,7.3500000000000005,-4.499577404697239,-1.1091425813706857e-76,-5.7415061061994015,0.0012860696291332075,-9.488817127216408e-76,-0.3870938927961078,0.00017008376478708275,1.0927450958733064e-74,0.3914350123771925,0,70,255.0,255.0,255.0
148,7.4,-4.499513533766243,-1.3987263408363906e-76,-5.760376449805973,0.0012558645074073637,-1.1292540531928142e-76,-0.367818706111529,-0.0013782886338208344,2.2510801337361414e-74,0.379572455005959,0,70,255.0,255.0,255.0
149,7.45,-4.49945310855683,-1.1255400668680642e-76,-5.77829786227503,0.0011482407657511244,1.302198421014493e-75,-0.34913664729551197,-0.002926661032428752,3.4094151715989764e-74,0.3677098976347254,0,70,255.0,255.0,255.0
150,7.5,-4.4994,0.0,-5.7953,0.0009631984041644896,3.2964897662796826e-75,-0.3310477163480566,-0.0044750334310366706,4.56775020946181e-74,0.3558473402634914,0,70,255.0,255.0,255.0
151,7.550000000000001,-4.499357441510031,2.0390901087604605e-76,-5.811414443044443,0.0007389884255783523,4.499623567637756e-75,-0.31366733347706727,-0.004493365712408694,2.447849959704148e-75,0.339367974576072,0,70,255.0,255.0,255.0
152,7.6000000000000005,-4.499326116434343,4.139376466513495e-76,-5.826680466152447,0.0005138618329236179,3.541274762250137e-75,-0.2971109188904492,-0.004511697993780716,-4.078180217520903e-74,0.32288860888865284,0,70,255.0,255.0,255.0
153,7.65,-4.499306070603639,5.220117769886312e-76,-5.841139267738227,0.0002878186262002824,4.214433501168666e-76,-0.2813784725882021,-0.004530030275152738,-8.401145431012223e-74,0.30640924320123375,0,70,255.0,255.0,255.0
154,7.7,-4.499297349848623,4.200572715506087e-76,-5.854832046216006,6.085880540834567e-05,-4.859870668762055e-75,-0.2664699945703259,-0.0045483625565247605,-1.2724110644503541e-73,0.2899298775138146,0,70,255.0,255.0,255.0
155,7.75,-4.4993,0.0,-5.8678,-0.00016701762945219207,-1.2302667294386628e-74,-0.2523854848368208,-0.004566694837896785,-1.704707585799486e-73,0.273450511826395,0,70,255.0,255.0,255.0
156,7.800000000000001,-4.499314183541052,-7.609987887105187e-76,-5.880083452760342,-0.00040280983324452255,-1.6792823769358443e-74,-0.2390724587424782,-0.0048649933137963,-9.135500418921339e-75,0.25907053194729934,0,70,255.0,255.0,255.0
157,7.8500000000000005,-4.499340529565387,-1.5448363284683298e-75,-5.891719229190814,-0.0006535169608318244,-1.3216217336278909e-74,-0.2264784316420907,-0.005163291789695809,1.5219975774210302e-73,0.24469055206820392,0,70,255.0,255.0,255.0
158,7.9,-4.499379783819197,-1.9481744738708857e-75,-5.9027432792411165,-0.0009191390122141017,-1.5728479951481899e-75,-0.21460340353565793,-0.005461590265595319,3.135350159031274e-73,0.2303105721891085,0,70,255.0,255.0,255.0
159,7.95,-4.499432692048671,-1.5676750795156283e-75,-5.913191552860945,-0.001199675987391354,1.813728425403372e-74,-0.20344737442317992,-0.0057598887414948285,4.748702740641519e-73,0.21593059231001308,0,70,255.0,255.0,255.0
160,8.0,-4.4995,0.0,-5.9231,-0.0014951278863635825,4.591417941126683e-74,-0.19301034430465672,-0.006058187217394342,6.362055322251763e-73,0.201550612430917,0,70,255.0,255.0,255.0
161,8.05,-4.499582624325764,2.8400861439660287e-75,-5.932505345914192,-0.0018157490926085144,6.267167150979601e-74,-0.183338831553016,-0.006766661032402755,3.4094151715981223e-74,0.18530989763470698,0,70,255.0,255.0,255.0
162,8.1,-4.499682165304106,5.765407667221925e-75,-5.941447417084299,-0.002171793989603854,4.9323594582866e-74,-0.17447935454118604,-0.007475134847411144,-5.680172287931925e-73,0.16906918283849756,0,70,255.0,255.0,255.0
163,8.15,-4.4998003941195694,7.270686118494911e-75,-5.949966815297308,-0.0025632625773496275,5.869948630475883e-75,-0.16643191326916632,-0.008183608662419557,-1.1701286093023877e-72,0.15282846804228759,0,70,255.0,255.0,255.0
164,8.200000000000001,-4.499939081956688,5.850643046511849e-75,-5.958104142340211,-0.0029901548558458214,-6.7689266347374406e-74,-0.15919650773695707,-0.008892082477427971,-1.772239989811583e-72,0.13658775324607758,0,70,255.0,255.0,255.0
165,8.25,-4.5001,0.0,-5.9659,-0.00345247082509242,-1.713540503506807e-73,-0.15277313794455855,-0.009600556292436353,-2.3743513703207566e-72,0.12034703844986927,0,70,255.0,255.0,255.0
166,8.3,-4.500284919155896,-1.0599345787153596e-74,-5.97339436358289,-0.003950193796316546,-2.3389386226982562e-73,-0.14712421504546586,-0.010308362556528396,-1.272411064450034e-73,0.10560987751383474,0,70,255.0,255.0,255.0
167,8.35,-4.500495609218184,-2.1516794340419384e-74,-5.980624702471994,-0.004483307080745255,-1.8407816099518497e-73,-0.14221215019317507,-0.011016168820620415,2.1198691574306699e-72,0.09087271657780073,0,70,255.0,255.0,255.0
168,8.4,-4.500733839702525,-2.7134570000108758e-74,-5.9876278595696535,-0.0050518106783785845,-2.1906946526755327e-74,-0.13803694338768585,-0.01172397508471246,4.366979421306423e-72,0.0761355556417662,0,70,255.0,255.0,255.0
169,8.450000000000001,-4.501001380124577,-2.183489710653177e-74,-5.994440677778209,-0.005655704589216518,2.5261978113546365e-73,-0.13459859462899837,-0.012431781348804504,6.614089685182177e-72,0.06139839470573167,0,70,255.0,255.0,255.0
170,8.5,-4.5013,0.0,-6.0011,-0.006294988813259029,6.39502021991456e-73,-0.13189710391711265,-0.013139587612896533,8.86119994905785e-72,0.04666123376969877,0,70,255.0,255.0,255.0
171,8.55,-4.501631299050649,3.955729700464836e-74,-6.007642799754253,-0.0069594757221196546,8.729037775695063e-73,-0.12994030826511976,-0.013439888741528102,4.748702740640315e-73,0.031610592310015846,0,70,255.0,255.0,255.0
172,8.6,-4.501996197823153,8.03017696944556e-74,-6.014106573027729,-0.007638977687411833,6.869890493978738e-73,-0.12873604468611105,-0.01374018987015966,-7.911459400929489e-72,0.016559950850333457,0,70,255.0,255.0,255.0
173,8.65,-4.502395447070331,1.0126759388194015e-73,-6.020528946424079,-0.008333494709135617,8.175783747654535e-74,-0.12828431318008646,-0.014040490998791226,-1.629778907592331e-71,0.001509309390650533,0,70,255.0,255.0,255.0
174,8.700000000000001,-4.502829797545006,8.148894537961523e-74,-6.026947546546954,-0.009043026787290976,-9.427898581944798e-73,-0.128585113747046,-0.014340792127422794,-2.4684118750917128e-71,-0.013541332069032394,0,70,255.0,255.0,255.0
175,8.75,-4.5033,0.0,-6.0334,-0.009767573921877892,-2.3866540376151433e-72,-0.12963844638698965,-0.014641093256054366,-3.307044842591065e-71,-0.028591973528714343,0,70,255.0,255.0,255.0
176,8.8,-4.503806684641506,-1.4762984223143984e-73,-6.039924037400105,-0.010499903315214198,-3.2577212480082005e-72,-0.13145055189405574,-0.01465208247739747,-1.772239989811125e-72,-0.04389224675392746,0,70,255.0,255.0,255.0
177,8.85,-4.504349999489206,-2.996902844374031e-73,-6.046557805417093,-0.011232782169617634,-2.5638780365963114e-72,-0.13402767106238236,-0.014663071698740576,2.952596844628728e-71,-0.05919251997914003,0,70,255.0,255.0,255.0
178,8.9,-4.504929972016153,-3.779358055276519e-73,-6.0533395547340305,-0.01196621048508825,-3.0512440337942624e-73,-0.13736980389196973,-0.014674060920083682,6.082417688238681e-71,-0.07449279320435315,0,70,255.0,255.0,255.0
179,8.950000000000001,-4.505546629695399,-3.041208844119294e-73,-6.060307536033979,-0.012700188261626022,3.518539651642455e-72,-0.14147695038281777,-0.014685050141426787,9.212238531848632e-71,-0.08979306642956628,0,70,255.0,255.0,255.0
180,9.0,-4.5062,0.0,-6.0675,-0.013434715499230922,8.907114128469117e-72,-0.1463491105349263,-0.014696039362769794,1.2342059375458471e-70,-0.10509333965477885,0,70,255.0,255.0,255.0
181,9.05,-4.506890762383326,5.50962071921111e-73,-6.074955450645332,-0.014208911017020492,1.2157981214463293e-71,-0.15200148415865258,-0.016271781348812582,6.61408968518045e-72,-0.12100160529426898,0,70,255.0,255.0,255.0
182,9.1,-4.507622204220023,1.1184593680551567e-72,-6.082713405303897,-0.015061893634112172,9.568523096987367e-72,-0.15844927106435314,-0.017847523334855318,-1.1019241438421966e-70,-0.13690987093375856,0,70,255.0,255.0,255.0
183,9.15,-4.5083982648650585,1.4104756282286666e-72,-6.090813634639799,-0.015993663350506022,1.1387397760411614e-72,-0.1656924712520284,-0.019423265320898105,-2.2699891845362392e-70,-0.15281813657324866,0,70,255.0,255.0,255.0
184,9.200000000000001,-4.509222883673395,1.1349945922681016e-72,-6.099295909317134,-0.01700422016620201,-1.3131368748375341e-71,-0.17373108472167823,-0.020999007306940896,-3.438054225230281e-70,-0.16872640221273882,0,70,255.0,255.0,255.0
185,9.25,-4.5101,0.0,-6.1082,-0.018093564081200098,-3.3241802476261325e-71,-0.18256511147330223,-0.022574749292983615,-4.6061192659242816e-70,-0.1846346678522286,0,70,255.0,255.0,255.0
186,9.3,-4.511032665825191,-2.056218445453004e-72,-6.11756536001857,-0.019208452616710253,-4.537420360984497e-71,-0.19217551147133413,-0.02202079212742197,-2.468411875091068e-71,-0.1997813320690414,0,70,255.0,255.0,255.0
187,9.35,-4.5120203836307,-4.174147187783222e-72,-6.127430173367314,-0.020295643293942286,-3.571021435135317e-71,-0.20254324468020626,-0.021466834961860345,4.1124368909059135e-70,-0.21492799628585366,0,70,255.0,255.0,255.0
188,9.4,-4.513061768523614,-5.263966707387015e-72,-6.137832306706772,-0.02135513611289628,-4.2498347007852143e-72,-0.21366831109991943,-0.020912877796298704,8.471714969321087e-70,-0.23007466050266648,0,70,255.0,255.0,255.0
189,9.450000000000001,-4.514155435611018,-4.235857484660476e-72,-6.148809626697487,-0.02238693107357219,4.900693534185889e-71,-0.22555071073047325,-0.02035892063073706,1.2830993047736264e-69,-0.24522132471947927,0,70,255.0,255.0,255.0
190,9.5,-4.5153,0.0,-6.1604,-0.02339102817596998,1.2406009577657618e-70,-0.23819044357186728,-0.01980496346517549,1.7190271126151278e-69,-0.2603679889362913,0,70,255.0,255.0,255.0
191,9.55,-4.516494574315912,7.673911709890904e-72,-6.172639109280387,-0.024397278516134713,1.6933883322491655e-70,-0.2514564699560136,-0.02044505014141335,9.212238531846208e-71,-0.27027306642955445,0,70,255.0,255.0,255.0
192,9.600000000000001,-4.517740261257177,1.557812938307797e-71,-6.185553901226846,-0.025435533190111343,1.3327233430842251e-70,-0.26521775021482313,-0.021085136817651208,-1.5347823419782037e-69,-0.28017814392281765,0,70,255.0,255.0,255.0
193,9.65,-4.5190386610404865,1.96453912013194e-71,-6.1991691385331125,-0.026505792197899825,1.5860599027099635e-71,-0.27947428434829524,-0.021725223493889043,-3.1616870692748115e-69,-0.29008322141608045,0,70,255.0,255.0,255.0
194,9.700000000000001,-4.52039137388253,1.5808435346373807e-71,-6.21350958389292,-0.027608055539500242,-1.8289637261906028e-70,-0.29422607235643106,-0.022365310170126905,-4.788591796571476e-69,-0.2999882989093436,0,70,255.0,255.0,255.0
195,9.75,-4.5218,0.0,-6.2286,-0.02874232321491251,-4.6299858063004337e-70,-0.30947311423922946,-0.02300539684636488,-6.415496523868086e-69,-0.30989337640260617,0,70,255.0,255.0,255.0
196,9.8,-4.523265836911163,-2.863942839411062e-71,-6.244451002859887,-0.029890433318745913,-6.319811292898213e-70,-0.32436660870461326,-0.022919007306970506,-3.438054225229397e-70,-0.2858464022127383,0,70,255.0,255.0,255.0
197,9.850000000000001,-4.524788971340591,-5.8138370344528604e-71,-6.261016621725304,-0.031034223945609597,-4.973791228823378e-70,-0.33805775446050373,-0.022832617767576134,5.727885678822206e-69,-0.2617994280228705,0,70,255.0,255.0,255.0
198,9.9,-4.52636918731444,-7.331759809789058e-71,-6.2782367391607785,-0.032173695095503524,-5.919256140761352e-71,-0.3505465515069003,-0.022746228228181762,1.1799576780167137e-68,-0.2377524538330035,0,70,255.0,255.0,255.0
199,9.950000000000001,-4.528006268858859,-5.899788390083478e-71,-6.296051237730835,-0.03330884676842776,6.825785551343822e-70,-0.3618329998438039,-0.02265983868878739,1.787126788151228e-68,-0.21370547964313566,0,70,255.0,255.0,255.0
200,10.0,-4.5297,0.0,-6.3144,-0.03443967896438225,1.7279342267435973e-69,-0.3719170994712139,-0.02257344914939291,2.3942958982857207e-68,-0.18965850545326912,0,70,255.0,255.0,255.0
201,10.05,-4.531450078039439,1.0688380186655156e-70,-6.333234479280072,-0.035560988208884974,2.358585683934369e-69,-0.38149309522553276,-0.022278920630715487,1.283099304773293e-69,-0.19338132471948044,0,70,255.0,255.0,255.0
202,10.100000000000001,-4.533255853380457,2.1697535199503643e-70,-6.352552411871942,-0.03666757102745383,1.856244157220928e-69,-0.3912552319431622,-0.021984392112038068,-2.137676037331062e-68,-0.1971041439856918,0,70,255.0,255.0,255.0
203,10.15,-4.535116589701753,2.7362500119024288e-70,-6.372363104823776,-0.037759427420088774,2.2090964660335554e-70,-0.40120350962410184,-0.021689863593360656,-4.403662005139374e-68,-0.20082696325190297,0,70,255.0,255.0,255.0
204,10.200000000000001,-4.537031550682033,2.201831002569652e-70,-6.392675865183741,-0.038836557386789886,-2.5474178479184685e-69,-0.4113379282683524,-0.021395335074683237,-6.669647972947764e-68,-0.2045497825181143,0,70,255.0,255.0,255.0
205,10.25,-4.539,0.0,-6.4135,-0.03989896092755709,-6.448738326344346e-69,-0.4216584878759132,-0.021100806556005713,-8.935633940756076e-68,-0.20827260178432372,0,70,255.0,255.0,255.0
206,10.3,-4.541021050931079,-3.9889577907209554e-70,-6.434843080019829,-0.040937613845710534,-8.802361606447655e-69,-0.43206101039325523,-0.020445310170131403,-4.788591796570239e-69,-0.2078282989093525,0,70,255.0,255.0,255.0
207,10.350000000000001,-4.543093215137582,-8.09763037635617e-70,-6.45670573078693,-0.04194349194457026,-6.927597506001376e-69,-0.44244131776684875,-0.019789813784257097,7.977915581442028e-68,-0.2073839960343813,0,70,255.0,255.0,255.0
208,10.4,-4.545214853878547,-1.0211824066630809e-69,-6.479086841544118,-0.04291659522413623,-8.244460250058066e-70,-0.4527994099966933,-0.01913431739838281,1.643469034254078e-67,-0.20693969315941008,0,70,255.0,255.0,255.0
209,10.450000000000001,-4.547384328413008,-8.21734517127026e-70,-6.501985301534204,-0.043856923684408536,9.507092836539494e-69,-0.46313528708278967,-0.018478821012508504,2.489146510363983e-67,-0.20649539028443886,0,70,255.0,255.0,255.0
210,10.5,-4.5496,0.0,-6.5254,-0.04476447732538709,2.4067019078633786e-68,-0.4734489490251371,-0.01782332462663405,3.3348239864738566e-67,-0.2060510874094641,0,70,255.0,255.0,255.0
211,10.55,-4.551860918236246,1.4886993144218306e-69,-6.549329200640616,-0.045680556408272864,3.285086074185624e-68,-0.48370286320145195,-0.018819838688796234,1.7871267881507606e-68,-0.20410547964312378,0,70,255.0,255.0,255.0
212,10.600000000000001,-4.554168886069212,3.022076798547432e-69,-6.573768664980341,-0.04664646119426674,2.585414586678457e-68,-0.49385949698944975,-0.019816352750958416,-2.9773986288437045e-67,-0.2021598718767835,0,70,255.0,255.0,255.0
213,10.65,-4.556526394784057,3.8111046254620795e-69,-6.598713528999756,-0.047662191683368695,3.0768744534198574e-69,-0.5039188503891302,-0.020812866813120563,-6.133509936502374e-67,-0.20021426411044327,0,70,255.0,255.0,255.0
214,10.700000000000001,-4.558935935665934,3.0667549682511364e-69,-6.624158928679449,-0.04872774787557879,-3.54809534982395e-68,-0.5138809234004941,-0.021809380875282745,-9.289621244161155e-67,-0.19826865634410296,0,70,255.0,255.0,255.0
215,10.75,-4.5614,0.0,-6.6501,-0.04984312977089696,-8.981933798819079e-68,-0.5237457160235405,-0.022805894937444893,-1.2445732551819822e-66,-0.19632304857776273,0,70,255.0,255.0,255.0
216,10.8,-4.5639200761239405,-5.555901478615227e-69,-6.676532917417709,-0.05094816052119975,-1.2260108136097731e-67,-0.5335755368009375,-0.021395335074666157,-6.669647972946013e-68,-0.19686978251811507,0,70,255.0,255.0,255.0
217,10.850000000000001,-4.566493640585568,-1.1278544156554109e-68,-6.703458009291712,-0.05198266327836361,-9.648898596113689e-68,-0.5434326942753522,-0.01998477521188742,1.1111802957230619e-66,-0.19741651645846742,0,70,255.0,255.0,255.0
218,10.9,-4.569117166985224,-1.422323609518524e-68,-6.7308766424568605,-0.052946638042388486,-1.1483051788673598e-68,-0.5533171884467842,-0.018574215349108737,2.2890570711755418e-66,-0.19796325039881976,0,70,255.0,255.0,255.0
219,10.950000000000001,-4.571787128923255,-1.1445285355877526e-68,-6.758790183748006,-0.05384008481327447,1.3241672115641853e-67,-0.5632290193152342,-0.01716365548633,3.466933846628064e-66,-0.1985099843391721,0,70,255.0,255.0,255.0
220,11.0,-4.5745,0.0,-6.7872,-0.05466300359102149,3.352103328741294e-67,-0.5731681868807015,-0.015753095623551705,4.644810622080544e-66,-0.1990567182795253,0,70,255.0,255.0,255.0
221,11.05,-4.577253177267992,2.073490660003908e-68,-6.816106329688553,-0.055470801506923545,4.575534647020531e-67,-0.5830669895948009,-0.016558821012530145,2.4891465103633444e-67,-0.19689539028444256,0,70,255.0,255.0,255.0
222,11.100000000000001,-4.580047751588516,4.2092099827669e-68,-6.84550489785282,-0.05631888569227453,3.601017979777631e-67,-0.592857725909146,-0.017364546401508585,-4.1469813200078753e-66,-0.1947340622893598,0,70,255.0,255.0,255.0
223,11.15,-4.582885737275043,5.308183975527889e-68,-6.875390301172805,-0.0572072561470744,4.285533270127481e-68,-0.6025403958237368,-0.018170271790486997,-8.542877291051929e-66,-0.1925727342942771,0,70,255.0,255.0,255.0
224,11.200000000000001,-4.585769148641048,4.2714386455259e-68,-6.905757136328529,-0.05813591287132323,-4.941859311274344e-67,-0.6121149993385737,-0.018975997179465437,-1.2938773262096139e-65,-0.19041140629919434,0,70,255.0,255.0,255.0
225,11.25,-4.5887,0.0,-6.9366,-0.05910485586502094,-1.2510219935083268e-66,-0.6215815364536561,-0.019781722568443794,-1.733466923314019e-65,-0.18825007830411167,0,70,255.0,255.0,255.0
226,11.3,-4.59168001480409,-7.738372492154108e-68,-6.967914563828081,-0.0600966334511138,-1.7076127774472348e-66,-0.6310045048198614,-0.019889380875270014,-9.28962124415876e-67,-0.1886686563440911,0,70,255.0,255.0,255.0
227,11.350000000000001,-4.594709753060367,-1.5708985515412192e-67,-6.999700799297021,-0.06109379395254797,-1.3439182059499155e-66,-0.6404484020880654,-0.019997039182096235,1.5476744984308438e-65,-0.18908723438407052,0,70,255.0,255.0,255.0
228,11.4,-4.5977894839146,-1.981041229259303e-67,-7.031959752851919,-0.062096337369323414,-1.5993827901642537e-67,-0.6499132282582684,-0.020104697488922452,3.188245209303217e-65,-0.18950581242404993,0,70,255.0,255.0,255.0
229,11.450000000000001,-4.600919476512556,-1.594122604651583e-67,-7.064692470937881,-0.0631042637014402,1.844327003353319e-66,-0.6593989833304703,-0.020212355795748673,4.828815920175648e-65,-0.18992439046402937,0,70,255.0,255.0,255.0
230,11.5,-4.6041,0.0,-7.0979,-0.06411757294889828,4.6688776411591774e-66,-0.6689056673046713,-0.02032001410257478,6.4693866310480215e-65,-0.19034296850401144,0,70,255.0,255.0,255.0
231,11.55,-4.607330763515649,2.8879999308612527e-67,-7.131582614999129,-0.0651026646886208,6.372897645086886e-66,-0.6783869911257512,-0.019083655486325696,3.466933846627172e-66,-0.1889099843391788,0,70,255.0,255.0,255.0
232,11.600000000000001,-4.610609236170015,5.862673207888187e-67,-7.165737504959105,-0.06602593849753087,5.015571025821898e-66,-0.6877966657385893,-0.01784729687007661,-5.775999861722587e-65,-0.18747700017434618,0,70,255.0,255.0,255.0
233,11.65,-4.613932327066556,7.393346519484423e-67,-7.200361087419517,-0.06688739437562846,5.968977833644285e-67,-0.6971346911431857,-0.01661093825382757,-1.1898693108107674e-64,-0.1860440160095136,0,70,255.0,255.0,255.0
234,11.700000000000001,-4.617296945308731,5.949346554053744e-67,-7.235449779919953,-0.06768703232291362,-6.883122082285841e-66,-0.7064010673395408,-0.015374579637578486,-1.802138635449298e-64,-0.18461103184468095,0,70,255.0,255.0,255.0
235,11.75,-4.6207,0.0,-7.271,-0.0684248523393863,-1.7424488571128383e-65,-0.7155957943276537,-0.014138221021329445,-2.4144079600878067e-64,-0.18317804767984835,0,70,255.0,255.0,255.0
236,11.8,-4.624139331133312,-1.07781624742296e-66,-7.307008576175408,-0.06915670779440641,-2.378397780290031e-65,-0.7247435306771299,-0.015135997179474418,-1.2938773262092784e-65,-0.1827314062991947,0,70,255.0,255.0,255.0
237,11.850000000000001,-4.627616502259573,-2.1879794280011524e-66,-7.3434739808665634,-0.06993845205733376,-1.8718365897337683e-65,-0.7338689349575734,-0.01613377333761939,2.155632494845951e-64,-0.18228476491854106,0,70,255.0,255.0,255.0
238,11.9,-4.631134007819177,-2.7592344848678386e-66,-7.380395097470014,-0.07077008512816835,-2.227652854441286e-66,-0.742972007168984,-0.01713154949576433,4.440652722312749e-64,-0.18183812353788742,0,70,255.0,255.0,255.0
239,11.950000000000001,-4.634694342252521,-2.22032636115634e-66,-7.417770809382311,-0.07165160700691019,2.568816132579004e-65,-0.7520527473113622,-0.0181293256539093,6.725672949779627e-64,-0.18139148215723377,0,70,255.0,255.0,255.0
240,12.0,-4.6383,0.0,-7.4556,-0.07258301769355928,6.502907664335435e-65,-0.7611111553847073,-0.01912710181205457,9.010693177246423e-64,-0.18094484077657835,0,70,255.0,255.0,255.0
241,12.05,-4.641952711951102,4.022464996605714e-66,-7.493881480299243,-0.07351850413375406,8.876301356651435e-65,-0.7701428861657231,-0.018292355795736102,4.828815920174378e-65,-0.1803243904640526,0,70,255.0,255.0,255.0
242,12.100000000000001,-4.645651154791696,8.165650391215791e-66,-7.532613771574646,-0.07441225327313292,6.985789256352882e-65,-0.7791435944311128,-0.017457609779417637,-8.044929993211548e-64,-0.17970394015152688,0,70,255.0,255.0,255.0
243,12.15,-4.649393241656735,1.0297603287522915e-65,-7.571795322700427,-0.07526426511169582,8.313713634400678e-66,-0.7881132801808758,-0.0166228637630992,-1.657274157844023e-63,-0.17908348983900116,0,70,255.0,255.0,255.0
244,12.200000000000001,-4.653176885681185,8.286370789219984e-66,-7.611424582550806,-0.07607453964944283,-9.58695232208744e-65,-0.797051943415013,-0.015788117746780732,-2.5100553163669214e-63,-0.1784630395264754,0,70,255.0,255.0,255.0
245,12.25,-4.657,0.0,-7.6515,-0.07684307688637387,-2.42691818002289e-64,-0.8059595841335233,-0.014953371730462184,-3.36283647488979e-63,-0.1778425892139497,0,70,255.0,255.0,255.0
246,12.3,-4.660861021062277,-1.50120437389999e-65,-7.692019902627624,-0.07760127567057533,-3.312680764631571e-64,-0.8148289246599888,-0.015374579637595526,-1.802138635448836e-64,-0.1769310318446651,0,70,255.0,255.0,255.0
247,12.350000000000001,-4.664760478573648,-3.047462213686202e-65,-7.732982132834859,-0.07838053485013345,-2.6071320435677763e-64,-0.8236526873179901,-0.01579578754472887,3.0024087478000227e-63,-0.17601947447538052,0,70,255.0,255.0,255.0
248,12.4,-4.6686994255538785,-3.843117866522381e-65,-7.774384411728281,-0.0791808544250482,-3.1027201683161636e-65,-0.8324308721075268,-0.016216995451862195,6.185031359144816e-63,-0.175107917106096,0,70,255.0,255.0,255.0
249,12.450000000000001,-4.672678915022741,-3.0925156795723595e-65,-7.816224460414471,-0.08000223439531967,3.577899315577074e-64,-0.8411634790285997,-0.01663820335899554,9.367653970489723e-63,-0.1741963597368114,0,70,255.0,255.0,255.0
250,12.5,-4.6767,0.0,-7.8585,-0.08084467476094775,9.057381953658017e-64,-0.849850508081208,-0.017059411266128643,1.2550276581834516e-62,-0.17328480236752597,0,70,255.0,255.0,255.0
251,12.55,-4.680763203799792,5.602570995939388e-65,-7.901208509190266,-0.0816763931839484,1.236309292286114e-63,-0.8584774151943263,-0.016209325653896822,6.725672949777911e-64,-0.17179148215720336,0,70,255.0,255.0,255.0
252,12.600000000000001,-4.684866930913718,1.1373283815623229e-64,-7.944346497085925,-0.08246560732633747,9.729949248635813e-64,-0.8670296562969285,-0.015359240041665,-1.1205141991878934e-62,-0.17029816194688077,0,70,255.0,255.0,255.0
253,12.65,-4.689009056127748,1.4342711137337235e-64,-7.987910230386451,-0.08321231718811489,1.1579509309824546e-64,-0.8755072313890144,-0.014509154429433208,-2.308285127873524e-62,-0.16880484173655821,0,70,255.0,255.0,255.0
254,12.700000000000001,-4.693187454227853,1.1541425639367445e-64,-8.031895975791317,-0.08391652276928077,-1.3352902030099554e-63,-0.8839101404705844,-0.013659068817201385,-3.496056056559197e-62,-0.16731152152623563,0,70,255.0,255.0,255.0
255,12.75,-4.6974,0.0,-8.0763,-0.08457822406983503,-3.3802609634609177e-63,-0.8922383835416379,-0.01280898320496937,-4.683826985244826e-62,-0.1658182013159113,0,70,255.0,255.0,255.0
256,12.8,-4.701645363738558,-2.090907960985756e-64,-8.121119660611315,-0.08524515159362892,-4.6139690926812985e-63,-0.9005574145626987,-0.013868117746785084,-2.5100553163662694e-63,-0.16694303952651882,0,70,255.0,255.0,255.0
257,12.850000000000001,-4.705925397771481,-4.244567304880671e-64,-8.166356678821447,-0.08596503584451355,-3.6312664950975474e-63,-0.90893268749429,-0.014927252288600798,4.181815921971572e-62,-0.1680678777371263,0,70,255.0,255.0,255.0
258,12.9,-4.7102427499351265,-5.3527726682826546e-64,-8.21201386672592,-0.08673787682248897,-4.3215317070982115e-64,-0.9173642023364114,-0.015986386830416473,8.614637375579615e-62,-0.16919271594773377,0,70,255.0,255.0,255.0
259,12.950000000000001,-4.714600068065847,-4.307318687789738e-64,-8.258094036420262,-0.0875636745275552,4.983370880482115e-63,-0.9258519590890633,-0.017045521372232187,1.3047458829187815e-61,-0.1703175541583413,0,70,255.0,255.0,255.0
260,13.0,-4.719,0.0,-8.3046,-0.08844242895971219,1.2615305658477868e-62,-0.9343959577522454,-0.01810465591404742,1.7480280282795858e-61,-0.17144239236894876,0,70,255.0,255.0,255.0
261,13.05,-4.723444141245981,7.803374744349085e-64,-8.351532848364478,-0.08931100044153827,1.721956707843908e-62,-0.9428929265548891,-0.016638203358995286,9.367653970487328e-63,-0.16843635973679122,0,70,255.0,255.0,255.0
262,13.100000000000001,-4.727929878000358,1.5840940837960358e-63,-8.398886787628298,-0.09010624929561174,1.3552071055526613e-62,-0.9512395937259247,-0.015171750803943155,-1.5606749488698393e-61,-0.1654303271046337,0,70,255.0,255.0,255.0
263,13.15,-4.7324535441317455,1.9976819559396897e-63,-8.446654302709879,-0.09082817552193258,1.612817589741038e-63,-0.9594359592653523,-0.013705298248891074,-3.215026437444494e-61,-0.16242429447247628,0,70,255.0,255.0,255.0
264,13.200000000000001,-4.737011473508756,1.607513218722221e-63,-8.494827878527639,-0.09147677912050084,-1.8598193318918502e-62,-0.9674820231731722,-0.012238845693838943,-4.869377926019206e-61,-0.15941826184031876,0,70,255.0,255.0,255.0
265,13.25,-4.7416,0.0,-8.5434,-0.09205206009131646,-4.7080961670450555e-62,-0.9753777854493841,-0.010772393138786529,-6.52372941459386e-61,-0.15641222920815956,0,70,255.0,255.0,255.0
266,13.3,-4.746216471277521,-2.9122591016410586e-63,-8.592364945930779,-0.09261484664021585,-6.4264299221075025e-62,-0.9832308792177434,-0.011739068817188772,-3.4960560565582997e-62,-0.15771152152620546,0,70,255.0,255.0,255.0
267,13.350000000000001,-4.750862290227087,-5.911919604696076e-63,-8.641724170665373,-0.09322596697303535,-5.0577017727008886e-62,-0.9911489376020048,-0.012705744495591014,5.8245182032822e-61,-0.15901081384425136,0,70,255.0,255.0,255.0
268,13.4,-4.7555398735378915,-7.455450556930493e-63,-8.691480922434579,-0.09388542108977495,-6.01911718825432e-63,-0.9991319606021685,-0.013672420173993224,1.1998642012220011e-60,-0.16031010616229724,0,70,255.0,255.0,255.0
269,13.450000000000001,-4.76025163789913,-5.99932100610991e-63,-8.741638449469189,-0.09459320899043468,6.940940239519189e-62,-1.0071799482182346,-0.014639095852395466,1.8172765821158042e-60,-0.16160939848034314,0,70,255.0,255.0,255.0
270,13.5,-4.765,0.0,-8.7922,-0.09534933067501448,1.7570854102332436e-61,-1.0152929004502027,-0.015605771530797452,2.4346889630095855e-60,-0.16290869079838366,0,70,255.0,255.0,255.0
271,13.55,-4.769786773643931,1.0868698932129327e-62,-8.843167367912407,-0.09611761299759078,2.39837629805861e-61,-1.0233835565741223,-0.015125521372253484,1.304745882918446e-61,-0.16071755415839595,0,70,255.0,255.0,255.0
272,13.600000000000001,-4.774611361091294,2.2063584334988275e-62,-8.894536529710212,-0.09686188281223986,1.8875599985250896e-61,-1.0313646558660425,-0.014645271213709518,-2.1737397864258963e-60,-0.1585264175184082,0,70,255.0,255.0,255.0
273,13.65,-4.779472561716689,2.7824120271782277e-62,-8.946302007551813,-0.09758214011896171,2.246365116327624e-62,-1.0392361983259633,-0.014165021055165568,-4.477954161143555e-60,-0.15633528087842058,0,70,255.0,255.0,255.0
274,13.700000000000001,-4.784369174894724,2.2389770805717425e-62,-8.99845832359561,-0.0982783849177564,-2.5903941626184904e-61,-1.0469981839538844,-0.013684770896621602,-6.782168535861296e-60,-0.15414414423843287,0,70,255.0,255.0,255.0
275,13.75,-4.7893,0.0,-9.051,-0.09895061720862386,-6.557532024228469e-61,-1.0546506127498065,-0.013204520738077097,-9.086382910578956e-60,-0.151953007598447,0,70,255.0,255.0,255.0
276,13.8,-4.794264434146752,-4.056253662687624e-62,-9.10392238241959,-0.09963470136942165,-8.95086220002369e-61,-1.0622428944857754,-0.014158845693834202,-4.869377926017946e-61,-0.15173826184030262,0,70,255.0,255.0,255.0
277,13.850000000000001,-4.799264265407739,-8.234241773525701e-62,-9.15722411049378,-0.1003665017780073,-7.044469816830271e-61,-1.069824438933837,-0.015113170649591307,8.112507325375366e-60,-0.15152351608215822,0,70,255.0,255.0,255.0
278,13.9,-4.804301879595349,-1.0384103053019864e-61,-9.210904647358173,-0.10114601843438077,-8.383548746485077e-62,-1.077395246093991,-0.016067495605348377,1.6711952443352221e-59,-0.15130877032401385,0,70,255.0,255.0,255.0
279,13.950000000000001,-4.809379662521973,-8.355976221675976e-62,-9.26496345614838,-0.10197325133854213,9.667482626522041e-61,-1.0849553159662384,-0.01702182056110548,2.5311397561329384e-59,-0.15109402456586948,0,70,255.0,255.0,255.0
280,14.0,-4.8145,0.0,-9.3194,-0.10284820049049133,2.4473042686680634e-60,-1.092504648550578,-0.017976145516861997,3.391084267930623e-59,-0.15087927880772511,0,70,255.0,255.0,255.0
281,14.05,-4.819664289769061,1.5138144757537568e-61,-9.374213502409235,-0.10371158152472267,3.3405072502036155e-60,-1.1000288654827794,-0.016559095852390685,1.817276582115332e-60,-0.15008939848033334,0,70,255.0,255.0,255.0
282,14.100000000000001,-4.824869977277752,3.0730608660603977e-61,-9.429402228314672,-0.10450411007573042,2.6290319268796e-60,-1.1075135883986116,-0.01514204618791937,-3.0276289515075565e-59,-0.14929951815294157,0,70,255.0,255.0,255.0
283,14.15,-4.8301135199019125,3.875400018490121e-61,-9.48496420301549,-0.10522578614351459,3.128782986961275e-61,-1.1149588172980738,-0.013724996523448107,-6.236985561226532e-59,-0.14850963782554985,0,70,255.0,255.0,255.0
284,14.200000000000001,-4.835391375017382,3.118492780613216e-61,-9.540897451810874,-0.10587660972807522,-3.607953634346966e-60,-1.1223645521811665,-0.012307946858976796,-9.446342170945622e-59,-0.14771975749815808,0,70,255.0,255.0,255.0
285,14.25,-4.8407,0.0,-9.5972,-0.10645658082941226,-9.133463872249406e-60,-1.1297307930478893,-0.0108908971945052,-1.2655698780664596e-58,-0.146929877170761,0,70,255.0,255.0,255.0
286,14.3,-4.846036806777007,-5.649632536746263e-61,-9.653870007943471,-0.10702297253169055,-1.2466942780812092e-59,-1.1370656435831188,-0.011764770896625854,-6.782168535859528e-60,-0.1464641442384174,0,70,255.0,255.0,255.0
287,14.350000000000001,-4.851403025481255,-1.146881928688902e-60,-9.710906176247537,-0.10763305791907486,-9.81168072583537e-60,-1.144377207471731,-0.01263864459874651,1.129926507349269e-58,-0.1459984113060738,0,70,255.0,255.0,255.0
288,14.4,-4.856800840796999,-1.44631897686585e-60,-9.768307340579868,-0.10828683699156519,-1.1676777073196577e-60,-1.1516654847137262,-0.013512518300867133,2.3276747000570907e-58,-0.1455326783737302,0,70,255.0,255.0,255.0
289,14.450000000000001,-4.862232437408497,-1.1638373500285267e-60,-9.826072336608133,-0.10898430974916157,1.3465066274735661e-59,-1.158930475309104,-0.014386392002987788,3.525422892764954e-58,-0.1450669454413866,0,70,255.0,255.0,255.0
290,14.5,-4.8677,0.0,-9.8842,-0.10972547619186396,3.408655122032956e-59,-1.166172179257865,-0.01526026570510819,4.723171085472776e-58,-0.14460121250904479,0,70,255.0,255.0,255.0
291,14.55,-4.873205283122915,2.1084715671231296e-60,-9.942688865816887,-0.11048452834851899,4.6527263873044745e-59,-1.1733725601847376,-0.015101820561092702,2.531139756132283e-59,-0.14341402456585398,0,70,255.0,255.0,255.0
292,14.600000000000001,-4.878748320797232,4.280221628149568e-60,-10.001536266695188,-0.11123565824797325,3.6617690976461875e-59,-1.1805135817144508,-0.014943375417077217,-4.2169431342463195e-58,-0.14222683662266317,0,70,255.0,255.0,255.0
293,14.65,-4.884328716910091,5.397735905614388e-60,-10.060739234665046,-0.11197886589022671,4.3578325305824936e-60,-1.1875952438470039,-0.014784930273061735,-8.687000244105709e-58,-0.14103964867947238,0,70,255.0,255.0,255.0
294,14.700000000000001,-4.889946075348636,4.3435001220527863e-60,-10.120294801756604,-0.11271415127527941,-5.02523114645957e-59,-1.1946175465823978,-0.014626485129046247,-1.3157057353965257e-57,-0.1398524607362816,0,70,255.0,255.0,255.0
295,14.75,-4.8956,0.0,-10.1802,-0.11344151440313131,-1.2721274100906883e-58,-1.2015804899206322,-0.014468039985030656,-1.7627114463824643e-57,-0.13866527279308904,0,70,255.0,255.0,255.0
296,14.8,-4.901290060731336,-7.868923014817891e-60,-10.240452128788982,-0.11415891407423182,-1.7364211271136687e-58,-1.2085001156779147,-0.014227946858989267,-9.446342170943164e-59,-0.13811975749820923,0,70,255.0,255.0,255.0
297,14.850000000000001,-4.907015691329819,-1.5974004583909365e-59,-10.301049556971714,-0.11486430908903025,-1.3665908318001213e-58,-1.2153924656704531,-0.01398785373294788,1.573784602963601e-57,-0.13757424220332942,0,70,255.0,255.0,255.0
298,14.9,-4.912776291562634,-2.0144624645591702e-59,-10.361990920759949,-0.11555769944752661,-1.6263652415010255e-59,-1.2222575398982476,-0.013747760606906499,3.2420326276365743e-57,-0.1370287269084496,0,70,255.0,255.0,255.0
299,14.950000000000001,-4.918571261196965,-1.6210163138182625e-59,-10.423274856365458,-0.11623908514972091,1.8754417958364706e-58,-1.2290953383612981,-0.01350766748086511,4.9102806523096073e-57,-0.1364832116135698,0,70,255.0,255.0,255.0
300,15.0,-4.9244,0.0,-10.4849,-0.11690846619561311,4.7476441281594574e-58,-1.2359058610596045,-0.01326757435482373,6.57852867698258e-57,-0.13593769631869002,0,70,255.0,255.0,255.0
301,15.05,-4.930261673951745,2.9367220492148433e-59,-10.54686501902718,-0.11755181535455808,6.480411869724227e-58,-1.2426909771036063,-0.012466392002975113,3.525422892764037e-58,-0.135466945441377,0,70,255.0,255.0,255.0
302,15.100000000000001,-4.936154513883497,5.961579670748791e-59,-10.609168705417964,-0.11815510539591065,5.100186417435866e-58,-1.2494525556037424,-0.011665209651126496,-5.873444098429773e-57,-0.13499619456406398,0,70,255.0,255.0,255.0
303,15.15,-4.942076516839376,7.5180762676752415e-59,-10.671809882295157,-0.11871833631967074,6.069677712945849e-59,-1.2561905965600126,-0.010864027299277906,-1.2099430486135729e-56,-0.13452544368675098,0,70,255.0,255.0,255.0
304,15.200000000000001,-4.948025679863503,6.049715243067769e-59,-10.734787372781566,-0.11924150812583842,-6.999244068699929e-58,-1.2629050999724176,-0.01006284494742929,-1.8325416873841909e-56,-0.13405469280943796,0,70,255.0,255.0,255.0
305,15.25,-4.954,0.0,-10.7981,-0.11972462081441368,-1.7718449102547141e-57,-1.2695960658409564,-0.009261662595580367,-2.455140326154785e-56,-0.13358394193212497,0,70,255.0,255.0,255.0
306,15.3,-4.9599984434616875,-1.0959995895377584e-58,-10.861746195102299,-0.12022582450752957,-2.418522635178324e-57,-1.2762399759076661,-0.010786485129054911,-1.3157057353961787e-57,-0.13217246073626573,0,70,255.0,255.0,255.0
307,15.350000000000001,-4.966023853136198,-2.2248918224604224e-58,-10.92572282135644,-0.12080326932731919,-1.9034154837943338e-57,-1.2828133119145833,-0.012311307662529457,2.1919991790755493e-56,-0.13076097954040652,0,70,255.0,255.0,255.0
308,15.4,-4.972080041079864,-2.80578426061418e-58,-10.990026350059427,-0.1214569552737825,-2.2652345610282413e-58,-1.2893160738617069,-0.013836130196003948,4.515568931690634e-56,-0.12934949834454734,0,70,255.0,255.0,255.0
309,15.450000000000001,-4.97817081934902,-2.2577844658452805e-58,-11.05465325250828,-0.12218688234691957,2.612153447896324e-57,-1.295748261749038,-0.015360952729478492,6.8391386843058005e-56,-0.1279380171486881,0,70,255.0,255.0,255.0
310,15.5,-4.9843,0.0,-11.1196,-0.12299305054673033,6.61261522820291e-57,-1.3021098755765756,-0.01688577526295265,9.162708436920882e-56,-0.12652653595283248,0,70,255.0,255.0,255.0
311,15.55,-4.990470152201506,4.09032615322955e-58,-11.184863800563631,-0.1238008866153261,9.026049353740873e-57,-1.3084451192657356,-0.015427667480877674,4.910280652308326e-57,-0.1268832116135595,0,70,255.0,255.0,255.0
312,15.600000000000001,-4.996678873571716,8.30340932276681e-58,-11.250444809156292,-0.12453581729481814,7.103643293433748e-57,-1.3147981967379316,-0.013969559698802694,-8.180652306459217e-56,-0.12723988727428656,0,70,255.0,255.0,255.0
313,15.65,-5.00292251884117,1.0471329415689194e-57,-11.31634391746714,-0.12519784258520636,8.453970472818377e-58,-1.3211691079931642,-0.012511451916727768,-1.685233267814896e-55,-0.1275965629350136,0,70,255.0,255.0,255.0
314,15.700000000000001,-5.009197442740416,8.426166339074345e-58,-11.382562017185325,-0.1257869624864909,-9.748689384715302e-57,-1.3275578530314331,-0.011053344134652789,-2.552401304983901e-55,-0.12795323859574062,0,70,255.0,255.0,255.0
315,15.75,-5.0155,0.0,-11.4491,-0.12630317699867166,-2.4678616002556925e-56,-1.333964431852738,-0.009595236352577974,-3.4195693421528755e-55,-0.12830991425646232,0,70,255.0,255.0,255.0
316,15.8,-5.021827347732289,-1.526530502338044e-57,-11.51595780264319,-0.126794629031171,-3.3685674779785173e-56,-1.340331547029386,-0.010062844947395184,-1.8325416873837157e-56,-0.12637469280945407,0,70,255.0,255.0,255.0
317,15.850000000000001,-5.0281798525769466,-3.098874546860682e-57,-11.583131542018402,-0.12730946149341119,-2.651115768994067e-56,-1.3466019011336834,-0.010530453542212395,3.0530610046761324e-55,-0.12443947136244583,0,70,255.0,255.0,255.0
318,15.9,-5.034558683555459,-3.9079533402142605e-57,-11.650616380072016,-0.12784767438539224,-3.1550647330245234e-57,-1.3527754941656305,-0.010998062137029588,6.289376178090521e-55,-0.12250424991543765,0,70,255.0,255.0,255.0
319,15.950000000000001,-5.040965009689315,-3.1446880890452124e-57,-11.718407478750423,-0.12840926770711417,3.6382604090964875e-56,-1.3588523261252272,-0.0114656707318468,9.525691351505024e-55,-0.12056902846842942,0,70,255.0,255.0,255.0
320,16.0,-5.0474,0.0,-11.7865,-0.1289942414585769,9.210184878202479e-56,-1.3648323970124734,-0.011933279326663104,1.276200652491941e-54,-0.11863380702141768,0,70,255.0,255.0,255.0
321,16.05,-5.053864456869338,5.69708939402922e-57,-11.854889788863622,-0.1295805972599811,1.257166497653998e-55,-1.3707566926167258,-0.01152095272950388,6.8391386843040355e-56,-0.11833801714867746,0,70,255.0,255.0,255.0
322,16.1,-5.0603577161205004,1.1565157255166046e-56,-11.923575422770115,-0.1301463367315273,9.894098746632893e-56,-1.3766661987273414,-0.011108626132344656,-1.1394178788058603e-54,-0.11804222727593724,0,70,255.0,255.0,255.0
323,16.150000000000002,-5.066878746936993,1.4584680419288137e-56,-11.992556162244796,-0.1306914598732156,1.177486188481212e-56,-1.3825609153443197,-0.010696299535185432,-2.3472271444547613e-54,-0.11774643740319703,0,70,255.0,255.0,255.0
324,16.2,-5.073426518502323,1.1736135722273647e-56,-12.061831267812982,-0.13121596668504582,-1.3578172697913794e-55,-1.3884408424676609,-0.010283972938026237,-3.555036410103576e-54,-0.11745064753045682,0,70,255.0,255.0,255.0
325,16.25,-5.08,0.0,-12.1314,-0.13171985716701817,-3.437287791255422e-55,-1.3943059800973652,-0.009871646340867457,-4.762845675752477e-54,-0.1171548576577095,0,70,255.0,255.0,255.0
326,16.3,-5.086598824790358,-2.126182707377884e-56,-12.201261441902332,-0.1322429819289062,-4.69180924281814e-55,-1.4001456825037013,-0.011053344134653304,-2.552401304983248e-55,-0.11643323859572802,0,70,255.0,255.0,255.0
327,16.35,-5.093225282941052,-4.31617544738035e-56,-12.271413966901152,-0.13282519158048353,-3.692527921753751e-55,-1.4059493039569382,-0.01223504192843915,4.2523654147558273e-54,-0.11571161953374653,0,70,255.0,255.0,255.0
328,16.400000000000002,-5.099882328696568,-5.44307683369383e-56,-12.34185577094881,-0.13346648612175013,-4.394438280622522e-56,-1.411716844457076,-0.013416739722224997,8.75997096000998e-54,-0.11499000047176505,0,70,255.0,255.0,255.0
329,16.45,-5.106572916301388,-4.37998548000493e-56,-12.41258504999764,-0.134166865552706,5.0674430382558836e-55,-1.4174483040041144,-0.014598437516010759,1.3267576505263812e-53,-0.11426838140978363,0,70,255.0,255.0,255.0
330,16.5,-5.1133,0.0,-12.4836,-0.13492632987335118,1.282813267720144e-54,-1.4231436825980543,-0.015780135309796606,1.7775182050517967e-53,-0.11354676234780392,0,70,255.0,255.0,255.0
331,16.55,-5.12006504396923,7.935021890108613e-56,-12.554898843527056,-0.13565547502439215,1.7510070473618564e-54,-1.4288045773684614,-0.013385670731841836,9.525691351502551e-55,-0.11288902846848109,0,70,255.0,255.0,255.0
332,16.6,-5.1268635521152905,1.6108186064004797e-55,-12.626479909625282,-0.1362648969465354,1.3780701812351705e-54,-1.4344325854449025,-0.010991206153887066,-1.5870043780217457e-53,-0.11223129458915826,0,70,255.0,255.0,255.0
333,16.650000000000002,-5.1336895382767365,2.0313839292846505e-55,-12.698341553959981,-0.13675459563978087,1.6400266934008783e-55,-1.4400277068273775,-0.008596741575932296,-3.269265669558517e-53,-0.11157356070983543,0,70,255.0,255.0,255.0
334,16.7,-5.140537016292121,1.634632834779236e-55,-12.77048213219645,-0.1371245711041286,-1.8911954883232165e-54,-1.445589941515886,-0.006202276997977697,-4.951526961095169e-53,-0.11091582683051265,0,70,255.0,255.0,255.0
335,16.75,-5.1474,0.0,-12.8429,-0.1373748233395786,-4.7875242917550335e-54,-1.4511192895104286,-0.0038078124200222607,-6.63378825263194e-53,-0.11025809295118982,0,70,255.0,255.0,255.0
336,16.8,-5.15427459933272,-2.9613904853056566e-55,-12.915593583989454,-0.13763111797353003,-6.53484726516561e-54,-1.4566200080224685,-0.006443972938035262,-3.5550364101027014e-54,-0.1097706475304033,0,70,255.0,255.0,255.0
337,16.85,-5.161165308597786,-6.011656880863883e-55,-12.988561594597732,-0.13801922063338212,-5.143027932765307e-54,-1.462096354263469,-0.009080133456048264,5.922780970611399e-53,-0.10928320210961678,0,70,255.0,255.0,255.0
338,16.900000000000002,-5.16807871819649,-7.581228033769217e-55,-13.061802813211285,-0.13853913131913487,-6.1206629455412596e-55,-1.4675483282334303,-0.011716293974061267,1.2201065582233069e-52,-0.10879575668883026,0,70,255.0,255.0,255.0
339,16.95,-5.175021418530131,-6.100532791116447e-55,-13.135316021216555,-0.1391908500307882,7.058037649467275e-54,-1.472975929932352,-0.01435245449207408,1.847935019385429e-52,-0.10830831126804377,0,70,255.0,255.0,255.0
340,17.0,-5.182,0.0,-13.2091,-0.13997437676834226,1.786728389929999e-53,-1.4783791593602345,-0.01698861501008664,2.4757634805475957e-52,-0.1078208658472537,0,70,255.0,255.0,255.0
341,17.05,-5.189018958699892,1.1052059752211765e-54,-13.283153220515139,-0.14076405308149384,2.4388382013300586e-53,-1.483739390541661,-0.014598437515976592,1.326757650526054e-53,-0.10658838140980186,0,70,255.0,255.0,255.0
342,17.1,-5.196074413493571,2.243580891705505e-54,-13.357472911983802,-0.14143422051993992,1.919404154982606e-53,-1.4890379975012147,-0.012208260021866545,-2.210411950442385e-52,-0.10535589697235,0,70,255.0,255.0,255.0
343,17.150000000000002,-5.203160388937307,2.829352820579222e-54,-13.432055993194899,-0.14198487908368054,2.28426250887642e-54,-1.494274980238896,-0.009818082527756497,-4.5534996659373756e-52,-0.10412341253489815,0,70,255.0,255.0,255.0
344,17.2,-5.210270909587361,2.276749832968655e-54,-13.506899382937325,-0.14241602877271559,-2.6340955109545887e-53,-1.4994503387547045,-0.0074279050336466205,-6.896587381432199e-52,-0.10289092809744639,0,70,255.0,255.0,255.0
345,17.25,-5.2174,0.0,-13.582,-0.14272766958704514,-6.668161130544492e-53,-1.5045640730486405,-0.005037727539535464,-9.23967509692719e-52,-0.101658443659991,0,70,255.0,255.0,255.0
346,17.3,-5.2245431658677175,-4.1246848523541403e-54,-13.657355133949997,-0.14300866970048381,-9.101868078803674e-53,-1.5096384298109027,-0.006202276998011164,-4.951526961093958e-53,-0.1013158268305002,0,70,255.0,255.0,255.0
347,17.35,-5.23170183742793,-8.373157878735632e-54,-13.732963557467068,-0.14334789728684627,-7.163313826653894e-53,-1.5146956557316906,-0.007366826456486864,8.249369704708398e-52,-0.1009732100010094,0,70,255.0,255.0,255.0
348,17.400000000000002,-5.2388789260542845,-1.0559288478939966e-53,-13.808824414009145,-0.1437453523461325,-8.524983740951582e-54,-1.5197357508110039,-0.008531375914962563,1.699389210552619e-51,-0.1006305931715186,0,70,255.0,255.0,255.0
349,17.45,-5.246077343120425,-8.496946052762981e-54,-13.88493684703414,-0.1442010348783425,9.830578278871627e-53,-1.5247587150488424,-0.00969592537343818,2.5738414506343363e-51,-0.10028797634202782,0,70,255.0,255.0,255.0
350,17.5,-5.2533,0.0,-13.9613,-0.14471494488347628,2.488591613224797e-52,-1.5297645484452065,-0.010860474831913658,3.4482936907161165e-51,-0.09994535951253347,0,70,255.0,255.0,255.0
351,17.55,-5.2605491778292395,1.5393533434195383e-53,-14.037912643684884,-0.14524926811657576,3.3968634113884635e-52,-1.5347308902147205,-0.010512454492066099,1.847935019384974e-52,-0.09870831126802988,0,70,255.0,255.0,255.0
352,17.6,-5.267824636794709,3.1249050623237024e-53,-14.114772058147937,-0.1457661903326829,2.673385115163297e-52,-1.5396353795720095,-0.01016443415221854,-3.078706686839122e-51,-0.0974712630235263,0,70,255.0,255.0,255.0
353,17.650000000000002,-5.2751255068455585,3.9407801095180635e-53,-14.191875150768547,-0.14626571153179763,3.181567245492991e-53,-1.5444780165170733,-0.009816413812370979,-6.342206875616741e-51,-0.0962342147790227,0,70,255.0,255.0,255.0
354,17.7,-5.282450917930937,3.1711034378083273e-53,-14.269218828926103,-0.14674783171392,-3.66882176045319e-52,-1.5492588010499118,-0.009468393472523444,-9.605707064394127e-51,-0.09499716653451921,0,70,255.0,255.0,255.0
355,17.75,-5.2898,0.0,-14.3468,-0.14721255087904997,-9.287550339844739e-52,-1.553977733170525,-0.009120373132675885,-1.2869207253171745e-50,-0.09376011829000674,0,70,255.0,255.0,255.0
356,17.8,-5.297172122815327,-5.744944888442739e-53,-14.424615891310477,-0.14767425783320792,-1.2677266837673486e-51,-1.5586540093302126,-0.009347905033641583,-6.896587381430501e-52,-0.09329092809749966,0,70,255.0,255.0,255.0
357,17.85,-5.304567615393238,-1.1662304461421246e-52,-14.502665009941198,-0.14814734138241414,-9.9772090779878e-52,-1.563306825980275,-0.00957543693460728,1.1489889776885645e-50,-0.09282173790499255,0,70,255.0,255.0,255.0
358,17.900000000000002,-5.311987046563486,-1.470719159017826e-52,-14.58094618291668,-0.14863180152666863,-1.1873770607876794e-52,-1.567936183120712,-0.009802968835572978,2.366943829191434e-50,-0.09235254771248547,0,70,255.0,255.0,255.0
359,17.95,-5.3194309851558215,-1.1834719145957004e-52,-14.659458237261438,-0.14912763826597142,1.3692229213925596e-51,-1.5725420807515234,-0.010030500736538658,3.584898680694217e-50,-0.0918833575199784,0,70,255.0,255.0,255.0
360,18.0,-5.3269,0.0,-14.7382,-0.1496348516003225,3.466160974615416e-51,-1.5771245188727094,-0.010258032637503911,4.802853532197086e-50,-0.09141416732745888,0,70,255.0,255.0,255.0
361,18.05,-5.334394330909454,2.1440426210351417e-52,-14.81717019107322,-0.15013370055059647,4.731220393930548e-51,-1.5816770724644456,-0.009695925373454843,2.5738414506336948e-51,-0.09068797634197842,0,70,255.0,255.0,255.0
362,18.1,-5.341912901632341,4.3524312783361275e-52,-14.896367102087291,-0.150604444137668,3.72354511967879e-51,-1.5861933165069073,-0.009133818109405773,-4.288085242070347e-50,-0.08996178535649794,0,70,255.0,255.0,255.0
363,18.150000000000002,-5.349454306900499,5.488798625119497e-52,-14.975788917564758,-0.15104708236153705,4.431351518601393e-52,-1.5906732510000954,-0.008571710845356705,-8.833554629204061e-50,-0.08923559437101748,0,70,255.0,255.0,255.0
364,18.2,-5.357017141445773,4.416777314601968e-52,-15.055433822028146,-0.15146161522220367,-5.1100095095249226e-51,-1.5951168759440089,-0.008009603581307676,-1.3379024016337456e-49,-0.08850940338553706,0,70,255.0,255.0,255.0
365,18.25,-5.3646,0.0,-15.1353,-0.15184804271966781,-1.293588886447719e-50,-1.5995241913386486,-0.007447496317258606,-1.7924493403471167e-49,-0.08778321240005127,0,70,255.0,255.0,255.0
366,18.3,-5.372201753546862,-8.001675995296294e-52,-15.215385744396658,-0.15222293996441164,-1.765715489195484e-50,-1.6039017008120124,-0.007548393472493899,-9.605707064391748e-51,-0.08731716653449978,0,70,255.0,255.0,255.0
367,18.35,-5.379822378077404,-1.6243494667202383e-51,-15.295689781709651,-0.15260288206691722,-1.389645957091638e-50,-1.6082559079920986,-0.007649290627729191,1.6003351990592817e-49,-0.0868511206689483,0,70,255.0,255.0,255.0
368,18.400000000000002,-5.387462125834516,-2.0484475341460158e-51,-15.376210946824315,-0.15298786902718456,-1.6538029013617953e-51,-1.6125868128789074,-0.007750187782964484,3.296727468762481e-49,-0.08638507480339681,0,70,255.0,255.0,255.0
369,18.45,-5.395121249061085,-1.6483637343812172e-51,-15.456948074625982,-0.15337790084521363,1.9070815116707123e-50,-1.6168944154724383,-0.007851084938199769,4.993119738465559e-49,-0.08591902893784537,0,70,255.0,255.0,255.0
370,18.5,-5.4028,0.0,-15.5379,-0.15377297752100452,4.827739448329334e-50,-1.6211787157726918,-0.00795198209343595,6.6895120081687585e-49,-0.08545298307228322,0,70,255.0,255.0,255.0
371,18.55,-5.410498654903102,2.9862661360150035e-51,-15.619065231340164,-0.154174539591754,6.589739917388881e-50,-1.6254201242874986,-0.008110500736543316,3.584898680693328e-50,-0.08420335751998705,0,70,255.0,255.0,255.0
372,18.6,-5.418217586058044,6.062154739047342e-51,-15.700440971074125,-0.15458402759465886,5.186229316398671e-50,-1.6295990515246908,-0.008269019379650681,-5.972532272030093e-49,-0.08295373196769087,0,70,255.0,255.0,255.0
373,18.650000000000002,-5.425957189761437,7.644910274072116e-51,-15.782024095138008,-0.1550014415297191,6.172076453587036e-51,-1.6337154974842678,-0.008427538022758047,-1.2303554412129519e-48,-0.0817041064153947,0,70,255.0,255.0,255.0
374,18.7,-5.433717862309885,6.151777206064676e-51,-15.863811479467921,-0.15542678139693467,-7.117325095730358e-50,-1.63776946216623,-0.008586056665865403,-1.8634576552228495e-48,-0.08045448086309863,0,70,255.0,255.0,255.0
375,18.75,-5.4415,0.0,-15.9458,-0.15586004719630564,-1.8017368906869616e-49,-1.6417609455705775,-0.008744575308973435,-2.4965598692327917e-48,-0.07920485531080246,0,70,255.0,255.0,255.0
376,18.8,-5.449303626840731,-1.1144896944530383e-50,-16.0279869302427,-0.15627890166856312,-2.459324418036004e-49,-1.6457138020379856,-0.008009603581324666,-1.3379024016334144e-49,-0.07890940338552425,0,70,255.0,255.0,255.0
377,18.85,-5.457127277690416,-2.2624269489469126e-50,-16.110371133993862,-0.1566610075544381,-1.935527130850305e-49,-1.64965188590913,-0.007274631853675896,2.2289793889061088e-48,-0.07861395146024605,0,70,255.0,255.0,255.0
378,18.900000000000002,-5.464969115119736,-2.8531193562142443e-50,-16.192951872623677,-0.1570063648539307,-2.3034502912986344e-50,-1.6535751971840105,-0.006539660126027127,4.591749017975559e-48,-0.07831849953496785,0,70,255.0,255.0,255.0
379,18.95,-5.472827301699369,-2.2958745089877486e-50,-16.275728407502324,-0.1573149735670408,2.6562218871250727e-49,-1.6574837358626267,-0.00580468839837841,6.954518647044842e-48,-0.07802304760968966,0,70,255.0,255.0,255.0
380,19.0,-5.4807,0.0,-16.3587,-0.15758683369376852,6.724173617914913e-49,-1.6613775019449795,-0.0050697166707300845,9.317288276114293e-48,-0.07772759568440968,0,70,255.0,255.0,255.0
381,19.05,-5.488586037733971,4.159332164210653e-50,-16.441865447689043,-0.1578618537339919,9.17832368040513e-49,-1.6652286675605363,-0.005931084938204657,4.99311973846434e-49,-0.07631902893786167,0,70,255.0,255.0,255.0
382,19.1,-5.496486903180288,8.443492321882918e-50,-16.52522169295043,-0.158179942187589,7.223485591761353e-49,-1.6690094048387658,-0.00679245320567923,-8.318664328421425e-48,-0.07491046219131366,0,70,255.0,255.0,255.0
383,19.150000000000002,-5.50440474975962,1.064798639744977e-49,-16.608765214367303,-0.15854109905455982,8.596593519835857e-50,-1.6727197137796679,-0.0076538214731538025,-1.7136640630689282e-47,-0.07350189544476565,0,70,255.0,255.0,255.0
384,19.200000000000003,-5.512341730892635,8.568320315344175e-50,-16.69249249052278,-0.15894532433490438,-9.913155038928175e-49,-1.6763595943832423,-0.008515189740628376,-2.595461693295714e-47,-0.07209332869821763,0,70,255.0,255.0,255.0
385,19.25,-5.5203,0.0,-16.7764,-0.15939261802862267,-2.509495758097269e-48,-1.6799290466494894,-0.009376558008102664,-3.4772593235224374e-47,-0.07068476195166618,0,70,255.0,255.0,255.0
386,19.3,-5.528281022223382,-1.552283896238957e-49,-16.860484879001124,-0.15984168339547147,-3.425397030358451e-48,-1.6834675277198592,-0.00858605666584843,-1.8634576552223928e-48,-0.07085448086311992,0,70,255.0,255.0,255.0
387,19.35,-5.536283509588428,-3.1511542338584748e-49,-16.944746894204414,-0.16025122369520753,-2.6958415236195097e-48,-1.6870144947358015,-0.007795555323594194,3.104567792477959e-47,-0.07102419977457367,0,70,255.0,255.0,255.0
388,19.400000000000002,-5.544305485841784,-3.9738826233584816e-49,-17.02918646990714,-0.1606212389278309,-3.208292378804477e-49,-1.6905699476973166,-0.007005053981339959,6.395481350478159e-47,-0.07119391868602741,0,70,255.0,255.0,255.0
389,19.450000000000003,-5.552344974730094,-3.1977406752389026e-49,-17.113804030406573,-0.16095172909334152,3.6996398268587386e-48,-1.6941338866044042,-0.0062145526390857235,9.686394908478356e-47,-0.07136363759748116,0,70,255.0,255.0,255.0
390,19.5,-5.5604,0.0,-17.1986,-0.16124269419173945,9.365565670597584e-48,-1.6977063114570643,-0.0054240512968306565,1.297730846647832e-46,-0.07153335650893311,0,70,255.0,255.0,255.0
391,19.55,-5.5684690733724995,5.793202368534763e-49,-17.28357423630645,-0.1615234126841201,1.278375575339329e-47,-1.7012532215600296,-0.005804688398395324,6.954518647043124e-48,-0.07034304760967486,0,70,255.0,255.0,255.0
392,19.6,-5.576552658465997,1.1760267703245608e-48,-17.368724330231924,-0.16182316303157898,1.0061017535301905e-47,-1.7047406162180319,-0.006185325499959992,-1.1586404737069694e-46,-0.06915273871041659,0,70,255.0,255.0,255.0
393,19.650000000000002,-5.584651706873242,1.483073185368895e-48,-17.454047306004174,-0.1621419452341161,1.1973510163234313e-48,-1.7081684954310712,-0.006565962601524661,-2.3868261338843703e-46,-0.06796242981115834,0,70,255.0,255.0,255.0
394,19.700000000000003,-5.592767170186993,1.1934130669421188e-48,-17.53954018785095,-0.16247975929173147,-1.3807243803542136e-47,-1.7115368591991478,-0.006946599703089328,-3.61501179406177e-46,-0.06677212091190007,0,70,255.0,255.0,255.0
395,19.75,-5.6009,0.0,-17.6252,-0.16283660520442503,-3.4952766924293065e-47,-1.7148457075222612,-0.007327236804653081,-4.8431974542390845e-46,-0.06558181201263835,0,70,255.0,255.0,255.0
396,19.8,-5.6090506842866175,-2.1620525577900096e-48,-17.711023775773082,-0.16318466586805677,-4.770962598321471e-47,-1.7180955860400329,-0.006595189740615604,-2.595461693295019e-47,-0.06441332869823312,0,70,255.0,255.0,255.0
397,19.85,-5.617217856547586,-4.388991657912396e-48,-17.79700858486791,-0.16349612417848658,-3.7548228617588127e-47,-1.7212870403920846,-0.005863142676578127,4.324105115580081e-46,-0.06324484538382788,0,70,255.0,255.0,255.0
398,19.900000000000002,-5.625399686665245,-5.534904479139732e-48,-17.8831515060762,-0.1637709801357146,-4.4685748274132715e-48,-1.724420070578416,-0.005131095612540651,8.907756400489663e-46,-0.06207636206942264,0,70,255.0,255.0,255.0
399,19.950000000000003,-5.633594344521938,-4.4538782002445876e-48,-17.96944961818966,-0.16400923373974066,5.152933538730978e-47,-1.727494676599027,-0.0043990485485031735,1.3491407685399246e-45,-0.060907878755017394,0,70,255.0,255.0,255.0
400,20.0,-5.6418,0.0,-18.0559,-0.16421088499056485,1.3044550202657468e-46,-1.7305108584539175,-0.003667001484464638,1.8075058970308497e-45,-0.05973939544060869,0,70,255.0,255.0,255.0
401,20.05,-5.650015389481031,8.06888999430656e-48,-18.142500260601228,-0.1644099238436533,1.780547481794655e-46,-1.7335004342798686,-0.004294552639072711,9.68639490847571e-47,-0.05984363759743729,0,70,255.0,255.0,255.0
402,20.1,-5.6582415153436605,1.6379939861325022e-47,-18.229250130296457,-0.16464034025447213,1.4013189693505052e-46,-1.7364952222136614,-0.004922103793680783,-1.6137779988613355e-45,-0.0599478797542659,0,70,255.0,255.0,255.0
403,20.150000000000002,-5.666479946465775,2.0656544731190027e-47,-18.316149869691063,-0.16490213422302138,1.66769482933296e-47,-1.7394952222552953,-0.005549654948288856,-3.3244199468074275e-45,-0.060052121911094505,0,70,255.0,255.0,255.0
404,20.200000000000003,-5.674732251725259,1.662209973403623e-47,-18.40319973939045,-0.16519530574930102,-1.9231009774569702e-46,-1.742500434404771,-0.006177206102896928,-5.0350618947535204e-45,-0.060156364067923115,0,70,255.0,255.0,255.0
405,20.25,-5.683,0.0,-18.4904,-0.16551985483331103,-4.868292411820056e-46,-1.7455108586620875,-0.00680475725750429,-6.745703842699491e-45,-0.06026060622475882,0,70,255.0,255.0,255.0
406,20.3,-5.691284557789257,-3.011350741943624e-47,-18.577750381822007,-0.1658636387573263,-6.6450936673464745e-46,-1.7484946768405027,-0.006946599703106095,-3.615011794060784e-46,-0.059092120911851946,0,70,255.0,255.0,255.0
407,20.35,-5.699586482077771,-6.113076778738769e-47,-18.665248493946294,-0.16621451480362165,-5.22979359122614e-46,-1.7514200707532728,-0.0070884421487079005,6.022701483887335e-45,-0.057923635598945075,0,70,255.0,255.0,255.0
408,20.400000000000002,-5.707906127471657,-7.709127444562039e-47,-18.752891415159574,-0.1665724829721971,-6.223921834590541e-47,-1.7542870404003974,-0.007230284594309706,1.2406904147180746e-44,-0.05675515028603821,0,70,255.0,255.0,255.0
409,20.450000000000003,-5.716243848577028,-6.203452073590032e-47,-18.840676224248575,-0.1669375432630526,7.177110555954784e-46,-1.7570955857818769,-0.007372127039911511,1.879110681047416e-44,-0.05558666497313134,0,70,255.0,255.0,255.0
410,20.5,-5.7246,0.0,-18.9286,-0.1673096956761882,1.8168714627014478e-45,-1.7598457068977107,-0.007513969485513083,2.5175309473767117e-44,-0.054418179660222776,0,70,255.0,255.0,255.0
411,20.55,-5.732974379361943,1.1238513968343838e-46,-19.016659812110753,-0.1676555211270389,2.479982718759124e-45,-1.7625368583580938,-0.006319048548515376,1.3491407685395602e-45,-0.05322787875509894,0,70,255.0,255.0,255.0
412,20.6,-5.741364556345256,2.2814313128822573e-46,-19.10485269391839,-0.16794160053103974,1.9517855395554056e-45,-1.7651684947732207,-0.00512412761151767,-2.2477027936687996e-44,-0.052037577849975106,0,70,255.0,255.0,255.0
413,20.650000000000002,-5.749767543647599,2.8770855305129146e-46,-19.193175669670655,-0.1681679338881907,2.3227992509029225e-46,-1.7677406161430915,-0.0039292066745199635,-4.630319664191556e-44,-0.050847276944851263,0,70,255.0,255.0,255.0
414,20.700000000000003,-5.758180353966628,2.3151598320956493e-46,-19.28162576361528,-0.16833452119849177,-2.6785341246362163e-45,-1.770253222467706,-0.0027342857375222563,-7.012936534714311e-44,-0.04965697603972743,0,70,255.0,255.0,255.0
415,20.75,-5.7666,0.0,-19.3702,-0.16844136246194294,-6.780656609623786e-45,-1.7727063137470642,-0.0015393648005248561,-9.395553405236899e-44,-0.04846667513459835,0,70,255.0,255.0,255.0
416,20.8,-5.775024324762974,-4.1942705131431725e-46,-19.458895969734996,-0.16853827673452784,-9.25542150830185e-45,-1.7751338897271278,-0.002337206102871348,-5.035061894752169e-45,-0.04863636406794996,0,70,255.0,255.0,255.0
417,20.85,-5.783454492541206,-8.514417573655152e-46,-19.54771353038016,-0.1686750830722301,-7.28416279909901e-45,-1.7775699501538593,-0.0031350474052178395,8.388541026286465e-44,-0.048806053001301565,0,70,255.0,255.0,255.0
418,20.900000000000002,-5.791892497937949,-1.0737429377595456e-45,-19.636653106157826,-0.16885178147504962,-8.66880482015267e-46,-1.7800144950272583,-0.003932888707564331,1.7280588242048144e-43,-0.04897574193465318,0,70,255.0,255.0,255.0
419,20.950000000000003,-5.800340335556463,-8.6402941210236e-46,-19.72571512129033,-0.16906837194298652,9.996425442949385e-45,-1.7824675243473245,-0.004730730009910823,2.617263545780983e-43,-0.04914543086800479,0,70,255.0,255.0,255.0
420,21.0,-5.8088,0.0,-19.8149,-0.1693248544760407,2.530575497579369e-44,-1.7849290381140586,-0.0055285713122563696,3.5064682673570876e-43,-0.04931511980134928,0,70,255.0,255.0,255.0
421,21.05,-5.817273121586163,1.5653230655738306e-45,-19.90420750894928,-0.169599371934845,3.4541703314448274e-44,-1.7873595827334177,-0.005452127039915354,1.879110681046905e-44,-0.04790666497301144,0,70,255.0,255.0,255.0
422,21.1,-5.8257598734899245,3.177623898173835e-45,-19.993634784560992,-0.16987006718003222,2.7184865656840624e-44,-1.7897197046113598,-0.005375682767574339,-3.1306461311477066e-43,-0.0464982101446736,0,70,255.0,255.0,255.0
423,21.150000000000002,-5.834260064600605,4.00726319798689e-45,-20.08317830569806,-0.17013694021160244,3.235242002970768e-45,-1.792009403747885,-0.0052992384952333235,-6.449203330400103e-43,-0.04508975531633575,0,70,255.0,255.0,255.0
424,21.200000000000003,-5.842773503807525,3.224601665199875e-45,-20.17283455122342,-0.17039999102955558,-3.7307167647161335e-44,-1.7942286801429934,-0.005222794222892309,-9.767760529652501e-43,-0.043681300487997905,0,70,255.0,255.0,255.0
425,21.25,-5.8513,0.0,-20.2626,-0.17065921963389166,-9.444236329355099e-44,-1.7963775337966845,-0.005146349950551299,-1.3086317728904659e-42,-0.04227284565966194,0,70,255.0,255.0,255.0
426,21.3,-5.859839188892377,-5.841865210981005e-45,-20.3524715944679,-0.17090423552609385,-1.2891139174949123e-43,-1.7984837793391715,-0.004654285737535295,-7.012936534712406e-44,-0.04197697603981573,0,70,255.0,255.0,255.0
427,21.35,-5.868390013499099,-1.1859053835329823e-44,-20.4424481313759,-0.1711246482076452,-1.0145529982826347e-43,-1.8005752314006662,-0.0041622215245192915,1.1683730421962177e-42,-0.04168110641996953,0,70,255.0,255.0,255.0
428,21.400000000000002,-5.876951243659631,-1.4955309854188021e-44,-20.53252887104995,-0.17132045767854578,-1.2074087529867784e-44,-1.8026518899811685,-0.003670157311503287,2.4068754497395597e-42,-0.04138523680012333,0,70,255.0,255.0,255.0
429,21.450000000000003,-5.885521649213443,-1.203437724869714e-44,-20.622713073816005,-0.17149166393879553,1.392322451456959e-43,-1.8047137550806784,-0.0031780930984872833,3.6453778572829014e-42,-0.04108936718027712,0,70,255.0,255.0,255.0
430,21.5,-5.8941,0.0,-20.713,-0.1716382669883945,3.524636981984102e-43,-1.806760826699196,-0.0026860288854708703,4.883880264826156e-42,-0.04079349756042561,0,70,255.0,255.0,255.0
431,21.55,-5.902685322844328,2.1802137778350187e-44,-20.803388513179122,-0.1717756859607787,4.811038636835166e-43,-1.8087692999099072,-0.0028107300098976678,2.617263545780278e-43,-0.039545430868022875,0,70,255.0,255.0,255.0
432,21.6,-5.911277672513682,4.4258591443145455e-44,-20.89387588993542,-0.17191933998938427,3.786363336562133e-43,-1.8107153697859981,-0.0029354311343244657,-4.3604275556701e-42,-0.03829736417562014,0,70,255.0,255.0,255.0
433,21.650000000000002,-5.919877360760871,5.581397621876518e-44,-20.984459010102146,-0.17206922907421116,4.506110811650032e-44,-1.812599036327469,-0.0030601322587512636,-8.982581465918229e-42,-0.037049297483217405,0,70,255.0,255.0,255.0
434,21.700000000000003,-5.928484699338707,4.491290732958866e-44,-21.07513475351259,-0.1722253532152594,-5.196218129356223e-43,-1.8144202995343202,-0.003184833383178061,-1.3604735376166356e-41,-0.035801230790814674,0,70,255.0,255.0,255.0
435,21.75,-5.9371,0.0,-21.1659,-0.17238771241252895,-1.3154124295000899e-42,-1.8161791594065506,-0.00330953450760485,-1.8226889286414156e-41,-0.034553164098412026,0,70,255.0,255.0,255.0
436,21.8,-5.945723519730309,-8.136668590241974e-44,-21.256751952815616,-0.1725530206307915,-1.795504062984575e-42,-1.817895021021208,-0.0033027942228968763,-9.76776052964987e-43,-0.03408130048788464,0,70,255.0,255.0,255.0
437,21.85,-5.954355296446176,-1.6517531193725202e-43,-21.347689108882445,-0.17271799183481865,-1.4130900347965893e-42,-1.819587289455339,-0.003296053938188903,1.6273337180484182e-41,-0.033609436877357256,0,70,255.0,255.0,255.0
438,21.900000000000002,-5.9629953132968865,-2.083005950208727e-43,-21.43871028854148,-0.17288262602461038,-1.6817034493613345e-43,-1.8212559647089437,-0.0032893136534809294,3.352345041393336e-41,-0.03313757326682987,0,70,255.0,255.0,255.0
439,21.950000000000003,-5.971643553431733,-1.6761725206965745e-43,-21.52981431213367,-0.17304692320016676,1.939255006596794e-42,-1.8229010467820221,-0.003282573368772956,5.077356364738252e-41,-0.032665709656302486,0,70,255.0,255.0,255.0
440,22.0,-5.9803,0.0,-21.621,-0.1732108833614877,4.909186019801949e-42,-1.824522535674574,-0.003275833084065205,6.802367688083047e-41,-0.03219384604577158,0,70,255.0,255.0,255.0
441,22.05,-5.9889645982344355,3.036646058313288e-43,-21.712266075558425,-0.17337223151605152,6.700912388254785e-42,-1.8261146160052273,-0.0031780930984870877,3.6453778572819136e-42,-0.0314893671803631,0,70,255.0,255.0,255.0
442,22.1,-5.997637141701617,6.1644265630586255e-43,-21.803610874534805,-0.17352869267133642,5.273723805530147e-42,-1.8276714723926104,-0.0030803531129089705,-6.073292116626664e-41,-0.030784888314954607,0,70,255.0,255.0,255.0
443,22.150000000000002,-6.006317386051582,7.773884038647256e-43,-21.895032635731965,-0.17368026682734242,6.27620271628034e-43,-1.829193104836723,-0.0029826131273308536,-1.2511122018981518e-40,-0.03008040944954612,0,70,255.0,255.0,255.0
444,22.200000000000003,-6.015005086934364,6.255561009490415e-43,-21.986529597952757,-0.17382695398406953,-7.237398213451552e-42,-1.8306795133375648,-0.0028848731417527363,-1.8948951921336375e-40,-0.029375930584137636,0,70,255.0,255.0,255.0
445,22.25,-6.0237,0.0,-22.0781,-0.17396875414151772,-1.8321331649707707e-41,-1.8321306978951364,-0.002787133156174848,-2.538678182369077e-40,-0.028671451718723873,0,70,255.0,255.0,255.0
446,22.3,-6.032402087331949,-1.1332917374228954e-42,-22.169742144950686,-0.17411805330500196,-2.5008145490034554e-41,-1.8335505149578752,-0.0031848333831950237,-1.360473537616266e-41,-0.02812123079083228,0,70,255.0,255.0,255.0
447,22.35,-6.041112136747356,-2.3005953132861983e-42,-22.26145459297835,-0.17428723747983724,-1.9681805187323989e-41,-1.8349428209742198,-0.0035825336102151997,2.2665834748458236e-40,-0.027571009862940685,0,70,255.0,255.0,255.0
448,22.400000000000002,-6.049831142496789,-2.90125302043803e-42,-22.353235968530672,-0.17447630666602348,-2.342310741575994e-42,-1.8363076159441696,-0.003980233837235375,4.669214303453274e-40,-0.027020788935049087,0,70,255.0,255.0,255.0
449,22.450000000000003,-6.058560098830815,-2.3346071517265075e-42,-22.44508489605533,-0.17468526086356076,2.7010337847209424e-41,-1.8376448998677246,-0.004377934064255551,7.071845132060724e-40,-0.026470568007157493,0,70,255.0,255.0,255.0
450,22.5,-6.0673,0.0,-22.537,-0.17491410007244904,6.837614057902887e-41,-1.838954672744885,-0.004775634291275255,9.474475960668006e-40,-0.025920347079262385,0,70,255.0,255.0,255.0
451,22.55,-6.07605105243777,4.2295023438602537e-42,-22.628979744638833,-0.1751155552639498,9.333166957188346e-41,-1.840227324163273,-0.003282573368755882,5.077356364736891e-41,-0.024985709656250406,0,70,255.0,255.0,255.0
452,22.6,-6.084810311308959,8.585938596838932e-42,-22.72102195355181,-0.17524235740932462,7.345349694376584e-41,-1.8414532437105102,-0.0017895124462365096,-8.459004687720628e-40,-0.024051072233238432,0,70,255.0,255.0,255.0
453,22.650000000000002,-6.093574043961266,1.0827623677887393e-41,-22.81312429014537,-0.17529450650857345,8.741622694675943e-42,-1.8426324313865967,-0.000296451523717137,-1.7425745011914946e-39,-0.023116434810226454,0,70,255.0,255.0,255.0
454,22.700000000000003,-6.102338517742382,8.712872505956993e-42,-22.90528441782595,-0.17527200256169634,-1.0080395317538606e-40,-1.8437648871915329,0.0011966093988022355,-2.639248533610926e-39,-0.02218179738721448,0,70,255.0,255.0,255.0
455,22.75,-6.1111,0.0,-22.9975,-0.17517484556869325,-2.551832306664078e-40,-1.8448506111253185,0.0026896703213215023,-3.5359225660302933e-39,-0.021247159964197238,0,70,255.0,255.0,255.0
456,22.8,-6.119856102916977,-1.5784717638018115e-41,-23.08976847649398,-0.1750837256392034,-3.4831853279749924e-40,-1.8458761883890273,0.0009551268582720794,-1.8948951921331212e-40,-0.019775930584154347,0,70,255.0,255.0,255.0
457,22.85,-6.128609818016807,-3.2043159074069525e-41,-23.18208639281442,-0.17507933288286603,-2.7413218258773925e-40,-1.8468282041837338,-0.0007794166047773434,3.156943527603669e-39,-0.018304701204111453,0,70,255.0,255.0,255.0
458,22.900000000000002,-6.13736548165815,-4.040924169111154e-41,-23.274450070887873,-0.17516166729968113,-3.262418003712793e-41,-1.8477066585094384,-0.0025139600678267668,6.50337657442065e-39,-0.016833471824068563,0,70,255.0,255.0,255.0
459,22.950000000000003,-6.146127430199662,-3.2516882872101454e-41,-23.366855832640884,-0.17533072888964873,3.7620547485433505e-40,-1.8485115513661408,-0.004248503530876189,9.849809621237632e-39,-0.015362242444025669,0,70,255.0,255.0,255.0
460,23.0,-6.1549,0.0,-23.4593,-0.17558651765276873,9.523567820866023e-40,-1.8492428827538407,-0.005983046993925267,1.319624266805437e-38,-0.013891013063991764,0,70,255.0,255.0,255.0
461,23.05,-6.163686135894326,5.89093682082122e-41,-23.55177994938525,-0.1758455421792241,1.2999424616181135e-39,-1.8499639222806203,-0.004377934064289478,7.071845132058791e-40,-0.014950568007188652,0,70,255.0,255.0,255.0
462,23.1,-6.172483216623815,1.1958669769943916e-40,-23.644297275190514,-0.1760243110591977,1.023075233407191e-39,-1.8507379395545596,-0.00277282113465369,-1.1781873641642613e-38,-0.01601012295038554,0,70,255.0,255.0,255.0
463,23.150000000000002,-6.181287229406138,1.5080934308655875e-40,-23.73685462630316,-0.17612282429268947,1.2175509745383508e-40,-1.8515649345756588,-0.001167708205017902,-2.4270931796491105e-38,-0.017069677893582425,0,70,255.0,255.0,255.0
464,23.200000000000003,-6.190094161458975,1.2135465898244884e-40,-23.829454651610536,-0.17614108187969948,-1.4040179462419535e-39,-1.852444907343918,0.00043740472461788714,-3.67599899513396e-38,-0.01812923283677931,0,70,255.0,255.0,255.0
465,23.25,-6.1989,0.0,-23.9221,-0.1760790838202277,-3.554243897680001e-39,-1.853377857859337,0.0020425176542535617,-4.92490481061872e-38,-0.019188787779985006,0,70,255.0,255.0,255.0
466,23.3,-6.2077017535057175,-2.198527551948307e-40,-24.01479172596503,-0.17599810564390128,-4.851451313674954e-39,-1.8542681224885156,0.0011966093988020946,-2.6392485336102134e-39,-0.016421797387159348,0,70,255.0,255.0,255.0
467,23.35,-6.216500515487937,-4.463036317236871e-40,-24.107524506423527,-0.1759594228803475,-3.8181687510410263e-39,-1.8550200375980528,0.0003507011433506273,4.3970551038966776e-38,-0.01365480699433369,0,70,255.0,255.0,255.0
468,23.400000000000002,-6.225298400717299,-5.628281306551235e-40,-24.20029142389951,-0.17596303552956624,-4.54396209778214e-40,-1.855633603187949,-0.00049520711210084,9.058035061154377e-38,-0.01088781660150803,0,70,255.0,255.0,255.0
469,23.450000000000003,-6.234097523964439,-4.52901753057694e-40,-24.293085560917,-0.17600894359155755,5.239866310113481e-39,-1.8561088192582038,-0.001341115367552307,1.3719015018412075e-37,-0.008120826208682373,0,70,255.0,255.0,255.0
470,23.5,-6.2429,0.0,-24.3859,-0.17609714706632143,1.3264618808633402e-38,-1.8564456858088174,-0.00218702362300216,1.8379994975669442e-37,-0.00535383581586224,0,70,255.0,255.0,255.0
471,23.55,-6.251707650082806,8.205016525711108e-40,-24.478729146754638,-0.17621003524516804,1.8105862793081705e-38,-1.8567235877653152,-0.0023285035308628042,9.849809621234964e-39,-0.005762242444049909,0,70,255.0,255.0,255.0
472,23.6,-6.26052112142444,1.6656278291953094e-39,-24.57157269911539,-0.17632999741940772,1.4249599770756907e-38,-1.8570219100532224,-0.0024699834387234484,-1.6410033051422449e-37,-0.006170649072237578,0,70,255.0,255.0,255.0
473,23.650000000000002,-6.269340767724671,2.1005031795339347e-39,-24.66443167809882,-0.1764570335890404,1.6958297416590145e-39,-1.857340652672539,-0.0026114633465840927,-3.38050470649684e-37,-0.006579055700425247,0,70,255.0,255.0,255.0
474,23.700000000000003,-6.278166942683267,1.6902523532483268e-39,-24.757307104721505,-0.17659114375406612,-1.9555447294211973e-38,-1.857679815623265,-0.0027529432544447364,-5.120006107851434e-37,-0.006987462328612915,0,70,255.0,255.0,255.0
475,23.75,-6.287,0.0,-24.8502,-0.17673232791448484,-4.950423133685361e-38,-1.8580393989054003,-0.0028944231623042604,-6.859507509205906e-37,-0.00739586895679345,0,70,255.0,255.0,255.0
476,23.8,-6.295839646163057,-3.0621538550896116e-39,-24.943110887016417,-0.17684175337542732,-6.757199985865187e-38,-1.8583895264502404,-0.0014825952753947623,-3.675998995132968e-38,-0.0066092328368068,0,70,255.0,255.0,255.0
477,23.85,-6.304682998814304,-6.21620768505755e-39,-25.036038297114928,-0.1768805874420243,-5.318023033198662e-38,-1.858700322189081,-7.076738848526415e-05,6.1243077101793125e-37,-0.0058225967168201494,0,70,255.0,255.0,255.0
478,23.900000000000002,-6.313526528384021,-7.839184587480617e-39,-25.12898026370523,-0.17684883011427582,-6.328922756857877e-39,-1.8589717861219222,0.001341060498424234,1.2616215319871923e-36,-0.0050359605968335,0,70,255.0,255.0,255.0
479,23.950000000000003,-6.322366705302493,-6.30810765993561e-39,-25.22193482019702,-0.1767464813921819,7.298192286673439e-38,-1.8592039182487643,0.002752888385333732,1.910812292956453e-36,-0.004249324476846849,0,70,255.0,255.0,255.0
480,24.0,-6.3312,0.0,-25.3149,-0.17657354127574246,1.8475230653878103e-37,-1.859396718569607,0.004164716272242908,2.5600030539256674e-36,-0.0034626883568531497,0,70,255.0,255.0,255.0
481,24.05,-6.340024165264963,1.1428113767787337e-38,-25.407873705179703,-0.17640695125312497,2.5218213664152575e-37,-1.859542306433744,0.0024988846324561316,1.3719015018408346e-37,-0.0023608262086295025,0,70,255.0,255.0,255.0
482,24.1,-6.348842083318345,2.3199202911034892e-38,-25.500853312424923,-0.17632365281249684,1.984713215571895e-37,-1.85963280119047,0.0008330529926693555,-2.2856227535575004e-36,-0.0012589640604058557,0,70,255.0,255.0,255.0
483,24.150000000000002,-6.357657918739247,2.9256235170388534e-38,-25.593836067080296,-0.17632364595385802,2.361986128577241e-38,-1.8596682028397846,-0.0008327786471174206,-4.708435657299085e-36,-0.00015710191218220888,0,70,255.0,255.0,255.0
484,24.200000000000003,-6.3664758361067655,2.3542178286494126e-38,-25.68681921449045,-0.17640693067720858,-2.7237224417272574e-37,-1.8596485113816883,-0.0024986102869041966,-7.131248561040668e-36,0.0009447602360414383,0,70,255.0,255.0,255.0
485,24.25,-6.3753,0.0,-25.7798,-0.17657350698254848,-6.895049948182705e-37,-1.8595737268161807,-0.00416444192669152,-9.554061464782081e-36,0.002046622384256125,0,70,255.0,255.0,255.0
486,24.3,-6.384133292777089,-4.2650301216059737e-38,-25.872775892264794,-0.1767464416120769,-9.411565467074511e-37,-1.8594572478147886,-0.00275294325444422,-5.120006107850049e-37,0.0026125376714318882,0,70,255.0,255.0,255.0
487,24.35,-6.392973467912315,-8.658060395908201e-38,-25.96574525318541,-0.17684880130799288,-7.407050558967718e-37,-1.8593124730490376,-0.0013414445821969198,8.530060243212071e-36,0.003178452958607652,0,70,255.0,255.0,255.0
488,24.400000000000002,-6.4018169966589955,-1.0918575609407353e-37,-26.05870666797363,-0.17688058607029655,-8.815052238623184e-38,-1.8591394025189276,7.00540900503803e-05,1.7572121097209147e-35,0.003744368245783416,0,70,255.0,255.0,255.0
489,24.450000000000003,-6.410660350270451,-8.786060548604089e-38,-26.151658721841233,-0.17684179589898788,1.0165070538241679e-36,-1.8589380362244592,0.0014815527622976804,2.6614181951206224e-35,0.004310283532959179,0,70,255.0,255.0,255.0
490,24.5,-6.4195,0.0,-26.2446,-0.1767324307940668,2.573267672734301e-36,-1.858708374165632,0.002893051434544436,3.5656242805202644e-35,0.004876198820129574,0,70,255.0,255.0,255.0
491,24.55,-6.428333063626681,1.591730910964516e-37,-26.33752912576113,-0.17659128229856944,3.512444050188279e-36,-1.858452702307052,0.0027528883853507025,1.910812292955936e-36,0.00535067552306608,0,70,255.0,255.0,255.0
492,24.6,-6.437159245032398,3.231232129252932e-37,-26.43044487483345,-0.17645714195553172,2.7643489020298963e-36,-1.8581733066133255,0.0026127253361569697,-3.183461821929077e-35,0.005825152226002586,0,70,255.0,255.0,255.0
493,24.650000000000002,-6.445978894624775,4.0748678920590545e-37,-26.52334606102521,-0.17633000976495372,3.2898222825915604e-37,-1.8578701870844518,0.0024725622869632364,-6.558004873153747e-35,0.006299628928939092,0,70,255.0,255.0,255.0
494,24.700000000000003,-6.454792362811435,3.279002436576695e-37,-26.616231498144646,-0.1762098857268354,-3.7936559711239454e-36,-1.8575433437204316,0.0023323992377695035,-9.932547924378418e-35,0.006774105631875598,0,70,255.0,255.0,255.0
495,24.75,-6.4636,0.0,-26.7091,-0.17609676984117678,-9.603565696118933e-36,-1.8571927765212646,0.002192236188574892,-1.3307090975602852e-34,0.007248582334810294,0,70,255.0,255.0,255.0
496,24.8,-6.472402452716188,-5.940420631697466e-37,-26.801950004690685,-0.17600842919363566,-1.3108619654045662e-35,-1.8567959429569956,0.0013413897130692177,-7.131248561038752e-36,0.008624760235952086,0,70,255.0,255.0,255.0
497,24.85,-6.481201551958093,-1.2059122477420908e-36,-26.894778447480785,-0.17596263086986988,-1.0316690552222816e-35,-1.8563303004976692,0.0004905432375635435,1.1880841263395101e-34,0.010000938137093879,0,70,255.0,255.0,255.0
498,24.900000000000002,-6.489999424841904,-1.520761400729549e-36,-26.987581887925536,-0.1759593748698793,-1.227778390650396e-36,-1.8557958491432862,-0.0003603032379421306,2.4474807382894076e-34,0.011377116038235671,0,70,255.0,255.0,255.0
499,24.950000000000003,-6.498798198483811,-1.223740369144637e-36,-27.080356885580198,-0.17599866119366406,1.415811683067161e-35,-1.8551925888938459,-0.001211149713447805,3.7068773502393054e-34,0.012753293939377464,0,70,255.0,255.0,255.0
500,25.0,-6.5076,0.0,-27.1731,-0.17608048984122412,3.584099511174143e-35,-1.8545205197493484,-0.002061996188953197,4.966273962189114e-34,0.014129471840519159,0,70,255.0,255.0,255.0
501,25.05,-6.516405925508567,2.216995161582535e-36,-27.26580845547613,-0.17614300092689042,4.892203456599438e-35,-1.853819525865007,-0.00043844723769768034,2.6614181951199066e-35,0.013910283533138565,0,70,255.0,255.0,255.0
502,25.1,-6.52521294713523,4.5005257780430695e-36,-27.358482135243428,-0.17612433456499388,3.850241330686137e-35,-1.8531294913960346,0.0011851017135578361,-4.433990323165133e-34,0.01369109522575797,0,70,255.0,255.0,255.0
503,25.150000000000002,-6.534017006007608,5.675558813712289e-36,-27.45112158727266,-0.1760244907555346,4.5821313343424025e-36,-1.8524504163424311,0.002808650664813353,-9.134122465842258e-34,0.013471906918377376,0,70,255.0,255.0,255.0
504,25.200000000000003,-6.542814043253324,4.567061232920878e-36,-27.543727359534596,-0.17584346949851257,-5.283881135156249e-35,-1.8517823007041967,0.004432199616068869,-1.3834254608519381e-33,0.013252718610996781,0,70,255.0,255.0,255.0
505,25.25,-6.5516,0.0,-27.6363,-0.17558127079392774,-1.3376041475084677e-34,-1.8511251444813317,0.006055748567325603,-1.8534386751196165e-33,0.013033530303610874,0,70,255.0,255.0,255.0
506,25.3,-6.560372245249541,-8.273938583160392e-36,-27.728839373404803,-0.17532356709880004,-1.8257951860993184e-34,-1.8504379535829467,0.004252399237782197,-9.932547924375702e-35,0.014454105631786639,0,70,255.0,255.0,255.0
507,25.35,-6.5691338595009885,-1.679619086443018e-35,-27.821342611545525,-0.17515603087014953,-1.4369296267522263e-34,-1.8496797339181532,0.0024490499082387915,1.6547877166321025e-33,0.015874680959962403,0,70,255.0,255.0,255.0
508,25.400000000000002,-6.577889351127664,-2.1181473854119598e-35,-27.913806162983846,-0.17507866210797615,-1.7100746946719166e-35,-1.8488504854869505,0.0006457005786953858,3.4089009125079623e-33,0.017295256288138168,0,70,255.0,255.0,255.0
509,25.450000000000003,-6.5866432285028935,-1.7044504562538874e-35,-28.006226476281448,-0.17509146081227997,1.9719712857557846e-34,-1.847950208289339,-0.0011576487508480199,5.1630141083838215e-33,0.01871583161631393,0,70,255.0,255.0,255.0
510,25.5,-6.5954,0.0,-28.0986,-0.17519442698306092,4.9920066389164566e-34,-1.8469789023253191,-0.002960998080390631,6.917127304259553e-33,0.0201364069444967,0,70,255.0,255.0,255.0
511,25.55,-6.604162693493268,3.087875917105903e-35,-28.190923650904672,-0.17529873067790733,6.813960398737328e-34,-1.8459646598032227,-0.0012111497134649626,3.70687735023829e-34,0.020433293939363398,0,70,255.0,255.0,255.0
512,25.6,-6.612928414860818,6.268423767967766e-35,-28.283196218574496,-0.17531554195440743,5.362694373940291e-34,-1.8449355729313828,0.0005386986534607059,-6.175751834211895e-33,0.0207301809342301,0,70,255.0,255.0,255.0
513,25.650000000000002,-6.6216927894817355,7.905033660276612e-35,-28.375416960791984,-0.17524486081256124,6.38208564525342e-35,-1.8438916417097995,0.002288547020386375,-1.272219140344762e-32,0.0210270679290968,0,70,255.0,255.0,255.0
514,25.700000000000003,-6.630451442735102,6.361095701723458e-35,-28.46758513533965,-0.17508668725236878,-7.359497029507512e-34,-1.8428328661384732,0.004038395387312043,-1.9268630972683344e-32,0.021323954923963502,0,70,255.0,255.0,255.0
515,25.75,-6.6392,0.0,-28.5597,-0.17484102127383006,-1.8630422408157357e-33,-1.8417592462174033,0.005788243754238032,-2.5815070541918605e-32,0.02162084191883018,0,70,255.0,255.0,255.0
516,25.8,-6.6479353807773895,-1.1524109810107572e-34,-28.65176042297652,-0.17458551018957236,-2.5430046408849998e-33,-1.8406474072041565,0.004432199616069336,-1.383425460851567e-33,0.02285271861103803,0,70,255.0,255.0,255.0
517,25.85,-6.656659681055739,-2.3394075985428045e-34,-28.743763714156508,-0.17439780131222313,-2.0013847869008945e-33,-1.8394739743562996,0.003076155477900639,2.304821962021547e-32,0.024084595303245884,0,70,255.0,255.0,255.0
518,25.900000000000002,-6.665376290945394,-2.950198725569449e-34,-28.83570679384824,-0.17427789464178228,-2.3818267886341865e-34,-1.838238947673832,0.001720111339731942,4.747986470128251e-32,0.025316471995453733,0,70,255.0,255.0,255.0
519,25.950000000000003,-6.674088600556699,-2.3739932350639945e-34,-28.927586582359982,-0.17422579017824993,2.746601683227424e-33,-1.836942327156754,0.00036406720156324616,7.191150978234955e-32,0.026548348687661587,0,70,255.0,255.0,255.0
520,26.0,-6.6828,0.0,-29.0194,-0.174241487921626,6.952968299371297e-33,-1.835584112805066,-0.0009919769366060205,9.634315486341485e-32,0.027780225379867574,0,70,255.0,255.0,255.0
521,26.05,-6.691512583397175,4.300856332332439e-34,-29.111144257189263,-0.17424722856381203,9.490622523666265e-33,-1.834181711380162,0.0007623512491648637,5.163014108382418e-33,0.02831583161629468,0,70,255.0,255.0,255.0
522,26.1,-6.7002232609162276,8.73078801737444e-34,-29.202817724799488,-0.1741652527967095,7.469269710209544e-33,-1.8327525296434366,0.002516679434935748,-8.601712664665002e-32,0.02885143785272179,0,70,255.0,255.0,255.0
523,26.150000000000002,-6.708927646736692,1.101029153625013e-33,-29.294419063815084,-0.17399556062031846,8.889098590011372e-34,-1.8312965675948898,0.004271007620706632,-1.7719726740168248e-31,0.029387044089148894,0,70,255.0,255.0,255.0
524,26.200000000000003,-6.717621355038104,8.859863370083636e-34,-29.385946935220453,-0.17373815203463885,-1.0250457029958952e-32,-1.8298138252345217,0.006025335806477516,-2.683774081567149e-31,0.029922650325576002,0,70,255.0,255.0,255.0
525,26.25,-6.7263,0.0,-29.4774,-0.1733930270396707,-2.594883095666945e-32,-1.8283043025623322,0.007779663992248498,-3.5955754891174076e-31,0.03045825656201373,0,70,255.0,255.0,255.0
526,26.3,-6.734960685633912,-1.6051014348318997e-33,-29.568776948266432,-0.17304957555518136,-3.5419485453780054e-32,-1.8267697472751816,0.0059583953873247626,-1.9268630972678117e-32,0.03092395492401395,0,70,255.0,255.0,255.0
527,26.35,-6.743606475279356,-3.258374447095496e-33,-29.660076586645552,-0.1727971875009382,-2.787569405393729e-32,-1.8252119070699309,0.004137126782401027,3.2102028696638452e-31,0.03138965328601417,0,70,255.0,255.0,255.0
528,26.400000000000002,-6.752241922107843,-4.109096741943108e-33,-29.75129775089146,-0.17263586287694124,-3.3174567571411484e-33,-1.82363078194658,0.002315858177477292,6.613092049054473e-31,0.03185535164801438,0,70,255.0,255.0,255.0
529,26.450000000000003,-6.760871579290888,-3.306546024527056e-33,-29.842439276758242,-0.17256560168319046,3.8255226436608376e-32,-1.8220263719051293,0.0004945895725535577,1.0015981228445099e-30,0.0323210500100146,0,70,255.0,255.0,255.0
530,26.5,-6.7695,0.0,-29.9335,-0.1725864039196859,9.68423555273065e-32,-1.8203986769455787,-0.0013266790323707145,1.341887040783548e-30,0.03278674837201834,0,70,255.0,255.0,255.0
531,26.55,-6.778130274067178,5.990320106094354e-33,-30.024478349745017,-0.17261046921545653,1.3218731929145396e-31,-1.8187232995190887,0.00036406720154571657,7.191150978233014e-32,0.03422834868757294,0,70,255.0,255.0,255.0
532,26.6,-6.786759637966351,1.216041898664454e-32,-30.115371128618314,-0.17254999719953135,1.0403350650553959e-31,-1.8169758420768214,0.0020548134354621476,-1.1980640212188878e-30,0.03566994900312754,0,70,255.0,255.0,255.0
533,26.650000000000002,-6.795383864831935,1.5335357814147418e-32,-30.206174732619104,-0.1724049878719103,1.2380917169563424e-32,-1.815156304618776,0.0037455596693785785,-2.4680395522201062e-30,0.037111549318682144,0,70,255.0,255.0,255.0
534,26.700000000000003,-6.803998727798347,1.2340197761099852e-32,-30.2968855577466,-0.17217544123259348,-1.4277044871647446e-31,-1.813264687144953,0.00543630590329501,-3.738015083221324e-30,0.03855314963423674,0,70,255.0,255.0,255.0
535,26.75,-6.8126,0.0,-30.3875,-0.17186135728158086,-3.6142059115255654e-31,-1.8113009896553527,0.00712705213721021,-5.007990614222452e-30,0.039994749949789465,0,70,255.0,255.0,255.0
536,26.8,-6.821184618097378,-2.2356178989545517e-32,-30.478015252753508,-0.1715325475829891,-4.933297917120357e-31,-1.8093130546484673,0.006025335806460392,-2.6837740815664203e-31,0.03952265032562571,0,70,255.0,255.0,255.0
537,26.85,-6.829754172855241,-4.5383301499482665e-32,-30.568431698881206,-0.17125882370093481,-3.8825833196822114e-31,-1.8073487246227902,0.004923619475710574,4.4712357979091676e-30,0.03905055070146196,0,70,255.0,255.0,255.0
538,26.900000000000002,-6.838311418564414,-5.723233451464656e-32,-30.658750518632143,-0.171040185635418,-4.620621192111237e-32,-1.805407999578321,0.0038219031449607563,9.210849003974978e-30,0.03857845107729821,0,70,255.0,255.0,255.0
539,26.950000000000003,-6.846859109515726,-4.605424501987237e-32,-30.74897289225539,-0.17087663338643871,5.328265684292897e-31,-1.8034908795150602,0.0027201868142109386,1.3950462210040788e-29,0.03810635145313445,0,70,255.0,255.0,255.0
540,27.0,-6.8554,0.0,-30.8391,-0.17076816695399694,1.3488400090829196e-30,-1.8015973644330077,0.0016184704834607544,1.8690075416106258e-29,0.03763425182897784,0,70,255.0,255.0,255.0
541,27.05,-6.863936053543309,8.343439585208771e-32,-30.929131839240956,-0.17066734045259582,1.841131847556689e-30,-1.799656481887033,0.002414589572582948,1.0015981228442385e-30,0.04000105001000133,0,70,255.0,255.0,255.0
542,27.1,-6.872466070612686,1.6937278701128606e-31,-31.019063675856888,-0.17052670799673864,1.4489998213673449e-30,-1.7975972594320075,0.003210708661705142,-1.668687917041778e-29,0.042367848191024814,0,70,255.0,255.0,255.0
543,27.150000000000002,-6.880988060910409,2.135939802444388e-31,-31.108889592852343,-0.17034626958642532,1.7244393051488676e-31,-1.7954196970679306,0.004006827750827335,-3.43753564636798e-29,0.044734646372048305,0,70,255.0,255.0,255.0
544,27.200000000000003,-6.889500034138755,1.7187678231838954e-31,-31.19860367323186,-0.17012602522165587,-1.9885358250006842e-30,-1.7931237947948027,0.00480294683994953,-5.206383375694183e-29,0.04710144455307179,0,70,255.0,255.0,255.0
545,27.25,-6.898,0.0,-31.2882,-0.16986597490243038,-5.0339394451791215e-30,-1.7907095526126235,0.005599065929071223,-6.975231105020259e-29,0.04946824273409156,0,70,255.0,255.0,255.0
546,27.3,-6.9064863677293875,-3.1138140441880526e-31,-31.377674190282676,-0.16959009060662125,-6.871197598514721e-30,-1.788269017803416,0.005436305903294245,-3.738015083220327e-30,0.04815314963420965,0,70,255.0,255.0,255.0
547,27.35,-6.914959144694016,-6.321078465456616e-31,-31.46702799769126,-0.16932234431210094,-5.40774095350116e-30,-1.7858942376492026,0.005273545877517267,6.227628088376194e-29,0.04683805653432774,0,70,255.0,255.0,255.0
