idx,t,px,py,pz,vx,vy,vz,ax,ay,az,yaw,mode,ledr,ledg,ledb
0,0.0,10.5,-3.0,0.0,9.55277461894043e-19,2.6940144912556157e-19,0.019030436778708193,-1.1463329542728515e-17,-3.2328173895067388e-18,-0.5155652413444983,0,70,255.0,255.0,255.0
1,0.05,10.5,-3.0,0.00030909572403349495,4.394276324712598e-19,1.2392466659775831e-19,-0.006625999081794231,-9.170663634182812e-18,-2.586253911605391e-18,-0.5106921930755987,0,70,255.0,255.0,255.0
2,0.1,10.5,-3.0,-0.000658539034622007,3.821109847576167e-20,1.077605796502247e-20,-0.03203878252885167,-6.8779977256371086e-18,-1.939690433704043e-18,-0.505819144806699,0,70,255.0,255.0,255.0
3,0.15000000000000002,10.5,-3.0,-0.002890721655294257,-2.483721400924512e-19,-7.004437677264601e-20,-0.05720791356246414,-4.585331817091405e-18,-1.2931269558026954e-18,-0.5009460965377992,0,70,255.0,255.0,255.0
4,0.2,10.5,-3.0,-0.006375269517311004,-4.2032208323337898e-19,-1.1853663761524704e-19,-0.08213339218263159,-2.292665908545702e-18,-6.465634779013477e-19,-0.49607304826889953,0,70,255.0,255.0,255.0
5,0.25,10.5,-3.0,-0.0111,-4.776387309470215e-19,-1.3470072456278078e-19,-0.1068152183893541,0.0,0.0,-0.4912000000000001,0,70,255.0,255.0,255.0
6,0.30000000000000004,10.5,-3.0,-0.017052730482689002,-4.2032208323337883e-19,-1.1853663761524707e-19,-0.13125339218263163,2.292665908545705e-18,6.465634779013484e-19,-0.48632695173110047,0,70,255.0,255.0,255.0
7,0.35000000000000003,10.5,-3.0,-0.02422127834470575,-2.48372140092451e-19,-7.004437677264597e-20,-0.15544791356246415,4.5853318170914075e-18,1.293126955802696e-18,-0.48145390346220085,0,70,255.0,255.0,255.0
8,0.4,10.5,-3.0,-0.032593460965378,3.821109847576181e-20,1.0776057965022493e-20,-0.1793987825288517,6.87799772563711e-18,1.9396904337040434e-18,-0.4765808551933012,0,70,255.0,255.0,255.0
9,0.45,10.5,-3.0,-0.042157095724033505,4.394276324712599e-19,1.2392466659775839e-19,-0.20310599908179428,9.170663634182813e-18,2.586253911605391e-18,-0.47170780692440156,0,70,255.0,255.0,255.0
10,0.5,10.5,-3.0,-0.0529,9.55277461894043e-19,2.6940144912556157e-19,-0.22656956322129185,1.1463329542728517e-17,3.2328173895067384e-18,-0.4668347586555024,0,70,255.0,255.0,255.0
11,0.55,10.5,-3.0,-0.06480937379327753,1.241860700462256e-18,3.5022188386323002e-19,-0.24975243218767942,-1.0785207688568521e-32,-3.0814879110195774e-33,-0.4604799999999999,0,70,255.0,255.0,255.0
12,0.6000000000000001,10.5,-3.0,-0.07786994758655505,9.552774618940418e-19,2.694014491255613e-19,-0.2726175632212919,-1.1463329542728538e-17,-3.2328173895067446e-18,-0.45412524134449744,0,70,255.0,255.0,255.0
13,0.65,10.5,-3.0,-0.09206583448319379,9.552774618940347e-20,2.6940144912555993e-20,-0.2951649563221292,-2.2926659085457043e-17,-6.46563477901348e-18,-0.44777048268899494,0,70,255.0,255.0,255.0
14,0.7000000000000001,10.5,-3.0,-0.10738114758655504,-1.3373884466516632e-18,-3.77162028775787e-19,-0.3173946114901913,-3.438998862818557e-17,-9.698452168520221e-18,-0.44141572403349244,0,70,255.0,255.0,255.0
15,0.75,10.5,-3.0,-0.1238,-3.3434711166291508e-18,-9.429050719394654e-19,-0.3393065287254784,-4.5853318170914073e-17,-1.2931269558026954e-17,-0.43506096537799177,0,70,255.0,255.0,255.0
16,0.8,10.5,-3.0,-0.14130657434420096,-4.5471207186156455e-18,-1.282350897837673e-18,-0.36090487906665075,-2.292665908545671e-18,-6.465634779013369e-19,-0.42887304826890027,0,70,255.0,255.0,255.0
17,0.8500000000000001,10.5,-3.0,-0.1598853313090742,-3.572737707483718e-18,-1.0075614197295992e-18,-0.38219383355236847,4.126798635382273e-17,1.163814260222428e-17,-0.42268513115980877,0,70,255.0,255.0,255.0
18,0.9,10.5,-3.0,-0.1795208011018469,-4.2032208323337744e-19,-1.1853663761524695e-19,-0.40317339218263154,8.482863861619105e-17,2.3922848682349866e-17,-0.41649721405071727,0,70,255.0,255.0,255.0
19,0.9500000000000001,10.5,-3.0,-0.20019751392974644,4.9101261541353884e-18,1.3847234485053881e-18,-0.4238435549574402,1.2838929087855945e-16,3.620755476247548e-17,-0.41030929694162577,0,70,255.0,255.0,255.0
20,1.0,10.5,-3.0,-0.2219,1.2418607004622561e-17,3.5022188386323e-18,-0.4442043218767942,1.7194994314092782e-16,4.849226084260107e-17,-0.4041213798325365,0,70,255.0,255.0,255.0
21,1.05,10.5,-3.0,-0.24461232882991865,1.694662217400033e-17,4.7791817074874615e-18,-0.4642280515457177,9.170663634182684e-18,2.5862539116053414e-18,-0.3968278069244028,0,70,255.0,255.0,255.0
22,1.1,10.5,-3.0,-0.26831672717714833,1.3335673368040829e-17,3.760844229792835e-18,-0.4838871025692345,-1.5360861587256245e-16,-4.3319753019390385e-17,-0.38953423401626913,0,70,255.0,255.0,255.0
23,1.1500000000000001,10.5,-3.0,-0.29299496110941875,1.5857605867440708e-18,4.472064055484182e-19,-0.5031814749473447,-3.1638789537930753e-16,-8.92257599503861e-17,-0.3822406611081354,0,70,255.0,255.0,255.0
24,1.2000000000000002,10.5,-3.0,-0.3186287966944594,-1.8303116169889957e-17,-5.161731765245782e-18,-0.5221111686800481,-4.791671748860528e-16,-1.3513176688138185e-16,-0.3749470882000017,0,70,255.0,255.0,255.0
25,1.25,10.5,-3.0,-0.3452,-4.6330956901861095e-17,-1.3065970282589734e-17,-0.5406761837673448,-6.419464543927972e-16,-1.8103777381237734e-16,-0.3676535152918703,0,70,255.0,255.0,255.0
26,1.3,10.5,-3.0,-0.3726913103361245,-6.323936797738567e-17,-1.7834375932112172e-17,-0.5589349147504789,-3.438998862818514e-17,-9.698452168520053e-18,-0.36269572403349243,0,70,255.0,255.0,255.0
27,1.35,10.5,-3.0,-0.4010893599823326,-4.976995576467961e-17,-1.403581549944174e-17,-0.5769457561706941,5.731664771364269e-16,1.6164086947533723e-16,-0.35773793277511456,0,70,255.0,255.0,255.0
28,1.4000000000000001,10.5,-3.0,-0.4303817544604786,-5.9227202637429074e-18,-1.6702889845784352e-18,-0.5947087080279904,1.180722942901039e-15,3.329801911191945e-16,-0.3527801415167367,0,70,255.0,255.0,255.0
29,1.4500000000000002,10.5,-3.0,-0.4605560992924164,6.830233852542438e-17,1.9262203612477732e-17,-0.6122237703223679,1.788279408665651e-15,5.0431951276305175e-16,-0.34782235025835884,0,70,255.0,255.0,255.0
30,1.5,10.5,-3.0,-0.4916,1.7290522060282182e-16,4.876166229172664e-17,-0.6294909430538262,2.395835874430261e-15,6.756588344069082e-16,-0.3428645589999828,0,70,255.0,255.0,255.0
31,1.55,10.5,-3.0,-0.5235000298255836,2.3601084973554233e-16,6.655832202096123e-17,-0.6464482894523664,1.2838929087855738e-16,3.620755476247477e-17,-0.33542929694162743,0,70,255.0,255.0,255.0
32,1.6,10.5,-3.0,-0.5562386328935215,1.8574414969067756e-16,5.238241776797412e-17,-0.6630338727479891,-2.139057292673146e-15,-6.032437248819586e-16,-0.32799403488327206,0,70,255.0,255.0,255.0
33,1.6500000000000001,10.5,-3.0,-0.5897972210486673,2.2105120468227473e-17,6.233949532765312e-18,-0.6792476929406938,-4.4065038762248495e-15,-1.242695004526392e-15,-0.3205587728249167,0,70,255.0,255.0,255.0
34,1.7000000000000002,10.5,-3.0,-0.6241572061358756,-2.549062379318078e-16,-7.188708268466519e-17,-0.6950897500304807,-6.673950459776553e-15,-1.8821462841708254e-15,-0.3131235107665613,0,70,255.0,255.0,255.0
35,1.75,10.5,-3.0,-0.6593,-6.4528992550942625e-16,-1.819806788843168e-16,-0.7105600440173497,-8.941397043328247e-15,-2.5215975638152558e-15,-0.3056882487082051,0,70,255.0,255.0,255.0
36,1.8,10.5,-3.0,-0.695207770361541,-8.808040309647838e-16,-2.4839891215173275e-16,-0.7257039274400549,-4.791671748860466e-16,-1.351317668813792e-16,-0.30006708820000244,0,70,255.0,255.0,255.0
37,1.85,10.5,-3.0,-0.731865708443582,-6.93206642998031e-16,-1.954938555724548e-16,-0.7405667528373501,7.983062693556154e-15,2.2513340300524974e-15,-0.2944459276917998,0,70,255.0,255.0,255.0
38,1.9000000000000001,10.5,-3.0,-0.7692597613448526,-8.249776160916785e-17,-2.3265509146482774e-17,-0.755148520209235,1.6445292561998356e-14,4.637799826986373e-15,-0.2888247671835971,0,70,255.0,255.0,255.0
39,1.9500000000000002,10.5,-3.0,-0.8073758761640821,9.513226132018063e-16,2.6828612712618285e-16,-0.7694492295557097,2.4907522430440554e-14,7.024265623920251e-15,-0.28320360667539446,0,70,255.0,255.0,255.0
40,2.0,10.5,-3.0,-0.8462,2.408254481434883e-15,6.791610532455406e-16,-0.7834688808767742,3.336975229888272e-14,9.410731420854117e-15,-0.27758244616719097,0,70,255.0,255.0,255.0
41,2.0500000000000003,10.5,-3.0,-0.8857176887282525,3.287205274123593e-15,9.270373265859698e-16,-0.7971840007874131,1.7882794086654777e-15,5.043195127630054e-16,-0.2710223502583609,0,70,255.0,255.0,255.0
42,2.1,10.5,-3.0,-0.9259129333321507,2.587082422301445e-15,7.295930045218451e-16,-0.8105711159026104,-2.9793193481551485e-14,-8.402092395328028e-15,-0.2644622543495309,0,70,255.0,255.0,255.0
43,2.15,10.5,-3.0,-0.9667693335719225,3.0788592596845486e-16,8.682808705317008e-17,-0.823630226222366,-6.137466637176844e-14,-1.730850430341906e-14,-0.2579021584407009,0,70,255.0,255.0,255.0
44,2.2,10.5,-3.0000000000000004,-1.0082704892077965,-3.5503842148754175e-15,-1.0012574258200664e-15,-0.8363613317466805,-9.295613926198569e-14,-2.6214916211510173e-14,-0.25134206253187086,0,70,255.0,255.0,255.0
45,2.25,10.5,-3.0,-1.0504,-8.987728000230106e-15,-2.534663534097846e-15,-0.8487644324755531,-1.245376121522026e-13,-3.51213281196012e-14,-0.24478196662304175,0,70,255.0,255.0,255.0
46,2.3000000000000003,10.5,-3.0,-1.0931414747254498,-1.2268017065529587e-14,-3.4597503941921467e-15,-0.8608400694102932,-6.6739504597758975e-15,-1.8821462841706436e-15,-0.23824351076656228,0,70,255.0,255.0,255.0
47,2.35,10.499999999999998,-3.0000000000000004,-1.1364785582278156,-9.655123046207748e-15,-2.722878162514925e-15,-0.8725887835522094,1.1118971123264978e-13,3.1357035551259625e-14,-0.23170505491008286,0,70,255.0,255.0,255.0
48,2.4000000000000004,10.499999999999998,-3.0000000000000004,-1.180394904367457,-1.1490459422645467e-15,-3.2404683906616775e-16,-0.8840105749013015,2.2905337292507645e-13,6.459621738669019e-14,-0.22516659905360342,0,70,255.0,255.0,255.0
49,2.45,10.5,-3.0000000000000004,-1.224874167004732,1.3250214246299868e-14,3.736743576154085e-15,-0.8951054434575698,3.4691703461750216e-13,9.783539922212045e-14,-0.218628143197124,0,70,255.0,255.0,255.0
50,2.5,10.5,-3.0,-1.2699,3.354265751948554e-14,9.459493083145843e-15,-0.9058733892210139,4.647806963099279e-13,1.3107458105755074e-13,-0.21208968734064637,0,70,255.0,255.0,255.0
51,2.5500000000000003,10.500000000000002,-2.9999999999999996,-1.3154564123699495,4.578486298799476e-14,1.291196425018262e-14,-0.916335721571415,2.4907522430438226e-14,7.024265623919594e-15,-0.2064036066753898,0,70,255.0,255.0,255.0
52,2.6,10.500000000000004,-2.999999999999999,-1.3615288337565872,3.603340976252955e-14,1.0161919645537857e-14,-0.9265137498885528,-4.149656514490475e-13,-1.170260498097105e-13,-0.20071752601013326,0,70,255.0,255.0,255.0
53,2.6500000000000004,10.500000000000005,-2.9999999999999987,-1.4081030489582504,4.288297843089776e-15,1.2093592692115072e-15,-0.9364074741724282,-8.548388253285371e-13,-2.410763652433416e-13,-0.19503144534487665,0,70,255.0,255.0,255.0
54,2.7,10.500000000000004,-2.9999999999999987,-1.4551648427732757,-4.9450472770324034e-14,-1.3945716878796269e-14,-0.9460168944230406,-1.2947119992080228e-12,-3.651266806769717e-13,-0.18934536467962013,0,70,255.0,255.0,255.0
55,2.75,10.5,-3.0,-1.5027,-1.2518290207771206e-13,-3.530330879848553e-14,-0.95534201064039,-1.7345851730875088e-12,-4.891769961106016e-13,-0.18365928401436626,0,70,255.0,255.0,255.0
56,2.8000000000000003,10.499999999999991,-3.000000000000002,-1.5506936757947534,-1.7087143488644948e-13,-4.818810660653833e-14,-0.9643450443040461,-9.295613926197693e-14,-2.6214916211507563e-14,-0.17646206253187377,0,70,255.0,255.0,255.0
57,2.85,10.499999999999984,-3.000000000000005,-1.5991285067458356,-1.3447851600391052e-13,-3.7924800419636494e-14,-0.9729882168935775,1.54867289456354e-12,4.3674716368758227e-13,-0.16926484104938133,0,70,255.0,255.0,255.0
58,2.9000000000000004,10.499999999999979,-3.0000000000000053,-1.6479864997995424,-1.60041454300946e-14,-4.513390237779861e-15,-0.9812715284089842,3.190301928389072e-12,8.997092435866764e-13,-0.1620676195668888,0,70,255.0,255.0,255.0
59,2.95,10.499999999999984,-3.0000000000000044,-1.6972496619021658,1.845516768349963e-13,5.204612393903103e-14,-0.9891949788502663,4.8319309622145885e-12,1.3626713234857662e-12,-0.15487039808439637,0,70,255.0,255.0,255.0
60,3.0,10.5,-3.0,-1.7469,4.671889507913627e-13,1.3175374211079627e-13,-0.9967585682174238,6.473559996040106e-12,1.825633403384856e-12,-0.14767317660190038,0,70,255.0,255.0,255.0
61,3.0500000000000003,10.50000000000003,-2.999999999999992,-1.7969200844510382,6.377008765578029e-13,1.798404621759707e-13,-1.0039961012123995,3.4691703461746803e-13,9.783539922211124e-14,-0.14182814319712694,0,70,255.0,255.0,255.0
62,3.1,10.500000000000059,-2.999999999999983,-1.8472947392600694,5.018806542531124e-13,1.4153728203300818e-13,-1.0109413825371365,-5.779725926805115e-12,-1.629962604940618e-12,-0.13598310979235356,0,70,255.0,255.0,255.0
63,3.1500000000000004,10.500000000000073,-2.999999999999979,-1.8980093518435817,5.9728283877288e-14,1.6844201681907953e-14,-1.017594412191635,-1.1906368888227751e-11,-3.3577606091033625e-12,-0.13013807638758013,0,70,255.0,255.0,255.0
64,3.2,10.50000000000006,-2.9999999999999836,-1.9490493096180623,-6.887562345696612e-13,-1.9423877887732762e-13,-1.0239551901758945,-1.8033011849650335e-11,-5.085558613266092e-12,-0.12429304298280675,0,70,255.0,255.0,255.0
65,3.25,10.5,-3.0,-2.0004,-1.7435729010877387e-12,-4.917116596446995e-13,-1.0300237164899153,-2.4159654811072916e-11,-6.8133566174288215e-12,-0.11844800957803159,0,70,255.0,255.0,255.0
66,3.3000000000000003,10.499999999999892,-3.00000000000003,-2.0520467864010943,-2.3799320713447623e-12,-6.711737420973445e-13,-1.0357985508463565,-1.294711999207896e-12,-3.651266806769371e-13,-0.11254536467961739,0,70,255.0,255.0,255.0
67,3.35,10.499999999999782,-3.000000000000062,-2.103974936213887,-1.873044101008539e-12,-5.282243277123961e-13,-1.041278252957877,2.1570230812656917e-11,6.083103256074889e-12,-0.10664271978120324,0,70,255.0,255.0,255.0
68,3.4000000000000004,10.499999999999725,-3.000000000000078,-2.1561696928261336,-2.229089900790584e-13,-6.286341648985212e-14,-1.0464628228244768,4.4435173624521934e-11,1.2531333192826775e-11,-0.10074007488278905,0,70,255.0,255.0,255.0
69,3.45,10.499999999999778,-3.0000000000000626,-2.2086162996255863,2.5704732614436487e-12,7.249089915702797e-13,-1.051352260446156,6.730011643638675e-11,1.89795631295786e-11,-0.0948374299843749,0,70,255.0,255.0,255.0
70,3.5,10.5,-3.0,-2.2613,6.507102653559592e-12,1.835092896468002e-12,-1.0559465658229141,9.016505924825157e-11,2.542779306633043e-11,-0.08893478508596253,0,70,255.0,255.0,255.0
71,3.5500000000000003,10.500000000000401,-2.9999999999998863,-2.3142055699445856,8.882027408821246e-12,2.504854506213407e-12,-1.0602176954021731,4.8319309622141386e-12,1.3626713234856317e-12,-0.08191039808439658,0,70,255.0,255.0,255.0
72,3.6,10.500000000000817,-2.99999999999977,-2.367315915884383,6.990295749781044e-12,1.9713600288165756e-12,-1.0641376056313538,-8.050119732382254e-11,-2.2702450419358953e-11,-0.07488601108283069,0,70,255.0,255.0,255.0
73,3.6500000000000004,10.50000000000103,-2.9999999999997096,-2.4206134768518863,8.319076764389507e-13,2.346094642774997e-13,-1.0677062965104562,-1.6583432560985997e-10,-4.676757216220375e-11,-0.06786162408126474,0,70,255.0,255.0,255.0
74,3.7,10.50000000000083,-2.9999999999997664,-2.4740806918795935,-9.593136811204931e-12,-2.7053971874037923e-12,-1.0709237680394803,-2.5116745389589665e-10,-7.083269390504833e-11,-0.060837237079698854,0,70,255.0,255.0,255.0
75,3.75,10.5,-3.0,-2.5277,-2.428483771315063e-11,-6.848659926227308e-12,-1.0737900202184263,-3.365005821819334e-10,-9.489781564789287e-11,-0.0538128500781383,0,70,255.0,255.0,255.0
76,3.8000000000000003,10.499999999998497,-3.0000000000004237,-2.5814541338205625,-3.314817756394023e-11,-9.348244282756283e-12,-1.07632266754495,-1.803301184964865e-11,-5.085558613265593e-12,-0.04749304298280986,0,70,255.0,255.0,255.0
77,3.85,10.499999999996952,-3.0000000000008598,-2.635327000248582,-2.6088138898115636e-11,-7.357215787553907e-12,-1.0785393245167074,3.004345584826333e-10,8.472669842136089e-11,-0.04117323588748149,0,70,255.0,255.0,255.0
78,3.9000000000000004,10.499999999996154,-3.0000000000010845,-2.689302799766321,-3.1047217156767297e-12,-8.755744406201473e-13,-1.0804399911336982,6.18902128814918e-10,1.7453895545598817e-10,-0.03485342879215305,0,70,255.0,255.0,255.0
79,3.95,10.499999999996906,-3.0000000000008726,-2.7433657328560392,3.580207398337609e-11,1.0096679758044881e-11,-1.0820246673959226,9.373696991471999e-10,2.6435121249061465e-10,-0.028533621696824673,0,70,255.0,255.0,255.0
80,4.0,10.5,-3.0,-2.7975,9.063224819904293e-11,2.5559546808441227e-11,-1.0832933533033806,1.2558372694794816e-09,3.541634695252412e-10,-0.022213814601492743,0,70,255.0,255.0,255.0
81,4.05,10.500000000005606,-2.9999999999984186,-2.8516898947731635,1.2371068284693963e-10,3.488812262481172e-11,-1.0842516344180273,6.730011643639082e-11,1.8979563129579764e-11,-0.016117429984376506,0,70,255.0,255.0,255.0
82,4.1000000000000005,10.500000000011381,-2.9999999999967906,-2.9059200831212886,9.7362259842681e-11,2.745750312139892e-11,-1.0849050963018183,-1.121237036606721e-09,-3.1620434326608755e-10,-0.010021045367260164,0,70,255.0,255.0,255.0
83,4.15,10.500000000014351,-2.9999999999959526,-2.9601753240828317,1.1586979186267945e-11,3.2676882982030846e-12,-1.0852537389547534,-2.309774189649812e-09,-6.513882496617489e-10,-0.0039246607501439296,0,70,255.0,255.0,255.0
84,4.2,10.500000000011548,-2.999999999996743,-3.0144403766962498,-1.3361515912229938e-10,-3.768132184477575e-11,-1.0852975623768326,-3.4983113426929033e-09,-9.865721560574104e-10,0.002171723866972307,0,70,255.0,255.0,255.0
85,4.25,10.5,-3.0,-3.0687,-3.382441550830211e-10,-9.53895273075376e-11,-1.085036566568056,-4.686848495735994e-09,-1.3217560624530715e-09,0.008268108484093872,0,70,255.0,255.0,255.0
86,4.3,10.499999999979076,-3.0000000000059,-3.122939087086783,-4.6169455382381825e-10,-1.3020424621649057e-10,-1.0844787947829457,-2.51167453895912e-10,-7.083269390505251e-11,0.014042762920311327,0,70,255.0,255.0,255.0
87,4.3500000000000005,10.499999999957529,-3.0000000000119784,-3.177143067266265,-3.6336090047260856e-10,-1.0247279669804179e-10,-1.083632290276025,4.184513587944249e-09,1.1800906746429884e-09,0.019817417356528883,0,70,255.0,255.0,255.0
88,4.4,10.499999999946438,-3.0000000000151057,-3.2312975039023555,-4.324319502939512e-11,-1.2195178752192207e-11,-1.0824970530472928,8.62019462978433e-09,2.4310140431910077e-09,0.02559207179274634,0,70,255.0,255.0,255.0
89,4.45,10.499999999956898,-3.0000000000121556,-3.285387960358964,4.986585625058215e-10,1.406286076210581e-10,-1.08107308309675,1.3055875671624412e-08,3.681937411739026e-09,0.03136672622896379,0,70,255.0,255.0,255.0
90,4.5,10.5,-3.0,-3.3394,1.2623443721330414e-09,3.5599856242170913e-10,-1.0793603804243963,1.7491556713464493e-08,4.932860780287044e-09,0.03714138066519013,0,70,255.0,255.0,255.0
91,4.55,10.500000000078085,-2.999999999977979,-3.3933185568797057,1.7230675324483337e-09,4.859288622411504e-10,-1.077321186450187,9.37369699147257e-10,2.643512124906301e-10,0.04442637830317861,0,70,255.0,255.0,255.0
92,4.6000000000000005,10.500000000158511,-2.9999999999552975,-3.4471260478136547,1.3560813420477531e-09,3.824336836707681e-10,-1.0749177425940784,-1.561681731517027e-08,-4.404158355305867e-09,0.051711375941167224,0,70,255.0,255.0,255.0
93,4.65,10.500000000199897,-2.999999999943626,-3.500804260307749,1.6138580093131304e-10,4.551302671056558e-11,-1.0721500488560705,-3.2171004329487504e-08,-9.072667923102282e-09,0.058996373579155714,0,70,255.0,255.0,255.0
94,4.7,10.500000000160854,-2.999999999954637,-3.5543349818678958,-1.8610190909009855e-09,-5.24833108639457e-10,-1.069018105236163,-4.872519134380474e-08,-1.3741177490898695e-08,0.0662813712171442,0,70,255.0,255.0,255.0
95,4.75,10.5,-3.0,-3.6077,-4.7111333334491444e-09,-1.3286047223792989e-09,-1.065521911734356,-6.527937835812196e-08,-1.8409687058695102e-08,0.07356636885513979,0,70,255.0,255.0,255.0
96,4.800000000000001,10.499999999708587,-3.000000000082183,-3.6608818853943945,-6.430575575969519e-09,-1.8135112027481122e-09,-1.0617084594163033,-3.4983113426920066e-09,-9.865721560571584e-10,0.07897172386695964,0,70,255.0,255.0,255.0
97,4.8500000000000005,10.499999999408427,-3.000000000166832,-3.7138663414791204,-5.0609644677184015e-09,-1.4272619379850309e-09,-1.0576247393476599,5.828275567273684e-08,1.6436542746580474e-08,0.0843770788787794,0,70,255.0,255.0,255.0
98,4.9,10.499999999253973,-3.00000000021039,-3.7666398548666504,-6.023000086958544e-10,-1.6985692809007082e-10,-1.0532707515284256,1.200638226881657e-07,3.385965764921811e-08,0.08978243389059916,0,70,255.0,255.0,255.0
99,4.95,10.499999999399682,-3.0000000001692984,-3.8191889121694533,6.9454178010981264e-09,1.958703826936768e-09,-1.0486464959586,1.8184488970359458e-07,5.1282772551855746e-08,0.09518778890241891,0,70,255.0,255.0,255.0
100,5.0,10.5,-3.0,-3.8715,1.7582188961663536e-08,4.958420327095486e-09,-1.0437519726381839,2.436259567190234e-07,6.870588745449339e-08,0.10059314391423335,0,70,255.0,255.0,255.0
101,5.050000000000001,10.500000001087573,-2.9999999996932902,-3.9235587015427194,2.3999234771429738e-08,6.768115948751299e-09,-1.0385329758846034,1.305587567162111e-08,3.6819374117380992e-09,0.10816672622898313,0,70,255.0,255.0,255.0
102,5.1000000000000005,10.50000000220778,-2.999999999377375,-3.9753469862698654,1.8887776528825858e-08,5.326614068269355e-09,-1.0329353000152854,-2.1751420537577711e-07,-6.134201263101603e-08,0.11574030854373278,0,70,255.0,255.0,255.0
103,5.15,10.500000002784208,-2.999999999214815,-4.026845920225652,2.247814233852107e-09,6.339146856497169e-10,-1.0269589450302303,-4.480842864231753e-07,-1.2636596267377016e-07,0.12331389085848242,0,70,255.0,255.0,255.0
104,5.2,10.50000000224042,-2.9999999993681703,-4.078036569454292,-2.5920652113491515e-08,-7.309982199107616e-09,-1.0206039109294371,-6.786543674705735e-07,-1.9138991271652433e-07,0.13088747317323207,0,70,255.0,255.0,255.0
105,5.25,10.5,-3.0,-4.1289,-6.5617622513205e-08,-1.8505076586002645e-08,-1.0138701977129072,-9.092244485179716e-07,-2.564138627592784e-07,0.13846105548797638,0,70,255.0,255.0,255.0
106,5.300000000000001,10.49999999594113,-3.0000000011446573,-4.179418508434733,-8.956636350974943e-08,-2.5258952592257083e-08,-1.006831637045279,-4.8725191343792316e-08,-1.3741177490895242e-08,0.14308137121714715,0,70,255.0,255.0,255.0
107,5.3500000000000005,10.499999991760447,-3.000000002323668,-4.229579313441421,-7.049014164758502e-08,-1.9879194335092396e-08,-0.9995620605911925,8.117740658303718e-07,2.289315077774837e-07,0.14770168694631783,0,70,255.0,255.0,255.0
108,5.4,10.499999989609199,-3.0000000029303497,-4.279370864230743,-8.388956926712578e-09,-2.3658018145087967e-09,-0.9920614683506473,1.6722733230045358e-06,4.716041930458625e-07,0.1523220026754885,0,70,255.0,255.0,255.0
109,5.45,10.499999991638633,-3.0000000023580213,-4.328781610013377,9.673719065286793e-08,2.7281224969493698e-08,-0.9843298603236436,2.5327725801786996e-06,7.142768783142414e-07,0.1569423184046592,0,70,255.0,255.0,255.0
110,5.5,10.5,-3.0,-4.3778,2.4488830109115646e-07,6.90618860169151e-08,-0.9763672365101813,3.3932718373528638e-06,9.569495635826202e-07,0.16156263413383432,0,70,255.0,255.0,255.0
111,5.550000000000001,10.500000015147911,-2.99999999572808,-4.426412864718355,3.3426621926756806e-07,9.426769442027702e-08,-0.9680764759342753,1.8184488970354873e-07,5.128277255184262e-08,0.17006778890240562,0,70,255.0,255.0,255.0
112,5.6000000000000005,10.500000030750433,-2.999999991327953,-4.474600559964454,2.6307279006151433e-07,7.41901632721002e-08,-0.9593604576199407,-3.0295820579457087e-06,-8.543840184789189e-07,0.17857294367097679,0,70,255.0,255.0,255.0
113,5.65,10.500000038779001,-2.9999999890637863,-4.522341822851375,3.1308013472998205e-08,8.829292572385432e-09,-0.9502191815671776,-6.241009005594966e-06,-1.7600508095096805e-06,0.18707809843954795,0,70,255.0,255.0,255.0
114,5.7,10.500000031205046,-2.999999991199746,-4.5696153904921974,-3.6102811049798033e-07,-1.0181491767886724e-07,-0.9406526477759859,-9.452435953244225e-06,-2.665717600540442e-06,0.1955832532081191,0,70,255.0,255.0,255.0
115,5.75,10.5,-3.0,-4.6164,-9.139355818514208e-07,-2.5774246748165775e-07,-0.9306608562463657,-1.2663862900893482e-05,-3.5713843915712026e-06,0.2040884079766938,0,70,255.0,255.0,255.0
116,5.800000000000001,10.499999943467229,-3.0000000159430225,-4.662676432691849,-1.2474985135605227e-06,-3.518118250888511e-07,-0.9203664592176177,-6.786543674704024e-07,-1.9138991271647576e-07,0.20768747317322098,0,70,255.0,255.0,255.0
117,5.8500000000000005,10.499999885237823,-3.000000032364521,-4.708433646700765,-9.818010185984721e-07,-2.768814587533085e-07,-0.9098921089290436,1.1306554165952464e-05,3.188604566138191e-06,0.21128653836974806,0,70,255.0,255.0,255.0
118,5.9,10.499999855274801,-3.0000000408145064,-4.7536626443637555,-1.1684309696528037e-07,-3.2951368475033044e-08,-0.899237805380643,2.3291762699375327e-05,6.568599044992858e-06,0.21488560356627515,0,70,255.0,255.0,255.0
119,5.95,10.499999883541186,-3.000000032842995,-4.798354428017832,1.3473752513390522e-06,3.7997844574597516e-07,-0.8884035485724161,3.52769712327982e-05,9.948593523847524e-06,0.21848466876280226,0,70,255.0,255.0,255.0
120,6.0,10.5,-3.0,-4.8425,3.4108540263145268e-06,9.619079839097158e-07,-0.8773893385043628,4.726217976622105e-05,1.3328588002702191e-05,0.2220837339593329,0,70,255.0,255.0,255.0
121,6.050000000000001,10.500000210983172,-2.9999999404998285,-4.886087804514251,4.655727834974522e-06,1.3129796059351273e-06,-0.8660416871952625,2.532772580178057e-06,7.142768783140606e-07,0.2318223184046754,0,70,255.0,255.0,255.0
122,6.1000000000000005,10.500000428298277,-2.999999879213965,-4.92909605323249,3.664131284332374e-06,1.0333356717411337e-06,-0.8542071066638952,-4.219663460586415e-05,-1.1900034246073843e-05,0.24156090285001774,0,70,255.0,255.0,255.0
123,6.15,10.500000540121794,-2.9999998476781875,-4.971500399693602,4.3606437438812287e-07,1.229761813277465e-07,-0.8418855969102608,-8.692604179190636e-05,-2.451434537046175e-05,0.25129948729536006,0,70,255.0,255.0,255.0
124,6.2,10.50000043463021,-2.999999877428273,-5.013276497436477,-5.028472894858228e-06,-1.4180988653050327e-06,-0.8290771579343593,-0.00013165544897794854,-3.7128656494849654e-05,0.2610380717407024,0,70,255.0,255.0,255.0
125,6.25,10.5,-3.0,-5.0544,-1.2729480523406686e-05,-3.5898894681572056e-06,-0.8157817897361906,-0.00017638485616399077,-4.974296761923755e-05,0.27077665618604474,0,70,255.0,255.0,255.0
126,6.300000000000001,10.49999921260008,-3.0000002220576625,-5.094850749251152,-1.7375412826337567e-05,-4.900106598651657e-06,-0.802250792001336,-9.45243595324184e-06,-2.6657176005397633e-06,0.27046325320813286,0,70,255.0,255.0,255.0
127,6.3500000000000005,10.499998401569067,-3.0000004507796185,-5.134625340369283,-1.3674724118731023e-05,-3.856461228211224e-06,-0.7887354644153772,0.00015747998425750411,4.441153241815718e-05,0.270149850230221,0,70,255.0,255.0,255.0
128,6.4,10.499997984238018,-3.000000568472743,-5.1737245568618375,-1.6274144005872128e-06,-4.5895335683595456e-07,-0.775235806978314,0.00032441240446825007,9.148878243685413e-05,0.26983644725230904,0,70,255.0,255.0,255.0
129,6.45,10.499998377937978,-3.000000457443912,-5.212149182236261,1.8766516328093863e-05,5.292417015474157e-06,-0.7617518196901465,0.0004913448246789961,0.00013856603245555107,0.26952304427439716,0,70,255.0,255.0,255.0
130,6.5,10.5,-3.0,-5.2499,4.7507068067312215e-05,1.3397649888719106e-05,-0.7482835025508744,0.0006582772448897418,0.00018564328247424802,0.2692096412964835,0,70,255.0,255.0,255.0
131,6.550000000000001,10.500002938616511,-2.999999171269523,-5.286966798481147,6.484592347037574e-05,1.82874467886715e-05,-0.7341711447993922,3.527697123278917e-05,9.948593523845001e-06,0.29528466876279486,0,70,255.0,255.0,255.0
132,6.6000000000000005,10.500005965425453,-2.999998317667562,-5.323295385290385,5.1034765190591716e-05,1.439250924110377e-05,-0.7187550356745948,-0.0005877233024241524,-0.00016574609542655493,0.32135969622910576,0,70,255.0,255.0,255.0
133,6.65,10.500007522926136,-2.9999978784308396,-5.358820572859051,6.0735932279606995e-06,1.712837246016067e-06,-0.7020351751764818,-0.0012107235760810938,-0.00034144078437695486,0.3474347236954166,0,70,255.0,255.0,255.0
134,6.7,10.50000605361788,-2.9999982927960778,-5.393477173618478,-7.00375924175172e-05,-1.9751569196591594e-05,-0.6840115633050532,-0.0018337238497380354,-0.0005171354733273547,0.3735097511617275,0,70,255.0,255.0,255.0
135,6.75,10.5,-3.0,-5.4272,-0.00017729879174584217,-5.000071008671922e-05,-0.6646842000603093,-0.002456724123394977,-0.0006928301622777552,0.39958477862803754,0,70,255.0,255.0,255.0
136,6.800000000000001,10.499988232933871,-3.0000038928642465,-5.459920456824268,-0.0002900082810550549,-0.00011624968055613702,-0.6438486288010907,-0.002051655448973468,-0.0019571286564989197,0.4338380717406929,0,70,255.0,255.0,255.0
137,6.8500000000000005,10.499971336729125,-3.000012678550134,-5.491556318469183,-0.00038246433664319043,-0.0002457135757366111,-0.6213003928862398,-0.0016465867745519662,-0.0032214271507200617,0.4680913648533476,0,70,255.0,255.0,255.0
138,6.9,10.499950324057437,-3.0000295178038985,-5.522021951701963,-0.00045466695851025093,-0.0004383923956281421,-0.5970394923157561,-0.0012415181001304643,-0.004485725644941204,0.5023446579660024,0,70,255.0,255.0,255.0
139,6.95,10.4999262075905,-3.000057571371775,-5.55123172328983,-0.0005066161466562363,-0.0006942861402307299,-0.5710659270896397,-0.0008364494257089624,-0.005750024139162346,0.5365979510786572,0,70,255.0,255.0,255.0
140,7.0,10.4999,-3.0001,-5.5791,-0.0005383119010811468,-0.0010133948095443746,-0.5433796972078907,-0.00043138075128745963,-0.007014322633383488,0.5708512441913074,0,70,255.0,255.0,255.0
141,7.050000000000001,10.499872129647997,-3.0001588572734916,-5.6055673742217875,-0.0005848127992462476,-0.0013292887245674547,-0.5155543399962474,-0.0014286551753165436,-0.0056214339675395315,0.5421630442744076,0,70,255.0,255.0,255.0
142,7.1000000000000005,10.499840687658056,-3.000231768131902,-5.63067934083289,-0.000681177418612801,-0.001575538206298332,-0.4891633927804496,-0.0024259295993456103,-0.004228545301695599,0.5134748443575083,0,70,255.0,255.0,255.0
143,7.15,10.499803180844115,-3.000315250353567,-5.6545076203330975,-0.0008274057591808077,-0.001752143254737013,-0.4642068555604968,-0.0034232040233746763,-0.002835656635851668,0.48478664444060904,0,70,255.0,255.0,255.0
144,7.2,10.499757116020117,-3.000405821716821,-5.677123933222203,-0.0010234978209502676,-0.0018591038698834975,-0.4406847283363889,-0.004420478447403743,-0.0014427679700077358,0.45609844452370973,0,70,255.0,255.0,255.0
145,7.25,10.4997,-3.0005,-5.6986,-0.0012694536039211805,-0.0018964200517377862,-0.41859701110812597,-0.0054177528714328006,-4.987930416379405e-05,0.42741024460681043,0,70,255.0,255.0,255.0
146,7.300000000000001,10.499630448474141,-3.000595078041788,-5.719000446288583,-0.0014987405219511946,-0.001910595421174852,-0.39751801121391217,-0.003753723849767638,-0.0005171354733188301,0.41574975116173113,0,70,255.0,255.0,255.0
147,7.3500000000000005,10.499551512638657,-3.0006914489222583,-5.738361518199262,-0.0016448259888979476,-0.0019481335990696692,-0.3770220359919526,-0.002089694828102504,-0.000984391642473858,0.4040892577166521,0,70,255.0,255.0,255.0
148,7.4,10.499467352566104,-3.000790280781836,-5.756712366965649,-0.0017077100047614444,-0.0020090345854222374,-0.35710908544224707,-0.0004256658064373704,-0.0014516478116288858,0.392428764271573,0,70,255.0,255.0,255.0
149,7.45,10.499382128329032,-3.0008927417609415,-5.774082143821357,-0.0016873925695416849,-0.002093298380232557,-0.3377791595647955,0.0012383632152277628,-0.0019189039807839137,0.38076827082649395,0,70,255.0,255.0,255.0
150,7.5,10.4993,-3.001,-5.7905,-0.0015838736832386685,-0.002200924983500628,-0.31903225835959775,0.0029023922368928926,-0.002386160149938938,0.3691077773814162,0,70,255.0,255.0,255.0
151,7.550000000000001,10.499224476455442,-3.0011120305593577,-5.805998040623879,-0.0014362251129584392,-0.002260329590728496,-0.3010456151480964,0.0030035505743161916,9.975860824267945e-06,0.35035795107862827,0,70,255.0,255.0,255.0
152,7.6000000000000005,10.499156461787319,-3.0012240361790634,-5.8206201863700615,-0.0012835186258070479,-0.0021999273974182033,-0.2839964632517347,0.0031047089117394885,0.0024061118715874305,0.3316081247758407,0,70,255.0,255.0,255.0
153,7.65,10.499096208891475,-3.0013300265190908,-5.834413311804306,-0.0011257542217844917,-0.0020197184035697533,-0.26788480267051246,0.0032058672491627857,0.0048022478823505944,0.31285829847305313,0,70,255.0,255.0,255.0
154,7.7,10.499043970663754,-3.0014240112394117,-5.8474242914923655,-0.0009629319008907705,-0.0017197026091831458,-0.2527106334044295,0.0033070255865860826,0.0071983838931137575,0.29410847217026553,0,70,255.0,255.0,255.0
155,7.75,10.499,-3.0015,-5.8597,-0.0007950516631258846,-0.0012998800142583803,-0.238473955453486,0.0034081839240093816,0.009594519903876919,0.2753586458674788,0,70,255.0,255.0,255.0
156,7.800000000000001,10.498964445704095,-3.0015535997207805,-5.8712857912159,-0.0006283590262103359,-0.0008560862159115648,-0.22508352819370575,0.003259521552612471,0.008157232029995447,0.26025844452372277,0,70,255.0,255.0,255.0
157,7.8500000000000005,10.49893704021207,-3.001586806361486,-5.88222093632049,-0.0004690995078646356,-0.0004841568112588299,-0.21244811100111355,0.0031108591812155635,0.0067199441561140005,0.24515824317996693,0,70,255.0,255.0,255.0
158,7.9,10.498917411867998,-3.0016032131418013,-5.892543185817131,-0.0003172731080887806,-0.000184091800300167,-0.20056770387570916,0.0029621968098186555,0.005282656282232555,0.2300580418362111,0,70,255.0,255.0,255.0
159,7.95,10.49890518901595,-3.001606413281411,-5.902290290209181,-0.00017287982688277107,4.410881696442369e-05,-0.18944230681749252,0.002813534438421748,0.003845368408351109,0.21495784049245528,0,70,255.0,255.0,255.0
160,8.0,10.4989,-3.0016,-5.9115,-3.5919664246606835e-05,0.0002004450405349425,-0.1790719198264637,0.002664872067024842,0.002408080534469662,0.19985763914869992,0,70,255.0,255.0,255.0
161,8.05,10.498901740728185,-3.0015863705575194,-5.9202107945125215,0.00010966121780874582,0.0003566744543771798,-0.16950027207708326,0.003158363215189182,0.0038410960192197382,0.18300827082651205,0,70,255.0,255.0,255.0
162,8.1,10.498911377364406,-3.0015631383749914,-5.928464068347976,0.00027991665727230934,0.0005845546424569124,-0.16077109274381252,0.003651854363353505,0.005274111503969763,0.1661589025043248,0,70,255.0,255.0,255.0
163,8.15,10.498930143636535,-3.001526720913703,-5.9363019449271714,0.0004748466541440959,0.0008840856047741567,-0.15288438182665087,0.0041453455115178445,0.006707126988719839,0.14930953418213694,0,70,255.0,255.0,255.0
164,8.200000000000001,10.498959273272442,-3.001473535634944,-5.9437665476709105,0.0006944512084240997,0.0012552673413289057,-0.1458401393255986,0.004638836659682184,0.008140142473469916,0.13246016585994907,0,70,255.0,255.0,255.0
165,8.25,10.499,-3.0014,-5.9509,0.0009387303201123118,0.001698099852121143,-0.13963836524065598,0.00513232780784651,0.009573157958219943,0.11561079753776182,0,70,255.0,255.0,255.0
166,8.3,10.499053391383173,-3.00130251804914,-5.957743830734014,0.0011977141549730185,0.00221338839840427,-0.13424338349795542,0.00522702558658161,0.01103838389310482,0.10018847217025716,0,70,255.0,255.0,255.0
167,8.35,10.499119850330313,-3.001177440138547,-5.964337190287601,0.0014614328787704708,0.0028019382414316185,-0.12961951802363028,0.005321723365316706,0.012503609827989644,0.08476614680275303,0,70,255.0,255.0,255.0
168,8.4,10.499199613585866,-3.001021103203384,-5.970718634474183,0.0017298864915046874,0.003463749381203232,-0.12576676881768017,0.005416421144051806,0.013968835762874523,0.06934382143524837,0,70,255.0,255.0,255.0
169,8.450000000000001,10.499292917894278,-3.0008298441788144,-5.976926719107176,0.002003074993175659,0.0041988218177190905,-0.12268513588010534,0.005511118922786906,0.0154340616977594,0.053921496067743685,0,70,255.0,255.0,255.0
170,8.5,10.4994,-3.0006,-5.983,0.002280998383783376,0.005007155550979164,-0.12037461921090581,0.005605816701521993,0.016899287632644214,0.038499170700239116,0,70,255.0,255.0,255.0
171,8.55,10.499521493739122,-3.0003291572459205,-5.988977882551423,0.002587482162282603,0.00581377195200424,-0.11888619393108907,0.006653534438446916,0.015365368408358343,0.021037840492429558,0,70,255.0,255.0,255.0
172,8.6,10.499659621314342,-3.0000199010708197,-5.9949031705016145,0.002946351827628063,0.006543692391814996,-0.11827083516166283,0.007701252175371801,0.013831449184072527,0.0035765102846206168,0,70,255.0,255.0,255.0
173,8.65,10.49981700202,-2.9996760662727593,-6.000819517176096,0.0033576073798197823,0.0071969168704114845,-0.11852854290262704,0.008748969912296725,0.012297529959786658,-0.013884819923188942,0,70,255.0,255.0,255.0
174,8.700000000000001,10.499996255150437,-2.9993014876497988,-6.006770575900385,0.0038212488188577483,0.007773445387793679,-0.11965931715398175,0.009796687649221647,0.010763610735500787,-0.03134615013099851,0,70,255.0,255.0,255.0
175,8.75,10.5002,-2.9989,-6.0128,0.004337276144741942,0.008273277943961562,-0.12166315791572684,0.010844405386146533,0.009229691511214957,-0.04880748033880755,0,70,255.0,255.0,255.0
176,8.8,10.500430233660333,-2.9984736529671783,-6.018950239060294,0.004868357195888184,0.008803523793578683,-0.12446784077769758,0.010398836659702853,0.011980142473469499,-0.06337983414002069,0,70,255.0,255.0,255.0
177,8.85,10.500686464412317,-2.998017355578173,-6.025258927705938,0.005377159810712224,0.009471292191308503,-0.12800114132972887,0.009953267933259189,0.014730593435723943,-0.07795218794123332,0,70,255.0,255.0,255.0
178,8.9,10.500967578334134,-2.997524231705579,-6.031762496821434,0.005863683989214098,0.010276583137151074,-0.1322630595718209,0.009507699206815509,0.017481044397978485,-0.09252454174244645,0,70,255.0,255.0,255.0
179,8.950000000000001,10.501272461503966,-2.9969874052219896,-6.0384973772912875,0.006327929731393788,0.011219396631106377,-0.13725359550397365,0.009062130480371829,0.020231495360233026,-0.1070968955436596,0,70,255.0,255.0,255.0
180,9.0,10.5016,-2.9964,-6.0455,0.006769897037251278,0.012299732673174366,-0.14297274912618682,0.0086165617539282,0.022981946322487443,-0.12166924934487366,0,70,255.0,255.0,255.0
181,9.05,10.501949571619543,-2.9957570308853647,-6.0528083612074015,0.007219089054168939,0.01340413287368043,-0.1495144429581154,0.00935111892277798,0.021194061697754434,-0.1399985039322654,0,70,255.0,255.0,255.0
182,9.1,10.50232252103639,-2.995061076616486,-6.060466718674634,0.007705008929529072,0.014419138842949805,-0.15697259951941328,0.010085676091627733,0.01940617707302149,-0.15832775851965647,0,70,255.0,255.0,255.0
183,9.15,10.502720684643469,-2.994316606904924,-6.068520895538166,0.00822765666333171,0.01534475058098257,-0.16534721881008102,0.010820233260477513,0.017618292448288483,-0.17665701310704823,0,70,255.0,255.0,255.0
184,9.200000000000001,10.503145898833699,-2.9935280914622413,-6.077016714934465,0.008787032255576838,0.016180968087778677,-0.17463830083011833,0.011554790429327295,0.01583040782355547,-0.19498626769443994,0,70,255.0,255.0,255.0
185,9.25,10.5036,-2.9927,-6.086,0.009383135706264435,0.016927791363338114,-0.18484584557952494,0.012289347598177028,0.014042523198822432,-0.21331552228183126,0,70,255.0,255.0,255.0
186,9.3,10.504084279861498,-2.9918358234913613,-6.0955067161101,0.009983286587448445,0.017643944711696405,-0.1953783873898462,0.011716687649183016,0.014603610735508884,-0.20798615013101235,0,70,255.0,255.0,255.0
187,9.35,10.504597851442123,-2.990935137955883,-6.105533397595526,0.010554804471182733,0.018388152436888995,-0.20564446059262612,0.011144027700189026,0.015164698272195316,-0.20265677798019363,0,70,255.0,255.0,255.0
188,9.4,10.505139283091992,-2.989996540674725,-6.116066721025903,0.011097689357467343,0.019160414538915937,-0.21564406518786544,0.010571367751195014,0.01572578580888177,-0.19732740582937472,0,70,255.0,255.0,255.0
189,9.450000000000001,10.505707143161242,-2.989018628929044,-6.127093362970854,0.011611941246302248,0.019960731017777195,-0.22537720117556387,0.009998707802201003,0.01628687334556822,-0.1919980336785558,0,70,255.0,255.0,255.0
190,9.5,10.5063,-2.988,-6.1386,0.01209756013768744,0.02078910187347275,-0.23484386855572095,0.009426047853206956,0.016847960882254653,-0.18666866152773554,0,70,255.0,255.0,255.0
191,9.55,10.506916508934461,-2.986939675149191,-6.150575974352203,0.012559764596027768,0.021620088279534964,-0.2442040074825051,0.00906213048040593,0.016391495360233394,-0.18773689554362497,0,70,255.0,255.0,255.0
192,9.600000000000001,10.507555673195125,-2.9858383715599817,-6.163021290943265,0.013003773185728046,0.02242825140949611,-0.25361755811008374,0.008698213107604906,0.01593502983821213,-0.18880512955951437,0,70,255.0,255.0,255.0
193,9.65,10.508216582988556,-2.9846972303961765,-6.175938620358224,0.013429585906788256,0.02321359126335617,-0.2630845204384565,0.008334295734803893,0.015478564316190886,-0.18987336357540374,0,70,255.0,255.0,255.0
194,9.700000000000001,10.508898328521328,-2.9835173928215806,-6.189330633182123,0.01383720275920843,0.023976107841115195,-0.272604894467624,0.007970378362002867,0.015022098794169627,-0.19094159759129317,0,70,255.0,255.0,255.0
195,9.75,10.5096,-2.9823,-6.2032,0.014226623742988541,0.024715801142773133,-0.2821786801975857,0.007606460989201799,0.014565633272148576,-0.19200983160718144,0,70,255.0,255.0,255.0
196,9.8,10.510320884400652,-2.9810462759118743,-6.217548586481091,0.014609655028451997,0.025427702170165645,-0.29175758268012697,0.007714790429336214,0.013910407823551482,-0.19114626769446577,0,70,255.0,255.0,255.0
197,9.850000000000001,10.51106105577738,-2.9797577758041904,-6.232375038631419,0.014998102785922172,0.0261068419251283,-0.30129330696703255,0.007823119869470629,0.013255182374954386,-0.1902827037817501,0,70,255.0,255.0,255.0
198,9.9,10.511820784953779,-2.978436137740569,-6.247677197541201,0.015391967015399056,0.02675322040766108,-0.310785853058302,0.007931449309605041,0.012599956926357314,-0.1894191398690345,0,70,255.0,255.0,255.0
199,9.950000000000001,10.512600342753453,-2.9770829997846313,-6.263452904300656,0.015791247716882676,0.027366837617764025,-0.3202352209539359,0.008039778749739457,0.01194473147776022,-0.18855557595631883,0,70,255.0,255.0,255.0
200,10.0,10.5134,-2.9757,-6.2797,0.016195944890373,0.0279476935554371,-0.32964141065393376,0.008148108189873826,0.011289506029163288,-0.1876920120436023,0,70,255.0,255.0,255.0
201,10.05,10.514219953462927,-2.97428802120331,-6.296416079723433,0.01660161529017328,0.028541103039805196,-0.33898966179698775,0.008078707802137241,0.012446873345560123,-0.18623803367855138,0,70,255.0,255.0,255.0
202,10.100000000000001,10.515060103695362,-2.9728449252232556,-6.313597754531061,0.017003815670586737,0.02919238088999313,-0.34826521402178917,0.008009307414400655,0.013604240661956956,-0.18478405531350048,0,70,255.0,255.0,255.0
203,10.15,10.51592027719633,-2.9713678186415464,-6.331241389476974,0.017402546031613345,0.029901527106000886,-0.35746806732833775,0.007939907026664072,0.01476160797835375,-0.1833300769484496,0,70,255.0,255.0,255.0
204,10.200000000000001,10.516800300464867,-2.969853808039892,-6.349343349615258,0.017797806373253143,0.030668541687828503,-0.36659822171663403,0.007870506638927487,0.015918975294750583,-0.18187609858339868,0,70,255.0,255.0,255.0
205,10.25,10.5177,-2.9683,-6.3679,0.018189596695506093,0.031493424635475935,-0.3756556771866776,0.007801106251190959,0.017076342611147377,-0.18042212021835002,0,70,255.0,255.0,255.0
206,10.3,10.518619301747634,-2.966704039274886,-6.386908694625179,0.01858388381083765,0.03234388567060898,-0.38469977013191897,0.007970378362071097,0.016942098794173754,-0.1813415975912987,0,70,255.0,255.0,255.0
207,10.350000000000001,10.519558529441177,-2.9650657233027866,-6.406370743244336,0.018986634531713214,0.03318763451489334,-0.3937898369458077,0.008139650472951237,0.016807854977200127,-0.18226107496424737,0,70,255.0,255.0,255.0
208,10.4,10.520518106260898,-2.9633853876932443,-6.426288444550904,0.019397848858132772,0.03402467116832898,-0.4029258776283436,0.00830892258383137,0.016673611160226507,-0.18318055233719602,0,70,255.0,255.0,255.0
209,10.450000000000001,10.521498455387082,-2.9616633680558015,-6.4466640972383145,0.019817526790096348,0.03485499563091598,-0.41210789217952726,0.008478194694711508,0.016539367343252884,-0.1841000297101447,0,70,255.0,255.0,255.0
210,10.5,10.5225,-2.9599,-6.4675,0.02024566832760392,0.03567860790265427,-0.42133588059935806,0.008647466805591614,0.01640512352627954,-0.18501950708309467,0,70,255.0,255.0,255.0
211,10.55,10.52352283954653,-2.9580958216971465,-6.488797141775852,0.02066284946648635,0.036483354277755696,-0.43053125767534345,0.008039778749705292,0.015784731477777005,-0.18279557595631465,0,70,255.0,255.0,255.0
212,10.600000000000001,10.524565778539936,-2.956252181565598,-6.510551272491597,0.021049646202574462,0.037257081050431996,-0.43961543819498977,0.007432090693818971,0.015164339429274469,-0.18057164482953464,0,70,255.0,255.0,255.0
213,10.65,10.525627297760074,-2.9543706305854767,-6.5327568323194125,0.021406058535868248,0.03799978822068314,-0.4485884221582968,0.0068244026379326705,0.014543947380771955,-0.17834771370275468,0,70,255.0,255.0,255.0
214,10.700000000000001,10.52670587798681,-2.952452719736904,-6.555408261431487,0.021732086466367727,0.038711475788509184,-0.45745020956526516,0.0062167145820463485,0.01392355533226942,-0.17612378257597466,0,70,255.0,255.0,255.0
215,10.75,10.5278,-2.9505,-6.5785,0.022027729994072882,0.03939214375391008,-0.4662008004158942,0.005609026526159966,0.013303163283767017,-0.17389985144919695,0,70,255.0,255.0,255.0
216,10.8,10.52890854006624,-2.9485134739365284,-6.602027538271412,0.022316718323200185,0.040074697218372715,-0.47490319916670887,0.005950506638931945,0.013998975294737979,-0.17419609858338456,0,70,255.0,255.0,255.0
217,10.850000000000001,10.53003195639908,-2.94649195043482,-6.625990566789284,0.022622780657966086,0.040792041283383894,-0.4836204102742329,0.006291986751703925,0.014694787305708943,-0.17449234571757213,0,70,255.0,255.0,255.0
218,10.9,10.531171102698798,-2.9444336899648476,-6.650389826171447,0.022945916998370574,0.0415441759489436,-0.492352433738466,0.006633466864475892,0.015390599316679882,-0.1747885928517597,0,70,255.0,255.0,255.0
219,10.950000000000001,10.532326832665678,-2.942336952996583,-6.675226057035742,0.023286127344413675,0.04233110121505188,-0.5010992695594088,0.006974946977247872,0.016086411327650846,-0.17508483998594732,0,70,255.0,255.0,255.0
220,11.0,10.5335,-2.9402,-6.7005,0.023643411696095355,0.04315281708170868,-0.5098609177370607,0.007316427090019756,0.01678222333862167,-0.17538108712013756,0,70,255.0,255.0,255.0
221,11.05,10.534691000188504,-2.9380214825567394,-6.726211905138499,0.023990277240714605,0.04398585684875534,-0.5186079456578185,0.00655819469475008,0.016539367343244436,-0.17450002971016845,0,70,255.0,255.0,255.0
222,11.100000000000001,10.535898395863743,-2.93580161669512,-6.752360060351275,0.02429923116557037,0.04480675381603314,-0.5273109207080777,0.005799962299480405,0.016296511347867196,-0.17361897230019935,0,70,255.0,255.0,255.0
223,11.15,10.537120291444731,-2.933541009555132,-6.778942262994798,0.024570273470662644,0.04561550798354206,-0.5359698428878383,0.005041729904210757,0.016053655352489968,-0.1727379148902303,0,70,255.0,255.0,255.0
224,11.200000000000001,10.53835479135048,-2.9312402682767624,-6.805956310425549,0.024803404155991447,0.04641211935128214,-0.5445847121971007,0.004283497508941081,0.015810799357112732,-0.1718568574802612,0,70,255.0,255.0,255.0
225,11.25,10.5396,-2.9289,-6.8334,0.02499862322155675,0.04719658791925333,-0.5531555286358645,0.0035252651136712942,0.015567943361735448,-0.17097580007029656,0,70,255.0,255.0,255.0
226,11.3,10.540854659179749,-2.926520595836514,-6.861271241174593,0.0251941727139481,0.04798187538660378,-0.5616890182020213,0.004296714581982597,0.015843555332282027,-0.1703637825759724,0,70,255.0,255.0,255.0
227,11.350000000000001,10.542120060145953,-2.9241015827846972,-6.889568391805624,0.025428294679755017,0.04878094345248156,-0.570191906893462,0.005068164050293899,0.016119167302828603,-0.16975176508164827,0,70,255.0,255.0,255.0
228,11.4,10.543398131522281,-2.921642271814624,-6.91828992184936,0.025700989118977488,0.04959379211688663,-0.5786641947101862,0.005839613518605175,0.01639477927337517,-0.16913974758732414,0,70,255.0,255.0,255.0
229,11.450000000000001,10.544690801932406,-2.919141973896367,-6.9474343012620645,0.026012256031615534,0.05042042137981907,-0.5871058816521944,0.0066110629869164765,0.01667039124392175,-0.168527730093,0,70,255.0,255.0,255.0
230,11.5,10.546,-2.9166,-6.977,0.026362095417669127,0.0512608312412788,-0.595516967719486,0.007382512455227669,0.016946003214468208,-0.16791571259867233,0,70,255.0,255.0,255.0
231,11.55,10.547327163092502,-2.914016134097204,-7.006985530163134,0.026721031903481872,0.05208664160483158,-0.6038999815341012,0.006974946977281926,0.016086411327642214,-0.16740483998592984,0,70,255.0,255.0,255.0
232,11.600000000000001,10.54867176355245,-2.9113920521660894,-7.037389572426234,0.02705959011539733,0.05286947237404305,-0.6122574517180793,0.006567381499336183,0.015226819440816218,-0.16689396737318737,0,70,255.0,255.0,255.0
233,11.65,10.550032782466145,-2.908729903186372,-7.068210849607765,0.02737777005341549,0.053609323548913186,-0.6205893782714199,0.006159816021390455,0.014367227553990253,-0.1663830947604449,0,70,255.0,255.0,255.0
234,11.700000000000001,10.551409200919892,-2.9060318361377697,-7.099448084526198,0.027675571717536374,0.05430619512944206,-0.6288957611941236,0.0057522505434447115,0.013507635667164257,-0.16587222214770242,0,70,255.0,255.0,255.0
235,11.75,10.5528,-2.9033,-7.1311,0.027952995107759955,0.05496008711562961,-0.6371766004861901,0.005344685065498733,0.012648043780338236,-0.1653613495349564,0,70,255.0,255.0,255.0
236,11.8,10.554204688450238,-2.90053566777467,-7.163165038172873,0.028241699672121694,0.055623558194066,-0.6454150556615706,0.006203497508970602,0.013890799357117274,-0.16417685748026364,0,70,255.0,255.0,255.0
237,11.850000000000001,10.555624885644248,-2.8977366085509466,-7.195640518489446,0.028573344858657024,0.05634916705134135,-0.6535942862342167,0.007062309952442471,0.015133554933896311,-0.16299236542557086,0,70,255.0,255.0,255.0
238,11.9,10.55706273861314,-2.894899715439888,-7.228523479719581,0.028947930667365937,0.057136913687455625,-0.6617142922041277,0.007921122395914311,0.016376310510675306,-0.16180787337087812,0,70,255.0,255.0,255.0
239,11.950000000000001,10.55852039438802,-2.8920218815525534,-7.261810960633146,0.029365457098248456,0.057986798102408886,-0.6697750735713044,0.008779934839386178,0.01761906608745434,-0.16062338131618537,0,70,255.0,255.0,255.0
240,12.0,10.56,-2.8891,-7.2955,0.029825924151304545,0.05889882029620105,-0.6777766303357461,0.009638747282857935,0.018861821664232947,-0.15943888926148997,0,70,255.0,255.0,255.0
241,12.05,10.561502883106545,-2.886132394804118,-7.3295879171453775,0.03028016940804795,0.05978712561890513,-0.685735795819609,0.008531062986877848,0.016670391243930084,-0.15892773009302114,0,70,255.0,255.0,255.0
242,12.100000000000001,10.56302709387056,-2.8831231136301265,-7.364073153615987,0.03067903044999234,0.06056585942059408,-0.6936694033450483,0.0074233786908977605,0.014478960823627223,-0.1584165709245523,0,70,255.0,255.0,255.0
243,12.15,10.5645698630813,-2.880077635054076,-7.398954431513908,0.03102250727713772,0.06123502170126786,-0.7015774529120642,0.006315694394917712,0.012287530403324438,-0.1579054117560835,0,70,255.0,255.0,255.0
244,12.200000000000001,10.566128421528026,-2.8770014376520163,-7.434230472941221,0.031310599889484106,0.06179461246092651,-0.7094599445206566,0.005208010098937625,0.010096099983021576,-0.15739425258761466,0,70,255.0,255.0,255.0
245,12.25,10.5677,-2.8739,-7.4699,0.03154330828703149,0.06224463169957002,-0.7173168781708256,0.004100325802957383,0.007904669562718625,-0.15688309341914586,0,70,255.0,255.0,255.0
246,12.3,10.569282979123582,-2.8707771530088575,-7.505961693245618,0.03178962269569069,0.06268393933031668,-0.7251457610599966,0.005752250543410444,0.009667635667147591,-0.1562722221476898,0,70,255.0,255.0,255.0
247,12.350000000000001,10.57088033887352,-2.8676301369285477,-7.542414067046608,0.032118533341372546,0.06321139526628479,-0.7329441003855948,0.007404175283863504,0.01143060177157656,-0.15566135087623376,0,70,255.0,255.0,255.0
248,12.4,10.57249620906167,-2.864454544343809,-7.579255594224785,0.03253004022407703,0.06382699950747434,-0.7407118961476199,0.009056100024316505,0.013193567876005464,-0.15505047960477772,0,70,255.0,255.0,255.0
249,12.450000000000001,10.57413471949988,-2.86124596783938,-7.616484747601977,0.03302414334380419,0.06453075205388534,-0.7484491483460725,0.010708024764769565,0.014956533980434433,-0.15443960833332165,0,70,255.0,255.0,255.0
250,12.5,10.5758,-2.858,-7.6541,0.033600842700553975,0.06532265290551777,-0.756155856980952,0.0123599495052224,0.016719500084862893,-0.1538287370618674,0,70,255.0,255.0,255.0
251,12.55,10.577494800399132,-2.8547133931604503,-7.692099709872148,0.034177339809170794,0.0661331170598258,-0.7638251599404035,0.01069993483944983,0.015699066087458444,-0.15294338131618535,0,70,255.0,255.0,255.0
252,12.600000000000001,10.57921635063536,-2.851387538655682,-7.730481778197586,0.03467083618449897,0.06689255951426364,-0.7714501951125707,0.00903992017367726,0.014678632090053993,-0.15205802557050327,0,70,255.0,255.0,255.0
253,12.65,10.580960500672026,-2.8480249875706884,-7.76924399158695,0.03508133182653852,0.0676009802688312,-0.7790309624974537,0.007379905507904749,0.013658198092649579,-0.15117266982482125,0,70,255.0,255.0,255.0
254,12.700000000000001,10.58272310047246,-2.8446282909904634,-7.8083841366508775,0.03540882673528944,0.06825837932352859,-0.7865674620950528,0.005719890842132178,0.01263776409524513,-0.15028731407913917,0,70,255.0,255.0,255.0
255,12.75,10.5845,-2.8412,-7.8479,0.03565332091075174,0.0688647566783557,-0.7940596939053676,0.004059876176359722,0.011617330097840384,-0.14940195833345715,0,70,255.0,255.0,255.0
256,12.8,10.586288219279892,-2.8377420743493413,-7.887789867265791,0.03588501806763418,0.06945559243037758,-0.8015375991783945,0.005208010098937626,0.012016099983034195,-0.14971425258761517,0,70,255.0,255.0,255.0
257,12.850000000000001,10.588089458585031,-2.8342541084487247,-7.928054020163053,0.036174121920645515,0.07006636667665915,-0.8090311191641293,0.00635614402151553,0.012414869868228007,-0.1500265468417732,0,70,255.0,255.0,255.0
258,12.9,10.589906588250225,-2.8307351053734378,-7.968693239427417,0.03652063246978572,0.07069707941720037,-0.8165402538625717,0.007504277944093393,0.012813639753421804,-0.1503388410959312,0,70,255.0,255.0,255.0
259,12.950000000000001,10.591742478610282,-2.827184068198767,-8.009708305794522,0.03692454971505485,0.07134773065200133,-0.8240650032737223,0.008652411866671296,0.013212409638615617,-0.15065113535008923,0,70,255.0,255.0,255.0
260,13.0,10.5936,-2.8236,-8.0511,0.03738587365645286,0.07201832038106193,-0.8316053673975805,0.009800545789249104,0.013611179523809191,-0.1509634296042428,0,70,255.0,255.0,255.0
261,13.05,10.5954811224813,-2.8199823094421848,-8.092868021064687,0.037850587920301736,0.07268451321866772,-0.8390964433460196,0.008788024764705612,0.013036533980421608,-0.14867960833331748,0,70,255.0,255.0,255.0
262,13.100000000000001,10.597384215024512,-2.8163320275494192,-8.135007741150211,0.03826467613292343,0.0733219737791041,-0.8464733282309125,0.0077755037401621195,0.012461888437034024,-0.14639578706239215,0,70,255.0,255.0,255.0
263,13.15,10.59930674632707,-2.812650590935561,-8.177513450703385,0.03862813829431794,0.07393070206237111,-0.8537360220522587,0.006762982715618664,0.011887242893646462,-0.14411196579146687,0,70,255.0,255.0,255.0
264,13.200000000000001,10.60124618508642,-2.808939436214468,-8.220379440171046,0.038940974404485296,0.07451069806846874,-0.8608845248100591,0.005750461691075171,0.011312597350258878,-0.14182814452054154,0,70,255.0,255.0,255.0
265,13.25,10.6032,-2.8052,-8.2636,0.03920318446342545,0.07506196179739699,-0.8679188365043129,0.004737940666531437,0.010737951806871315,-0.13954432324961807,0,70,255.0,255.0,255.0
266,13.3,10.605166490794911,-2.801433487881918,-8.307170848475456,0.03946463025114375,0.07559835469495002,-0.8749246274375317,0.005719890842200428,0.010717764095249471,-0.14068731407912907,0,70,255.0,255.0,255.0
267,13.350000000000001,10.607147281316927,-2.7976401813535983,-8.351093415236113,0.0397751735476455,0.07613373820692196,-0.881987567912226,0.0067018410178694195,0.010697576383627627,-0.1418303049086401,0,70,255.0,255.0,255.0
268,13.4,10.609144826441488,-2.793820130884319,-8.395370557759039,0.04013481435293069,0.07666811233331278,-0.8891076579283956,0.007683791193538377,0.010677388672005784,-0.14297329573815107,0,70,255.0,255.0,255.0
269,13.450000000000001,10.611161581044033,-2.78997338694336,-8.44000513352131,0.04054355266699934,0.07720147707412252,-0.8962848974860411,0.008665741369207367,0.01065720096038394,-0.14411628656766207,0,70,255.0,255.0,255.0
270,13.5,10.6132,-2.7861,-8.485,0.04100138848985142,0.07773383242935117,-0.9035192865851618,0.009647691544876213,0.010637013248761651,-0.1452592773971766,0,70,255.0,255.0,255.0
271,13.55,10.61526171433906,-2.782199739030142,-8.530356585033484,0.04145889107513927,0.0782820680015355,-0.9107250469038435,0.008652411866637174,0.011292409638611299,-0.1429711353500888,0,70,255.0,255.0,255.0
272,13.600000000000001,10.617345059707782,-2.7782712470361877,-8.576070597905346,0.04186662967651515,0.07886307339321232,-0.9178164001201708,0.007657132188398135,0.011947806028460947,-0.140682993303001,0,70,255.0,255.0,255.0
273,13.65,10.619447547906978,-2.774312885527163,-8.622136318260461,0.042224604293979076,0.07947684860438159,-0.9247933462341436,0.006661852510159131,0.012603202418310571,-0.1383948512559133,0,70,255.0,255.0,255.0
274,13.700000000000001,10.621566690737449,-2.7703230160120915,-8.66854802574372,0.04253281492753106,0.08012339363504337,-0.9316558852457621,0.005666572831920093,0.01325859880816022,-0.1361067092088255,0,70,255.0,255.0,255.0
275,13.75,10.6237,-2.7663,-8.7153,0.042791261577171086,0.0808027084851976,-0.9384040171550261,0.004671293153680978,0.013913995198009843,-0.13381856716173068,0,70,255.0,255.0,255.0
276,13.8,10.625845851848856,-2.7622427559975127,-8.762387611390603,0.04305180544828999,0.08148137329890444,-0.9451031849470842,0.005750461691075041,0.013232597350263022,-0.13414814452059076,0,70,255.0,255.0,255.0
277,13.850000000000001,10.628006079851943,-2.75815243050165,-8.809810593142508,0.043366307746278594,0.08212596822022393,-0.9518188316070854,0.006829630228469105,0.0125511995025162,-0.13447772187945084,0,70,255.0,255.0,255.0
278,13.9,10.6301833819306,-2.75403072700703,-8.85756976919911,0.043734768471136894,0.08273649324915605,-0.9585509571350292,0.007908798765863131,0.011869801654769403,-0.13480729923831092,0,70,255.0,255.0,255.0
279,13.950000000000001,10.632380456006173,-2.749879349008274,-8.90566596350381,0.04415718762286491,0.08331294838570086,-0.9652995615309165,0.008987967303257195,0.01118840380702258,-0.135136876597171,0,70,255.0,255.0,255.0
280,14.0,10.6346,-2.7457,-8.9541,0.044633565201462604,0.08385533362985832,-0.9720646447947463,0.010067135840651165,0.010507005959275673,-0.13546645395602752,0,70,255.0,255.0,255.0
281,14.05,10.636843678265512,-2.741494036979807,-9.002872169404105,0.04510188713170993,0.0843844388028498,-0.9788142133078376,0.008665741369241422,0.010657200960383653,-0.1345162865676176,0,70,255.0,255.0,255.0
282,14.100000000000001,10.639109020884446,-2.737261430957214,-9.051980629524627,0.04550013933838676,0.08492105372589671,-0.9855162734515082,0.00726434689783168,0.010807395961491632,-0.13356611917920772,0,70,255.0,255.0,255.0
283,14.15,10.641392524370625,-2.7330018064447166,-9.101423004943099,0.045828321821493094,0.08546517839899898,-0.9921708252257583,0.0058629524264219865,0.010957590962599607,-0.13261595179079783,0,70,255.0,255.0,255.0
284,14.200000000000001,10.64369068523787,-2.728714787954813,-9.151196920241047,0.04608643458102895,0.08601681282215666,-0.9987778686305879,0.004461557955012244,0.011107785963707586,-0.1316657844023879,0,70,255.0,255.0,255.0
285,14.25,10.646,-2.7244,-9.2013,0.04627447761699432,0.08657595699536974,-1.005337403665997,0.0030601634836023295,0.011257980964815673,-0.13071561701397272,0,70,255.0,255.0,255.0
286,14.3,10.648317835089099,-2.7200570960832575,-9.251730110992982,0.046444646024880784,0.08714087148969404,-1.0118639618215663,0.0037465728318562637,0.011338598808156153,-0.1303467092088006,0,70,255.0,255.0,255.0
287,14.350000000000001,10.650645036610278,-2.7156858456694946,-9.302486088758986,0.046649134900179946,0.08770981687618537,-1.0183720745868772,0.004432982180110198,0.011419216651496636,-0.12997780140362847,0,70,255.0,255.0,255.0
288,14.4,10.652983320586909,-2.711286047214103,-9.353567011028499,0.046887944242891805,0.08828279315484369,-1.0248617419619293,0.005119391528364109,0.011499834494837114,-0.12960889359845637,0,70,255.0,255.0,255.0
289,14.450000000000001,10.655334403042358,-2.7068574991724743,-9.404971955532009,0.04716107405301636,0.08885980032566908,-1.0313329639467228,0.005805800876618043,0.011580452338177595,-0.12923998579328425,0,70,255.0,255.0,255.0
290,14.5,10.6577,-2.7024,-9.4567,0.047468524330553596,0.08944083838866147,-1.0377857405412574,0.006492210224871675,0.011661070181518407,-0.12887107798810327,0,70,255.0,255.0,255.0
291,14.55,10.660081781378093,-2.6979135786871624,-9.50874978662397,0.04780752876875778,0.09001207523837522,-1.0441939394058906,0.007067967303295672,0.011188403807031183,-0.12745687659722013,0,70,255.0,255.0,255.0
292,14.600000000000001,10.66248123267444,-2.6933991863648075,-9.561118215439432,0.048175321060883174,0.0905596787693646,-1.0505314282009794,0.007643724381719668,0.010715737432543957,-0.12604267520633702,0,70,255.0,255.0,255.0
293,14.65,10.664899793281746,-2.6888580046988717,-9.613801750942908,0.04857190120692975,0.09108364898162961,-1.0567982069265243,0.008219481460143644,0.010243071058056748,-0.12462847381545393,0,70,255.0,255.0,255.0
294,14.700000000000001,10.6673389025927,-2.6842912153552905,-9.666796857630924,0.04899726920689754,0.09158398587517028,-1.062994275582525,0.008795238538567642,0.009770404683569524,-0.12321427242457081,0,70,255.0,255.0,255.0
295,14.75,10.6698,-2.6797,-9.7201,0.049451425060786515,0.09206068944998655,-1.0691196341689813,0.009370995616991451,0.00929773830908176,-0.12180007103368418,0,70,255.0,255.0,255.0
296,14.8,10.672283839398535,-2.6750853891680917,-9.773708342511146,0.04989323890008639,0.09252282755680598,-1.075216280554882,0.008301557955003177,0.009187785963694893,-0.12206578440234032,0,70,255.0,255.0,255.0
297,14.850000000000001,10.674788432691956,-2.6704478088712738,-9.827621849483299,0.05028158085628684,0.09297946804635604,-1.0813262126092156,0.007232120293014902,0.009077833618308025,-0.12233149777099649,0,70,255.0,255.0,255.0
298,14.9,10.677311106286112,-2.6657875339904105,-9.881841185199875,0.05061645092938787,0.09343061091863678,-1.0874494303319815,0.006162682631026665,0.008967881272921162,-0.12259721113965263,0,70,255.0,255.0,255.0
299,14.950000000000001,10.679849186586845,-2.6611048394063648,-9.936367013944302,0.05089784911938951,0.09387625617364817,-1.0935859337231808,0.005093244969038391,0.008857928927534295,-0.12286292450830878,0,70,255.0,255.0,255.0
300,15.0,10.6824,-2.6564,-9.9912,0.051125775426291716,0.09431640381139018,-1.0997357227828124,0.0040238073070501534,0.008747976582147099,-0.12312863787696138,0,70,255.0,255.0,255.0
301,15.05,10.684961261027768,-2.6516728646404712,-10.046340043331451,0.05132351563088353,0.09477661453439863,-1.1058529383745688,0.0038858008766223897,0.009660452338190852,-0.12155998579329681,0,70,255.0,255.0,255.0
302,15.100000000000001,10.687532236557729,-2.646921578150097,-10.101783986627389,0.05151435551395396,0.09528244904520927,-1.1118917213621422,0.003747794446194626,0.010572928094234605,-0.11999133370963225,0,70,255.0,255.0,255.0
303,15.15,10.690112581573805,-2.642143859339487,-10.157527908257597,0.051698295075503,0.0958339073438221,-1.117852071745532,0.003609788015766867,0.011485403850278325,-0.11842268162596772,0,70,255.0,255.0,255.0
304,15.200000000000001,10.692701951059922,-2.6373374270192516,-10.21356788659187,0.051875334315530645,0.09643098943023712,-1.1237339895247391,0.0034717815853391037,0.01239787960632208,-0.11685402954230316,0,70,255.0,255.0,255.0
305,15.25,10.6953,-2.6325,-10.2699,0.052045473234036896,0.0970736953044543,-1.1295374746997624,0.0033337751549112893,0.013310355362365578,-0.11528537745863865,0,70,255.0,255.0,255.0
306,15.3,10.697907116490388,-2.6276303522700237,-10.326521084163048,0.05225269857637495,0.09769871430560256,-1.1353079659468432,0.004955238538610685,0.011690404683564725,-0.11553427242458802,0,70,255.0,255.0,255.0
307,15.350000000000001,10.700526621077124,-2.6227314785283387,-10.383431004007159,0.05254099708789797,0.09824273577281079,-1.1410909019422213,0.0065767019223100815,0.010070454004763873,-0.11578316739053741,0,70,255.0,255.0,255.0
308,15.4,10.703162567418666,-2.6178074286516417,-10.440630381769742,0.052910368768605956,0.09870575970607895,-1.1468862826858968,0.00819816530600942,0.008450503325963078,-0.11603206235648678,0,70,255.0,255.0,255.0
309,15.450000000000001,10.705819009173469,-2.6128622525166296,-10.498119839688218,0.05336081361849892,0.09908778610540708,-1.15269410817787,0.009819628689708815,0.006830552647162223,-0.11628095732243615,0,70,255.0,255.0,255.0
310,15.5,10.7085,-2.6079,-10.5559,0.053892331637576826,0.09938881497079516,-1.1585143784181404,0.011441092073408154,0.005210601968361317,-0.11652985228838553,0,70,255.0,255.0,255.0
311,15.55,10.711207873010677,-2.6029233262794333,-10.613970820016359,0.05440169006363692,0.09969252824319225,-1.1643071978380575,0.008933244968995334,0.006937928927521611,-0.11518292450829114,0,70,255.0,255.0,255.0
312,15.600000000000001,10.713938079133777,-2.5979293077365475,-10.67232959734399,0.05478565613447637,0.10008260786354732,-1.1700326708689697,0.006425397864582512,0.008665255886681905,-0.11383599672819673,0,70,255.0,255.0,255.0
313,15.65,10.716684348751539,-2.5929136260539463,-10.73097296466344,0.055044229850095175,0.10055905383186041,-1.175690797510877,0.003917550760169779,0.010392582845842137,-0.11248906894810239,0,70,255.0,255.0,255.0
314,15.700000000000001,10.7194404122462,-2.587871962914229,-10.78989755465526,0.05517741121049335,0.10112186614813154,-1.18128157776378,0.0014097036557569574,0.012119909805002431,-0.111142141168008,0,70,255.0,255.0,255.0
315,15.75,10.7222,-2.5828,-10.8491,0.05518520021567088,0.10177104481236067,-1.1868050116276778,-0.0010981434486557196,0.013847236764162552,-0.10979521338790654,0,70,255.0,255.0,255.0
316,15.8,10.724958991466904,-2.5776947426122425,-10.908577235771517,0.05519654116908722,0.10242717272162322,-1.1922792427009334,0.0015517815853094462,0.012397879606338914,-0.10917402954231824,0,70,255.0,255.0,255.0
317,15.850000000000001,10.727721862387773,-2.5725584905254695,-10.96832740661689,0.055340378374201825,0.10301083277299458,-1.1977224145819099,0.004201706619274612,0.010948522448515277,-0.10855284569672995,0,70,255.0,255.0,255.0
318,15.9,10.730495237575186,-2.567394867132575,-11.028348959576501,0.05561671183101468,0.10352202496647475,-1.2031345272706064,0.006851631653239683,0.009499165290691693,-0.10793166185114167,0,70,255.0,255.0,255.0
319,15.950000000000001,10.733285741841735,-2.562207495826453,-11.088640341690747,0.0560255415395258,0.10396074930206374,-1.208515580767024,0.00950155668720485,0.008049808132868055,-0.10731047800555336,0,70,255.0,255.0,255.0
320,16.0,10.7361,-2.557,-11.1492,0.056566867499735156,0.10432700577976153,-1.2138655750711618,0.012151481721169921,0.006600450975043914,-0.10668929415995798,0,70,255.0,255.0,255.0
321,16.05,10.738942561121709,-2.551775303271596,-11.210026636897577,0.05711614526000799,0.10466278087031668,-1.2191998313582206,0.009819628689742843,0.006830552647162017,-0.10668095732238889,0,70,255.0,255.0,255.0
322,16.1,10.741809671315144,-2.546533530161575,-11.27111997618846,0.057548830368709454,0.10501006104447774,-1.2245336708034007,0.007487775658315765,0.007060654319280119,-0.1066726204848198,0,70,255.0,255.0,255.0
323,16.150000000000002,10.744695500947719,-2.541274105415755,-11.332479997030553,0.05786492282583957,0.1053688463022447,-1.2298670934067026,0.005155922626888688,0.007290755991398222,-0.10666428364725071,0,70,255.0,255.0,255.0
324,16.2,10.747594220386867,-2.535996453779957,-11.394106678581762,0.05806442263139832,0.10573913664361756,-1.2352000991681256,0.0028240695954617756,0.0075208576635163085,-0.10665594680968163,0,70,255.0,255.0,255.0
325,16.25,10.7505,-2.5307,-11.456,0.05814732978538574,0.10612093206859632,-1.2405326880876706,0.0004922165640349752,0.007750959335633967,-0.10664760997211253,0,70,255.0,255.0,255.0
326,16.3,10.753408364046264,-2.5253840443013713,-11.51815941663818,0.05819487779088055,0.10652170379711202,-1.245833431866174,0.0014097036557571571,0.008279909804994254,-0.10538214116802001,0,70,255.0,255.0,255.0
327,16.35,10.756320252351665,-2.520047388828231,-11.580582288629282,0.05828830015096145,0.10694892304909577,-1.2510709022044728,0.002327190747479339,0.008808860274354539,-0.10411667236392748,0,70,255.0,255.0,255.0
328,16.400000000000002,10.759237958633937,-2.5146887112044043,-11.643265452301293,0.058427596865628484,0.10740258982454749,-1.2562450991025669,0.003244677839201521,0.009337810743714826,-0.10285120355983496,0,70,255.0,255.0,255.0
329,16.45,10.762163776610803,-2.5093066890537186,-11.7062057439822,0.0586127679348816,0.10788270412346723,-1.261356022560456,0.004162164930923638,0.009866761213075073,-0.10158573475574252,0,70,255.0,255.0,255.0
330,16.5,10.7651,-2.5039,-11.7694,0.058843813358720846,0.10838926594585499,-1.2664036725781411,0.005079652022645875,0.010395711682434472,-0.10032026595165533,0,70,255.0,255.0,255.0
331,16.55,10.768048782693242,-2.498467719522916,-11.832845296549703,0.05911234357646648,0.10889840394123744,-1.2714024411770728,0.005661556687179578,0.00996980813286305,-0.0996304780056036,0,70,255.0,255.0,255.0
332,16.6,10.771011719278201,-2.493010514525501,-11.896539669294418,0.05940996902743881,0.10938624675914131,-1.2763667203787017,0.0062434613517132805,0.009543904583291627,-0.09894069005955186,0,70,255.0,255.0,255.0
333,16.650000000000002,10.77399026451654,-2.487529449766627,-11.960481393764287,0.05973668971163782,0.10985279439956662,-1.281296510183028,0.006825366016246984,0.009118001033720206,-0.09825090211350013,0,70,255.0,255.0,255.0
334,16.7,10.776985873169918,-2.482025590005169,-12.024668745489432,0.06009250562906349,0.11029804686251331,-1.2861918105900514,0.007407270680780645,0.008692097484148814,-0.09756111416744845,0,70,255.0,255.0,255.0
335,16.75,10.78,-2.4765,-12.0891,0.060477416779715874,0.11072200414798146,-1.2910526215997726,0.007989175345314348,0.008266193934576838,-0.09687132622139671,0,70,255.0,255.0,255.0
336,16.8,10.783033305180771,-2.4709538776069624,-12.15377379716301,0.06084374790323591,0.11111668043793399,-1.2959008034255486,0.006664069595487014,0.007520857663524672,-0.09705594680963472,0,70,255.0,255.0,255.0
337,16.85,10.786083270535531,-2.4653889530697657,-12.218690234193048,0.06114382373926458,0.11147408991433394,-1.300758216280736,0.005338963845659679,0.006775521392472506,-0.09724056739787273,0,70,255.0,255.0,255.0
338,16.900000000000002,10.789146583299905,-2.459807089729088,-12.283849772641577,0.06137764428780189,0.11179423257718125,-1.305624860165336,0.004013858095832344,0.006030185121420341,-0.09742518798611073,0,70,255.0,255.0,255.0
339,16.95,10.79221993070952,-2.4542101509256073,-12.349252874060067,0.06154520954884782,0.11207710842647596,-1.310500735079347,0.0026887523460051048,0.005284848850368229,-0.09760980857434873,0,70,255.0,255.0,255.0
340,17.0,10.7953,-2.4486,-12.4149,0.06164651952240239,0.11232271746221807,-1.3153858410227706,0.001363646596177659,0.004539512579315619,-0.09779442916257963,0,70,255.0,255.0,255.0
341,17.05,10.798384396583671,-2.4429775700492344,-12.480790714798255,0.061736664810580884,0.11258687430702785,-1.3202263451207292,0.0022421649309622553,0.006026761213075104,-0.09582573475575626,0,70,255.0,255.0,255.0
342,17.1,10.80147439857967,-2.4373400731954353,-12.546920993933401,0.06187073601549862,0.1129253935835256,-1.3249684144983462,0.0031206832657468516,0.007514009846834589,-0.09385704034893289,0,70,255.0,255.0,255.0
343,17.150000000000002,10.804572202283833,-2.4316837913170195,-12.61328591566942,0.06204873313715558,0.11333827529171131,-1.3296120491556225,0.0039992016005314475,0.009001258480594073,-0.09188834594210951,0,70,255.0,255.0,255.0
344,17.2,10.807680003991997,-2.4260050062924035,-12.67988055827029,0.062270656175551754,0.11382551943158498,-1.334157249092557,0.004877719935315982,0.010488507114353451,-0.08991965153528628,0,70,255.0,255.0,255.0
345,17.25,10.8108,-2.4203,-12.7467,0.06253650513068718,0.11438712600314664,-1.3386040143091509,0.005756238270100633,0.011975755748112715,-0.08795095712846646,0,70,255.0,255.0,255.0
346,17.3,10.813933908484545,-2.4145662421961007,-12.813740143643969,0.06281759285445762,0.11495182233395307,-1.3430018160915485,0.005487270680716923,0.010612097484144026,-0.08796111416743954,0,70,255.0,255.0,255.0
347,17.35,10.817081535145787,-2.408805954148491,-12.881000190073356,0.06308523219875888,0.11544833575156106,-1.347400125725895,0.005218303091333213,0.009248439220175337,-0.08797127120641264,0,70,255.0,255.0,255.0
348,17.400000000000002,10.820242207564762,-2.4030225450028313,-12.94848016468076,0.06333942316359094,0.11587666625597061,-1.35179894321219,0.004949335501949503,0.007884780956206646,-0.08798142824538573,0,70,255.0,255.0,255.0
349,17.45,10.823415253322489,-2.3972194239047813,-13.016180092858772,0.06358016574895382,0.11623681384718171,-1.3561982685504335,0.004680367912565812,0.006521122692238054,-0.08799158528435883,0,70,255.0,255.0,255.0
350,17.5,10.8266,-2.3914,-13.0841,0.0638074599548475,0.11652877852519442,-1.360598101740626,0.004411400323181769,0.00515746442826992,-0.08800174232333724,0,70,255.0,255.0,255.0
351,17.55,10.829795969478155,-2.3855670611663626,-13.152239910625873,0.06403296377157791,0.11678983635716059,-1.3649983905130678,0.0046087523460345975,0.005284848850376768,-0.08800980857433452,0,70,255.0,255.0,255.0
352,17.6,10.833003460837174,-2.3797209102105987,-13.220599845773185,0.06426833518945096,0.11705726341023209,-1.3693990825980595,0.004806104368887426,0.005412233272483617,-0.08801787482533178,0,70,255.0,255.0,255.0
353,17.650000000000002,10.83622296745712,-2.373861228671654,-13.289179825607558,0.06451357420846666,0.11733105968440896,-1.373800177995601,0.005003456391740255,0.005539617694590465,-0.08802594107632906,0,70,255.0,255.0,255.0
354,17.7,10.839454982718042,-2.367987698088473,-13.357979870294617,0.06476868082862498,0.11761122517969112,-1.3782016767056922,0.005200808414593069,0.005667002116697305,-0.08803400732732633,0,70,255.0,255.0,255.0
355,17.75,10.8427,-2.3621,-13.427,0.06503365504992596,0.11789775989607869,-1.3826035787283337,0.005398160437445676,0.005794386538804264,-0.08804207357832539,0,70,255.0,255.0,255.0
356,17.8,10.845958213602836,-2.356197513138449,-13.496239413852539,0.065290552059245,0.11820883223740743,-1.386956621856175,0.00487771993531602,0.00664850711434516,-0.08607965153532927,0,70,255.0,255.0,255.0
357,17.85,10.849228621505507,-2.3502784050091123,-13.565694026833917,0.06552142704345758,0.11856261060751322,-1.3912115438818669,0.004357279433186364,0.007502627689886057,-0.08411722949233316,0,70,255.0,255.0,255.0
358,17.900000000000002,10.852509922606762,-2.3443405403105513,-13.635358932889025,0.06572628000256364,0.11895909500639605,-1.3953683448054086,0.0038368389310567074,0.008356748265426952,-0.08215480744933706,0,70,255.0,255.0,255.0
359,17.95,10.855800815805344,-2.3383817837413274,-13.705229225962752,0.06590511093656325,0.11939828543405588,-1.3994270246268004,0.003316398428927088,0.009210868840967789,-0.08019238540634109,0,70,255.0,255.0,255.0
360,18.0,10.8591,-2.3324,-13.7753,0.06605791984545636,0.1198801818904928,-1.4033875833460427,0.0027959579267977652,0.01006498941650913,-0.0782299633633432,0,70,255.0,255.0,255.0
361,18.05,10.862406376110508,-2.32639408627984,-13.845567233963974,0.06619682799143971,0.12034283469321139,-1.407303122062235,0.0027603679125360876,0.00844112269223398,-0.07839158528434816,0,70,255.0,255.0,255.0
362,18.1,10.865719653140799,-2.320367069752949,-13.91603044689116,0.06633395663670998,0.12072429415971622,-1.4112267418744777,0.00272477789827441,0.006817255967958833,-0.07855320720535311,0,70,255.0,255.0,255.0
363,18.150000000000002,10.869039742115833,-2.3143230100861385,-13.986690042836358,0.06646930578126715,0.12102456029000729,-1.4151584427827706,0.002689187884012732,0.005193389243683686,-0.07871482912635806,0,70,255.0,255.0,255.0
364,18.2,10.87236655406058,-2.308265966946218,-14.057546425854367,0.06660287542511124,0.12124363308408459,-1.4190982247871133,0.002653597869751057,0.0035695225194086527,-0.078876451047363,0,70,255.0,255.0,255.0
365,18.25,10.8757,-2.3022,-14.1286,0.06673466556824226,0.12138151254194815,-1.4230460878875066,0.0026180078554891573,0.0019456557951338382,-0.0790380729683644,0,70,255.0,255.0,255.0
366,18.3,10.87904028195513,-2.2961277417421915,-14.19985085029157,0.06688213597499527,0.12152382898974405,-1.4269828898948989,0.0032808084146314183,0.0037470021167018953,-0.0784340073273153,0,70,255.0,255.0,255.0
367,18.35,10.8823887659313,-2.2900461159790906,-14.271297785601456,0.06706274640970541,0.12175621275361835,-1.4308894886202381,0.003943608973773679,0.005548348438269952,-0.07782994168626621,0,70,255.0,255.0,255.0
368,18.400000000000002,10.8857471089299,-2.283950619344895,-14.342939295765563,0.06727649687237265,0.12207866383357105,-1.4347658840635253,0.004606409532915939,0.00734969475983801,-0.0772258760452171,0,70,255.0,255.0,255.0
369,18.45,10.889116967952337,-2.277836748473799,-14.414773870619774,0.06752338736299698,0.12249118222960212,-1.4386120762247598,0.0052692100920581535,0.009151041081405938,-0.07662181040416806,0,70,255.0,255.0,255.0
370,18.5,10.8925,-2.2717,-14.4868,0.06780341788157844,0.12299376794171163,-1.442428065103942,0.0059320106512003035,0.010952387402974217,-0.0760177447631154,0,70,255.0,255.0,255.0
371,18.55,10.895897296068968,-2.265537346751395,-14.559015764869754,0.06808262810858066,0.1234978493478104,-1.446189318358178,0.005236398428888757,0.009210868840976503,-0.07443238540632,0,70,255.0,255.0,255.0
372,18.6,10.899307683134007,-2.259351666330687,-14.631417610703023,0.06832705772446732,0.12391485482580929,-1.4498713036445743,0.00454078620657721,0.007469350278978788,-0.0728470260495246,0,70,255.0,255.0,255.0
373,18.650000000000002,10.902729422164562,-2.253147312534282,-14.704001574101415,0.0685367067292384,0.12424478437570828,-1.4534740209631307,0.0038451739842656632,0.005727831716981073,-0.0712616666927292,0,70,255.0,255.0,255.0
374,18.7,10.906160774130079,-2.2469286391585848,-14.776763691666536,0.06871157512289389,0.1244876379975074,-1.4569974703138469,0.003149561761954166,0.003986313154983481,-0.06967630733593391,0,70,255.0,255.0,255.0
375,18.75,10.9096,-2.2407,-14.8497,0.0688516629054338,0.12464341569120664,-1.4604416516967236,0.002453949539642619,0.002244794592986099,-0.06809094797912962,0,70,255.0,255.0,255.0
376,18.8,10.913045733769001,-2.234464471252229,-14.922807690229423,0.06897935159066951,0.12478877361901632,-1.4638758366723865,0.0026535978697850987,0.0035695225194003442,-0.0692764510473822,0,70,255.0,255.0,255.0
377,18.85,10.916498101532675,-2.2282200186981593,-14.996088571586466,0.06911702269241232,0.12500036794314667,-1.467369296801462,0.0028532461999275782,0.004894250445814589,-0.07046195411563477,0,70,255.0,255.0,255.0
378,18.900000000000002,10.919957602411849,-2.221963330517976,-15.069545607828795,0.06926467621066226,0.12527819866359777,-1.47092203208395,0.0030528945300700577,0.006218978372228835,-0.07164745718388735,0,70,255.0,255.0,255.0
379,18.95,10.92342473552735,-2.215691094891861,-15.143181762714079,0.06942231214541932,0.12562226578036953,-1.4745340425198505,0.0032525428602125234,0.007543706298642986,-0.07283296025213984,0,70,255.0,255.0,255.0
380,19.0,10.9269,-2.2094,-15.217,0.06958993049668352,0.12603256929346204,-1.4782053281091638,0.00345219119035467,0.008868434225056676,-0.07401846332038886,0,70,255.0,255.0,255.0
381,19.05,10.93038376885503,-2.2030879682396884,-15.291001474212562,0.06975996552874396,0.1264350561761235,-1.4818273349522773,0.0033492100920623252,0.007231041081401756,-0.07086181040414626,0,70,255.0,255.0,255.0
382,19.1,10.933875910735292,-2.196757858876674,-15.365180102951134,0.06992485150588976,0.1267556734016022,-1.4852915091495784,0.003246228993769981,0.005593647937746835,-0.06770515748790365,0,70,255.0,255.0,255.0
383,19.150000000000002,10.937376168188038,-2.190413765393815,-15.439527994583424,0.07008458842812096,0.12699442096989821,-1.4885978507010678,0.0031432478954776365,0.003956254794091915,-0.06454850457166103,0,70,255.0,255.0,255.0
384,19.200000000000003,10.940884283760521,-2.1840597812739704,-15.514037257477145,0.07023917629543752,0.12715129888101143,-1.4917463596067448,0.0030402667971852924,0.0023188616504369944,-0.061391851655418425,0,70,255.0,255.0,255.0
385,19.25,10.9444,-2.1777,-15.5887,0.07038861510783946,0.12722630713494187,-1.4947370358666094,0.002937285698892622,0.00068146850678108,-0.05823519873917249,0,70,255.0,255.0,255.0
386,19.3,10.947923190810874,-2.171337255789016,-15.663510412920337,0.07054078629435978,0.12729500167648633,-1.4976948235184875,0.003149561761920053,0.002066313154996477,-0.06007630733595096,0,70,255.0,255.0,255.0
387,19.35,10.951454255526155,-2.1649693457951447,-15.738471016609013,0.07070357128403147,0.1274329384504415,-1.5007446666002047,0.003361837824947484,0.0034511578032118745,-0.061917415932729425,0,70,255.0,255.0,255.0
388,19.400000000000002,10.954993724835997,-2.158592807906765,-15.813586413837523,0.07087697007685453,0.1276401174568075,-1.5038865651117606,0.003574113887974915,0.004836002451427271,-0.06375852452950789,0,70,255.0,255.0,255.0
389,19.450000000000003,10.958542129430562,-2.1522041800122564,-15.888861207377357,0.07106098267282897,0.12791653869558425,-1.5071205190531556,0.0037863899510023457,0.006220847099642669,-0.06559963312628636,0,70,255.0,255.0,255.0
390,19.5,10.9621,-2.1458,-15.9643,0.07125560907195477,0.12826220216677175,-1.5104465284243889,0.0039986660140300945,0.007605691747857968,-0.06744074172305936,0,70,255.0,255.0,255.0
391,19.55,10.965667467901467,-2.139377408604247,-16.039905674106095,0.07143688929381169,0.12864093711793406,-1.51376137097377,0.0032525428602466883,0.0075437062986344105,-0.06515296025219006,0,70,255.0,255.0,255.0
392,19.6,10.969243067160086,-2.132935957942747,-16.11567423061282,0.07158086335797945,0.12901657279663523,-1.516961824449608,0.002506419706463282,0.007481720849410854,-0.06286517878132074,0,70,255.0,255.0,255.0
393,19.650000000000002,10.97282493246797,-2.126475802979124,-16.191599950066497,0.07168753126445804,0.12938910920287516,-1.5200478888519025,0.0017602965526798756,0.007419735400187297,-0.060577397310451433,0,70,255.0,255.0,255.0
394,19.700000000000003,10.976411198517237,-2.119997098677001,-16.267677113013452,0.07175689301324743,0.12975854633665396,-1.5230195641806532,0.0010141733988964694,0.00735774995096374,-0.05828961583958212,0,70,255.0,255.0,255.0
395,19.75,10.98,-2.1135,-16.3439,0.07178894860434767,0.13012488419797155,-1.5258768504358604,0.00026805024511311615,0.0072957645017408534,-0.056001834368709424,0,70,255.0,255.0,255.0
396,19.8,10.983590137583253,-2.1069851097939956,-16.42026369065529,0.07182365653040439,0.13046124985177598,-1.5286676925864613,0.0011202667971554124,0.006158861650436204,-0.05563185165532793,0,70,255.0,255.0,255.0
397,19.85,10.987183075833501,-2.100454822433865,-16.49676646093972,0.07190097528406322,0.13074077036301518,-1.5314400356013933,0.0019724833491977086,0.005021958799131554,-0.055261868941946436,0,70,255.0,255.0,255.0
398,19.900000000000002,10.99078094529212,-2.0939119801767365,-16.573407385896505,0.07202090486532416,0.13096344573168914,-1.534193879480656,0.002824699901240005,0.0038850559478269056,-0.05489188622856494,0,70,255.0,255.0,255.0
399,19.950000000000003,10.994385876500495,-2.087359425279739,-16.650185540568863,0.07218344527418723,0.1311292759577979,-1.53692922422425,0.0036769164532823016,0.002748153096522256,-0.05452190351518345,0,70,255.0,255.0,255.0
400,20.0,10.998,-2.0808,-16.7271,0.07238859651065238,0.1312382610413414,-1.5396460698321743,0.004529133005324315,0.001611250245217466,-0.05415192080180553,0,70,255.0,255.0,255.0
401,20.05,11.001624781765516,-2.0742357522197703,-16.80414996327275,0.07259648458456056,0.13133806347496313,-1.5423518586803775,0.003786389951002434,0.0023808470996511955,-0.05407963312631203,0,70,255.0,255.0,255.0
402,20.1,11.005259029505911,-2.0676655523217917,-16.88133512562831,0.07276723550575262,0.13147634575130654,-1.5450540331448055,0.0030436468966805533,0.0031504439540849245,-0.054007345450818534,0,70,255.0,255.0,255.0
403,20.150000000000002,11.008900886363547,-2.0610874763139275,-16.958655306347502,0.07290084927422862,0.13165310787037163,-1.5477525932254592,0.002300903842358672,0.0039200408085186544,-0.053935057775325035,0,70,255.0,255.0,255.0
404,20.200000000000003,11.012548495480788,-2.054499600204042,-17.03611032471113,0.0729973258899885,0.1318683498321584,-1.5504475389223382,0.001558160788036791,0.004689637662952383,-0.05386277009983153,0,70,255.0,255.0,255.0
405,20.25,11.0162,-2.0479,-17.1137,0.0730566653530323,0.13212207163666684,-1.5531388702354425,0.0008154177337152957,0.005459234517386502,-0.053790482424339814,0,70,255.0,255.0,255.0
406,20.3,11.019853935354678,-2.0412870813269226,-17.19142365625373,0.07310240513134846,0.1323944962483753,-1.55579687269204,0.0010141733989307317,0.0054377499509517865,-0.05252961583955907,0,70,255.0,255.0,255.0
407,20.35,11.023510406142856,-2.034660568278967,-17.269278636547053,0.07315808269292537,0.132665846631762,-1.5583918318193986,0.0012129290641461677,0.005416265384517071,-0.05126874925477832,0,70,255.0,255.0,255.0
408,20.400000000000002,11.027169909253692,-2.028020514567551,-17.347261788713514,0.07322369803776307,0.132936122786827,-1.560923747617518,0.0014116847293616037,0.005394780818082355,-0.050007882669997575,0,70,255.0,255.0,255.0
409,20.450000000000003,11.030832941576351,-2.0213669739040903,-17.425369960586654,0.07329925116586154,0.13320532471357027,-1.5633926200863983,0.0016104403945770398,0.00537329625164764,-0.048747016085216824,0,70,255.0,255.0,255.0
410,20.5,11.0345,-2.0147,-17.5036,0.07338474207722076,0.1334734524119918,-1.5657984492260395,0.0018091960597921286,0.005351811685212704,-0.04748614950043617,0,70,255.0,255.0,255.0
411,20.55,11.038171476815766,-2.008019922472539,-17.58194901171235,0.07347389489004687,0.13372395153153518,-1.5681566505514304,0.0017569164532523988,0.0046681530965218335,-0.04684190351520242,0,70,255.0,255.0,255.0
412,20.6,11.041847345922665,-2.001328174562337,-17.66041512818349,0.073560433722546,0.13394026772164397,-1.57048263957756,0.001704636846712669,0.003984494507830963,-0.046197657529968676,0,70,255.0,255.0,255.0
413,20.650000000000002,11.045527476621682,-1.994626465415865,-17.738996738798452,0.07364435857471814,0.13412240098231829,-1.5727764163044273,0.0016523572401729392,0.0033008359191400924,-0.045553411544734926,0,70,255.0,255.0,255.0
414,20.700000000000003,11.049211738213799,-1.9879165041795952,-17.817692232942278,0.0737256694465633,0.134270351313558,-1.5750379807320334,0.0016000776336332094,0.002617177330449222,-0.04490916555950118,0,70,255.0,255.0,255.0
415,20.75,11.0529,-1.9812,-17.8965,0.07380436633808146,0.13438411871536318,-1.5772673328603777,0.0015477980270932612,0.0019335187417579558,-0.044264919574265704,0,70,255.0,255.0,255.0
416,20.8,11.056592157382255,-1.9744780287829207,-17.975418696896874,0.07388201530846057,0.13450169762548117,-1.5794805251022326,0.0015581607880711169,0.002769637662961134,-0.04426277009992212,0,70,255.0,255.0,255.0
417,20.85,11.060288210166478,-1.9677491334716841,-18.054448050718996,0.07396018241688856,0.13466108248165928,-1.58169360987037,0.0015685235490489728,0.003605756584164312,-0.04426062062557854,0,70,255.0,255.0,255.0
418,20.900000000000002,11.063988184259578,-1.961011223768987,-18.133588056092684,0.07403886766336547,0.1348622732838976,-1.5839065871647904,0.0015788863100268285,0.00444187550536749,-0.044258471151234956,0,70,255.0,255.0,255.0
419,20.950000000000003,11.067692105568451,-1.9542622093775266,-18.21283870764425,0.07411807104789127,0.13510527003219605,-1.5861194569854935,0.0015892490710046842,0.005277994426570668,-0.04425632167689138,0,70,255.0,255.0,255.0
420,21.0,11.0714,-1.9475,-18.2922,0.07419779257046595,0.13539007272655468,-1.5883322193324794,0.0015996118319828723,0.006114113347774008,-0.04425417220254424,0,70,255.0,255.0,255.0
421,21.05,11.075111893655214,-1.9407231623957777,-18.371671400700166,0.07427804387612909,0.13567725796654023,-1.5905132490396705,0.0016104403945428338,0.00537329625164772,-0.04298701608509282,0,70,255.0,255.0,255.0
422,21.1,11.078827813411417,-1.933932891550926,-18.451250268940537,0.07435883660992024,0.13592740235171946,-1.5926309209409888,0.0016212689571027952,0.004632479155521431,-0.04171985996764139,0,70,255.0,255.0,255.0
423,21.150000000000002,11.082547786340008,-1.9271310395081853,-18.530933436830832,0.07444017077183937,0.1361405058820924,-1.5946852350364347,0.0016320975196627567,0.0038916620593951417,-0.04045270385018997,0,70,255.0,255.0,255.0
424,21.200000000000003,11.086271839512403,-1.9203194583102965,-18.61071773648075,0.07452204636188652,0.13631656855765897,-1.5966761913260077,0.0016429260822227183,0.003150844963268853,-0.03918554773273854,0,70,255.0,255.0,255.0
425,21.25,11.09,-1.9135,-18.6906,0.07460446338006163,0.13645559037841923,-1.5986037898097083,0.001653754644782568,0.0024100278671415065,-0.03791839161528365,0,70,255.0,255.0,255.0
426,21.3,11.093732267996886,-1.9066741216339684,-18.77057730030248,0.07468580918702203,0.13658127050835886,-1.6004824787390783,0.0016000776336330784,0.0026171773304444674,-0.03722916555951875,0,70,255.0,255.0,255.0
427,21.35,11.09746853618786,-1.899841700324611,-18.850647673518864,0.07476447114342494,0.13671730811146368,-1.60232670636566,0.0015464006224835886,0.0028243267937474283,-0.03653993950375385,0,70,255.0,255.0,255.0
428,21.400000000000002,11.101208670380387,-1.893002218198269,-18.930809396584003,0.07484044924927039,0.1368637031877336,-1.6041364726894538,0.001492723611334099,0.0030314762570503896,-0.03585071344798895,0,70,255.0,255.0,255.0
429,21.450000000000003,11.104952536381944,-1.886155157381285,-19.01106074643276,0.07491374350455834,0.13702045573716873,-1.605911777710459,0.0014390466001846095,0.0032386257203533505,-0.03516148739222405,0,70,255.0,255.0,255.0
430,21.5,11.1087,-1.8793,-19.0914,0.07498435390928883,0.13718756575976895,-1.6076526214286762,0.0013853695890347906,0.0034457751836554085,-0.03447226133646275,0,70,255.0,255.0,255.0
431,21.55,11.112451034357235,-1.8724363510683475,-19.171825798089912,0.07505871937578983,0.1373576600000246,-1.6093808360040107,0.0015892490710048418,0.003357994426570919,-0.03465632167691446,0,70,255.0,255.0,255.0
432,21.6,11.116206041837147,-1.865564307150628,-19.25233823698402,0.07514327881638931,0.13752336520242606,-1.6111182535963675,0.0017931285529748933,0.00327021366948643,-0.034840382017366174,0,70,255.0,255.0,255.0
433,21.650000000000002,11.119965532138442,-1.8586840876987354,-19.33293777683317,0.07523803223108731,0.13768468136697326,-1.6128648742057472,0.0019970080349449447,0.0031824329124019407,-0.03502444235781788,0,70,255.0,255.0,255.0
434,21.700000000000003,11.123730014959824,-1.8517959121645617,-19.413624877788216,0.0753429796198838,0.13784160849366625,-1.6146206978321496,0.002200887516914996,0.0030946521553174514,-0.0352085026982696,0,70,255.0,255.0,255.0
435,21.75,11.1275,-1.8449,-19.4944,0.07545812098277882,0.13799414658250497,-1.6163857244755744,0.002404766998885588,0.0030068713982327466,-0.035392563038730174,0,70,255.0,255.0,255.0
436,21.8,11.131275594574173,-1.8379964740926416,-19.575262707337863,0.07555931330980653,0.1381480894915425,-1.6181061772448615,0.0016429260822228178,0.003150844963268542,-0.033425547732752366,0,70,255.0,255.0,255.0
437,21.85,11.13505529646355,-1.8310850710728748,-19.656208978545067,0.07562241359100111,0.13830923107883183,-1.6197282792488497,0.0008810851655600476,0.003294818528304337,-0.03145853242677456,0,70,255.0,255.0,255.0
438,21.900000000000002,11.138837201065842,-1.8241654310067872,-19.737233896083332,0.07564742182636254,0.13847757134437297,-1.6212520304875389,0.00011924424889727748,0.003438792093340132,-0.029491517120796746,0,70,255.0,255.0,255.0
439,21.950000000000003,11.142619403778754,-1.8172371939604661,-19.8183325424144,0.07563433801589083,0.13865311028816588,-1.6226774309609293,-0.0006425966677654927,0.0035827656583759275,-0.027524501814818934,0,70,255.0,255.0,255.0
440,22.0,11.1464,-1.8103,-19.8995,0.075583162159586,0.13883584791021056,-1.624004480669021,-0.0014044375844278756,0.0037267392234123786,-0.02555748650883949,0,70,255.0,255.0,255.0
441,22.05,11.150177787346076,-1.8033537525610865,-19.980732172558625,0.07553602738498087,0.1390099820338047,-1.625282455016548,-0.00048095339977703786,0.003238625720353154,-0.02556148739224433,0,70,255.0,255.0,255.0
442,22.1,11.153954372308652,-1.796399408557872,-20.062028248835727,0.07553506681960831,0.13915971048224587,-1.6265606294082455,0.00044253078487379986,0.0027505122172939295,-0.025565488275649174,0,70,255.0,255.0,255.0
443,22.150000000000002,11.157732063598191,-1.7894381882741142,-20.143388238833516,0.07558028046346826,0.1392850332555341,-1.6278390038441133,0.0013660149695246377,0.002262398714234705,-0.025569489159054014,0,70,255.0,255.0,255.0
444,22.200000000000003,11.161513169925152,-1.782471311993571,-20.224812152554208,0.07567166831656076,0.13938595035366935,-1.629117578324151,0.0022894991541754753,0.0017742852111754803,-0.025573490042458857,0,70,255.0,255.0,255.0
445,22.25,11.1653,-1.7755,-20.3063,0.0758092303788858,0.13946246177665164,-1.6303963528483587,0.0032129833388262474,0.0012861717081162904,-0.025577490925851265,0,70,255.0,255.0,255.0
446,22.3,11.169094056041525,-1.7685253156630127,-20.387851802427647,0.0759445771502785,0.1395239823732376,-1.6316760026889607,0.002200887516881086,0.0011746521553215746,-0.025608502698224813,0,70,255.0,255.0,255.0
447,22.35,11.172893614301843,-1.7615476946956368,-20.469467626112042,0.07602931913057391,0.1395799269921838,-1.6329572031181814,0.0011887916949359246,0.0010631326025268585,-0.025639514470598358,0,70,255.0,255.0,255.0
448,22.400000000000002,11.176696144541399,-1.7545674158967548,-20.551147548582613,0.07606345631977209,0.13963029563349028,-1.6342399541360206,0.00017669587299076316,0.0009516130497321426,-0.025670526242971906,0,70,255.0,255.0,255.0
449,22.450000000000003,11.180499116520636,-1.7475847580652482,-20.632891647368787,0.076046988717873,0.139675088297157,-1.6355242557424785,-0.0008353999489543983,0.0008400934969374266,-0.02570153801534545,0,70,255.0,255.0,255.0
450,22.5,11.1843,-1.7406,-20.7147,0.07597991632487665,0.13971430498318402,-1.636810107937555,-0.0018474957708994877,0.0007285739441427186,-0.025732549787715442,0,70,255.0,255.0,255.0
451,22.55,11.188097188487822,-1.7336129847868629,-20.796571817730793,0.07591766401391004,0.13977408847324688,-1.6380455342276186,-0.0006425966677652323,0.0016627656583722804,-0.023684501814829388,0,70,255.0,255.0,255.0
452,22.6,11.191892770483978,-1.7266218126595798,-20.87850284671612,0.07591565665810011,0.13988058154902125,-1.639178558119038,0.0005623024353690232,0.002596957372601842,-0.021636453841943334,0,70,255.0,255.0,255.0
453,22.650000000000002,11.19568975823622,-1.7196241481388652,-20.96048796683605,0.07597389425744693,0.14003378421050708,-1.640209179611813,0.0017672015385032784,0.0035311490868314044,-0.01958840586905728,0,70,255.0,255.0,255.0
454,22.700000000000003,11.19949116399231,-1.7126176557454338,-21.042522057970658,0.07609237681195045,0.1402336964577044,-1.6411373987059437,0.002972100641637534,0.004465340801060966,-0.017540357896171227,0,70,255.0,255.0,255.0
455,22.75,11.2033,-1.7056,-21.1246,0.07627110432161069,0.14048031829061317,-1.6419632154014299,0.0041769997447722584,0.005399532515290906,-0.015492309923272884,0,70,255.0,255.0,255.0
456,22.8,11.207117990007182,-1.698569945189535,-21.206717726649195,0.0764327667940844,0.14070766373377472,-1.6427498604005717,0.002289499154175551,0.0036942852111711867,-0.01597349004240379,0,70,255.0,255.0,255.0
457,22.85,11.21094170376225,-1.6915306546660425,-21.28887538702349,0.07650005423702824,0.14084974681173026,-1.6435605644056703,0.0004019985635788444,0.0019890379070514677,-0.016454670161534693,0,70,255.0,255.0,255.0
458,22.900000000000002,11.214766422513726,-1.6844863915477821,-21.371074184073198,0.07647296665044227,0.14090656752447986,-1.6443953274167253,-0.0014855020270178624,0.0002837906029317487,-0.016935850280665597,0,70,255.0,255.0,255.0
459,22.950000000000003,11.218587427510135,-1.6774414189530142,-21.4533153207486,0.07635150403432646,0.14087812587202347,-1.6452541494337367,-0.0033730026176145697,-0.0014214567011879703,-0.0174170303997965,0,70,255.0,255.0,255.0
460,23.0,11.2224,-1.6704,-21.5356,0.07613566638868084,0.14076442185436108,-1.6461370304567047,-0.005260503208210809,-0.003126704005308012,-0.017898210518911384,0,70,255.0,255.0,255.0
461,23.05,11.226201251483449,-1.663364834454996,-21.61792847567244,0.07593526880975182,0.14065925659165204,-1.6469870241700633,-0.002755399948949875,-0.0010799065030540666,-0.016101538015431745,0,70,255.0,255.0,255.0
462,23.1,11.229995614467025,-1.6563323686762494,-21.700297205189923,0.07586012639378585,0.14065643120405566,-1.6477471842582478,-0.0002502966896889402,0.0009668909991998789,-0.014304865511952107,0,70,255.0,255.0,255.0
463,23.150000000000002,11.233789351708877,-1.6492974856700051,-21.78270169687118,0.07591023914078292,0.14075594569157202,-1.6484175107212584,0.0022548065695719944,0.0030136885014538243,-0.01250819300847247,0,70,255.0,255.0,255.0
464,23.200000000000003,11.237588725967152,-1.6422550684425068,-21.865137459034962,0.07608560705074306,0.14095780005420105,-1.6489980035590952,0.004759909828832929,0.00506048600370777,-0.010711520504992831,0,70,255.0,255.0,255.0
465,23.25,11.2414,-1.6352,-21.9476,0.07638623012366619,0.14126199429194275,-1.6494886627717578,0.007265013088093797,0.007107283505961348,-0.008914848001506215,0,70,255.0,255.0,255.0
466,23.3,11.245227404059023,-1.6281291169904808,-22.030085970661048,0.07669015796690937,0.14155130989961823,-1.6499580429191982,0.00489210064163329,0.004465340801056923,-0.00986035789611536,0,70,255.0,255.0,255.0
467,23.35,11.249067038369654,-1.6210470706289586,-22.112596592216835,0.07687544018782952,0.14170852837204845,-1.6504746985613694,0.0025191881951727828,0.0018233980961524978,-0.010805867790724503,0,70,255.0,255.0,255.0
468,23.400000000000002,11.252912970650769,-1.6139604657721964,-22.1951342284421,0.07694207678642666,0.14173364970923347,-1.6510386296982706,0.00014627574871227574,-0.0008185446087519265,-0.011751377685333648,0,70,255.0,255.0,255.0
469,23.450000000000003,11.256759268621257,-1.606875907276956,-22.27770124311158,0.07689006776270076,0.14162667391117326,-1.6516498363299028,-0.0022266366977482313,-0.0034604873136563526,-0.012696887579942792,0,70,255.0,255.0,255.0
470,23.5,11.2606,-1.5998,-22.3603,0.07671941311665184,0.14138760097786787,-1.6523083184562652,-0.00459954914420857,-0.006102430018561256,-0.013642397474564305,0,70,255.0,255.0,255.0
471,23.55,11.264430732280456,-1.592737097583081,-22.442931641683373,0.07652009932260627,0.14115150380987412,-1.6529408041531244,-0.003373002617614267,-0.0033414567011881553,-0.011657030399807738,0,70,255.0,255.0,255.0
472,23.6,11.268253032054368,-1.5856825488079147,-22.52559242594275,0.07638211285489041,0.14105345530774904,-1.653474021496246,-0.0021464560910199643,-0.000580483383815055,-0.00967166332505117,0,70,255.0,255.0,255.0
473,23.650000000000002,11.27206996568805,-1.5786294512412082,-22.608277389360442,0.07630545371350426,0.14109345547149263,-1.6539079704856297,-0.0009199095644256616,0.002180489933558046,-0.007686296250294604,0,70,255.0,255.0,255.0
474,23.700000000000003,11.275884599547823,-1.5715709024496674,-22.690981568518755,0.07629012189844785,0.14127150430110486,-1.6542426511212756,0.0003066369621686415,0.004941463250931146,-0.005700929175538038,0,70,255.0,255.0,255.0
475,23.75,11.2797,-1.5645,-22.7737,0.07633611740972113,0.14158760179658572,-1.6544780634031837,0.001533183488762635,0.007702436568302717,-0.00371556210078694,0,70,255.0,255.0,255.0
476,23.8,11.283518466819155,-1.5574120926771953,-22.856428262605455,0.07639744474266123,0.14190667486088607,-1.6546467404683285,0.0009199098288416164,0.005060486003711258,-0.003031520505006559,0,70,255.0,255.0,255.0
477,23.85,11.287339233412883,-1.5503115341393818,-22.939164104012175,0.07642810839260529,0.14209365039695687,-1.6547812154536845,0.0003066361689205979,0.002418535439119798,-0.002347478909226178,0,70,255.0,255.0,255.0
478,23.900000000000002,11.291160766597033,-1.5432049292629701,-23.021905814116163,0.0764281083595533,0.14214852840479805,-1.654881488359251,-0.00030663749100042046,-0.00022341512547166195,-0.0016634373134457965,0,70,255.0,255.0,255.0
479,23.950000000000003,11.294981533187455,-1.5360988829243722,-23.10465168281344,0.07639744464350526,0.1420713088844097,-1.654947559185029,-0.0009199111509214392,-0.002865365690063121,-0.0009793957176654155,0,70,255.0,255.0,255.0
480,24.0,11.2988,-1.529,-23.1874,0.07633611724446114,0.14186199183579176,-1.6549794279310177,-0.001533184810842747,-0.005507316254654393,-0.0002953541218779776,0,70,255.0,255.0,255.0
481,24.05,11.302615400442924,-1.5219129317081364,-23.27014970789481,0.07629012170674626,0.1416377967465838,-1.6550162339735606,-0.0003066366977525761,-0.003460487313664566,-0.0011768875798353075,0,70,255.0,255.0,255.0
482,24.1,11.306430034294102,-1.514834514634557,-23.35290235800857,0.07630545357468588,0.14151594310442528,-1.6550971166890012,0.0009199114153375949,-0.001413658372674739,-0.0020584210377926375,0,70,255.0,255.0,255.0
483,24.150000000000002,11.310246967923819,-1.5077596317069095,-23.43566015417493,0.07638211284828002,0.14149643090931632,-1.65522207607734,0.0021464595284277654,0.0006331705683150874,-0.002939954495749968,0,70,255.0,255.0,255.0
484,24.200000000000003,11.314069267702358,-1.5006831658528412,-23.518425300227527,0.07652009952752867,0.14157926016125683,-1.6553911121385763,0.0033730076415179368,0.002679999509304915,-0.0038214879537072977,0,70,255.0,255.0,255.0
485,24.25,11.3179,-1.4936,-23.6012,0.0767194136124318,0.14176443086024682,-1.6556042248727105,0.004599555754607576,0.004726828450294818,-0.004703021411664565,0,70,255.0,255.0,255.0
486,24.3,11.32174073140915,-1.486506580490258,-23.683984905815304,0.0768900684303511,0.14195813815277755,-1.6557683236373943,0.0022266369621638635,0.0030214632509348617,-0.0018609291756881015,0,70,255.0,255.0,255.0
487,24.35,11.325587029410707,-1.4794056073223882,-23.766774463953546,0.07694207730864819,0.1420665771853403,-1.6557903177902793,-0.00014628183027984906,0.0013160980515749057,0.0009811630602883622,0,70,255.0,255.0,255.0
488,24.400000000000002,11.329432961707688,-1.4723013439093897,-23.849561569184132,0.07687544024732311,0.14208974795793505,-1.6556702073313654,-0.002519200622723562,-0.00038926714778505025,0.0038232552962648263,0,70,255.0,255.0,255.0
489,24.450000000000003,11.333272596003113,-1.4651980536642606,-23.932339116276484,0.07669015724637583,0.14202765047056182,-1.6554079922606528,-0.004892119415167274,-0.0020946323471450062,0.0066653475322412895,0,70,255.0,255.0,255.0
490,24.5,11.3371,-1.4581,-24.0151,0.0763862283058064,0.1418802847232206,-1.6550036725781414,-0.007265038207611263,-0.0037999975465046187,0.009507439768210446,0,70,255.0,255.0,255.0
491,24.55,11.34091127392047,-1.451010346330832,-24.097838668843984,0.07608560457184328,0.1417136506423064,-1.6545504714768766,-0.004759911150912708,-0.0028653656900630466,0.008620604282380371,0,70,255.0,255.0,255.0
492,24.6,11.344710648063064,-1.4439278560758886,-24.180555786177262,0.07591023719071512,0.14159374815421427,-1.6541416121499033,-0.002254784094214153,-0.0019307338336214742,0.0077337687965502964,0,70,255.0,255.0,255.0
493,24.650000000000002,11.348504385245423,-1.43685019265553,-24.263253569088544,0.07586012616242188,0.14152057725894424,-1.6537770945972217,0.0002503429624844027,-0.0009961019771799018,0.0068469333107202225,0,70,255.0,255.0,255.0
494,24.700000000000003,11.352298748285188,-1.4297750194901138,-24.345934234666558,0.07593527148696357,0.1414941379564963,-1.6534569188188313,0.0027554700191829568,-6.147012073832959e-05,0.005960097824890148,0,70,255.0,255.0,255.0
495,24.75,11.3561,-1.4227,-24.4286,0.07613567316434017,0.1415144302468704,-1.6531810848147326,0.005260597075881668,0.0008731617357031762,0.005073262339056583,0,70,255.0,255.0,255.0
496,24.8,11.359912572908964,-1.4156232341864146,-24.511252418808773,0.07635151328227516,0.14155525927799562,-1.6529097904550978,0.003373007641517818,0.0007599995093051854,0.005778512046338601,0,70,255.0,255.0,255.0
497,24.85,11.363733578337031,-1.4085445683740556,-24.59389039133742,0.07647297392849196,0.14159043019780093,-1.6526032336100986,0.0014854182071539677,0.0006468372829071946,0.006483761753620618,0,70,255.0,255.0,255.0
498,24.900000000000002,11.367558297310618,-1.4014642854684896,-24.676512154461694,0.07650005510299056,0.14161994300628633,-1.6522614142797356,-0.00040217122720988263,0.0005336750565092037,0.007189011460902636,0,70,255.0,255.0,255.0
499,24.950000000000003,11.371382010856136,-1.394382668375282,-24.759115945057307,0.07643275680577095,0.14164379770345184,-1.6518843324640085,-0.0022897606615737325,0.0004205128301112129,0.007894261168184653,0,70,255.0,255.0,255.0
500,25.0,11.3752,-1.3873,-24.8417,0.0762710790368332,0.1416619942892975,-1.6514719881629174,-0.004177350095937227,0.00030735060371345213,0.008599510875464844,0,70,255.0,255.0,255.0
501,25.05,11.379008834443672,-1.3802167169235098,-24.924262055920945,0.07609234229905547,0.1416653122457117,-1.6509943667027267,-0.002972119415171753,-0.00017463234714494975,0.010505347532162217,0,70,255.0,255.0,255.0
502,25.1,11.382810238588805,-1.3731338704278877,-25.00679784847306,0.07597386709531602,0.141644531054583,-1.6504214534097013,-0.0017668887344062792,-0.0006566152980033516,0.01241118418885959,0,70,255.0,255.0,255.0
503,25.150000000000002,11.386607225512103,-1.3660526654705103,-25.089302613064707,0.07591565342561483,0.14159965071591135,-1.6497532482838406,-0.0005616580536408054,-0.0011385982488617535,0.014317020845556964,0,70,255.0,255.0,255.0
504,25.200000000000003,11.390402808290268,-1.3589743070087554,-25.17177158510423,0.07591770128995193,0.14153067122969681,-1.6489897513251452,0.0006435726271246684,-0.0016205811997201554,0.016222857502254336,0,70,255.0,255.0,255.0
505,25.25,11.3942,-1.3519,-25.2542,0.07598001068832731,0.14143759259593935,-1.6481309625336154,0.0018488033078899457,-0.002102564150578967,0.018128694158955128,0,70,255.0,255.0,255.0
506,25.3,11.398000889316346,-1.3448306981195455,-25.336584157507456,0.07604711752150425,0.1413354917391564,-1.6472407427340183,0.00083547001918732,-0.0019814701207383914,0.017480097824931908,0,70,255.0,255.0,255.0
507,25.35,11.401803867307743,-1.3377663499143926,-25.41892461477035,0.07606355769024604,0.1412394455838655,-1.646382952751122,-0.0001778632695153058,-0.0018603760908978161,0.016831501490908687,0,70,255.0,255.0,255.0
508,25.400000000000002,11.405606400640966,-1.3307066526494673,-25.501222993279516,0.07602933119455271,0.14114945413006663,-1.6455575925849273,-0.0011911965582179318,-0.0017392820610572404,0.016182905156885467,0,70,255.0,255.0,255.0
509,25.450000000000003,11.409405955982791,-1.3236513035896944,-25.583480914525786,0.07594443803442426,0.1410655173777598,-1.6447646622354335,-0.0022045298469205573,-0.001618188031216665,0.015534308822862249,0,70,255.0,255.0,255.0
510,25.5,11.4132,-1.3166,-25.6657,0.07580887820986065,0.14098763532694497,-1.644004161702641,-0.0032178631356236664,-0.0014970940013765421,0.014885712488835523,0,70,255.0,255.0,255.0
511,25.55,11.416986808290938,-1.3095524905983078,-25.74788131404924,0.07567118761493072,0.14091272079766334,-1.6432426623612144,-0.0022897606615736566,-0.001499487169888436,0.015574261168231029,0,70,255.0,255.0,255.0
512,25.6,11.42076789218022,-1.3025087299145406,-25.830023692445558,0.07557990214370328,0.14083768660995613,-1.642446735585818,-0.001361658187523647,-0.00150188033840033,0.016262809847626535,0,70,255.0,255.0,255.0
513,25.650000000000002,11.424545571924037,-1.2954687239316192,-25.91212541381726,0.07553502179617835,0.1407625327638233,-1.6416163813764517,-0.00043355571347363734,-0.0015042735069122238,0.016951358527022037,0,70,255.0,255.0,255.0
514,25.700000000000003,11.42832216777857,-1.2884324786324652,-25.99418475679264,0.07553654657235592,0.1406872592592649,-1.6407515997331157,0.0004945467605763725,-0.0015066666754241177,0.017639907206417543,0,70,255.0,255.0,255.0
515,25.75,11.4321,-1.2814,-26.0762,0.07558447647223598,0.14061186609628093,-1.63985239065581,0.0014226492346260944,-0.0015090598439362335,0.018328455885813,0,70,255.0,255.0,255.0
516,25.8,11.4358806775199,-1.2743713394872227,-26.158168986295593,0.07563613201877975,0.14053362507018952,-1.6388926078211086,0.0006435726271246334,-0.0016205811997204406,0.020062857502247435,0,70,255.0,255.0,255.0
517,25.85,11.439662963971372,-1.2673467304274442,-26.24008781544743,0.07564883373494845,0.14044980797630888,-1.637846104905585,-0.0001355039803768276,-0.0017321025555046474,0.021797259118681873,0,70,255.0,255.0,255.0
518,25.900000000000002,11.44344491166289,-1.2603264516240547,-26.321952151451477,0.07562258162074208,0.14036041481463904,-1.6367128819092402,-0.0009145805878782885,-0.0018436239112888545,0.023531660735116307,0,70,255.0,255.0,255.0
519,25.950000000000003,11.44722457290294,-1.2533107818804432,-26.40375765830368,0.07555737567616061,0.14026544558517998,-1.6354929388320736,-0.0016936571953797496,-0.0019551452670730613,0.025266062351550742,0,70,255.0,255.0,255.0
520,26.0,11.451,-1.2463,-26.4855,0.0754532159012041,0.14016490028793172,-1.6341862756740853,-0.0024727338028818213,-0.0020666666228583708,0.027000463967988608,0,70,255.0,255.0,255.0
521,26.05,11.454769681629456,-1.239294151452802,-26.56717554076839,0.07533628430995817,0.14007277892157982,-1.6328349063543164,-0.002204529846955113,-0.0016181880312171096,0.027054308822767225,0,70,255.0,255.0,255.0
522,26.1,11.458533851934293,-1.232292348375682,-26.648783445764717,0.07523276291650859,0.14000308148481,-1.6314808447918083,-0.0019363258910284043,-0.0011697094395758485,0.027108153677545845,0,70,255.0,255.0,255.0
523,26.150000000000002,11.462293181424403,-1.2252934695721611,-26.730323580376858,0.07514265172085534,0.13995580797762225,-1.6301240909865617,-0.001668121935101696,-0.0007212308479345871,0.027161998532324462,0,70,255.0,255.0,255.0
524,26.200000000000003,11.466048340609674,-1.21829639384576,-26.811795809992667,0.0750659507229984,0.13993095840001654,-1.628764644938576,-0.0013999179791749875,-0.000272752256293326,0.027215843387103082,0,70,255.0,255.0,255.0
525,26.25,11.4698,-1.2113,-26.8932,0.07500265992293782,0.13992853275199293,-1.6274025066478515,-0.0011317140232486311,0.00017572633534723714,0.027269688241878143,0,70,255.0,255.0,255.0
526,26.3,11.473548595962278,-1.204304054701569,-26.97453605063086,0.07493873074137197,0.13989525924349103,-1.6260397667616429,-0.0014254532393851258,-0.0015066666754242747,0.02723990720646121,0,70,255.0,255.0,255.0
527,26.35,11.477293628291457,-1.1973118760698265,-27.055804001493694,0.07486011459899931,0.1397778660844505,-1.6246785159272055,-0.0017191924555216205,-0.0031890596861957866,0.02721012617104428,0,70,255.0,255.0,255.0
528,26.400000000000002,11.481034362639496,-1.1903276700872993,-27.13700392704111,0.07476681149581982,0.13957635327487142,-1.6233187541445384,-0.002012931671658115,-0.004871452696967298,0.027180345135627348,0,70,255.0,255.0,255.0
529,26.450000000000003,11.48477006465836,-1.1833556427365146,-27.21813590172568,0.0746588214318335,0.13929072081475374,-1.6219604814136426,-0.0023066708877946098,-0.00655384570773881,0.027150564100210415,0,70,255.0,255.0,255.0
530,26.5,11.4885,-1.1764,-27.2992,0.07453614440704034,0.13892096870409756,-1.6206036977345175,-0.0026004101039316385,-0.008236238718510203,0.027120783064793486,0,70,255.0,255.0,255.0
531,26.55,11.492223934521434,-1.1694632297409215,-27.380195456708194,0.07442879272455755,0.13857018410445798,-1.6191980265991073,-0.0016936571953800475,-0.0057951452670730414,0.029106062351612068,0,70,255.0,255.0,255.0
532,26.6,11.49594363489988,-1.162540947345011,-27.461118148260503,0.07436677868750234,0.13834145417739024,-1.6176930914993564,-0.0007869042868284568,-0.0033540518156358803,0.03109134163843065,0,70,255.0,255.0,255.0
533,26.650000000000002,11.499661368017609,-1.1556270500786394,-27.541963111458728,0.0743501022958747,0.13823477892289437,-1.6160888924352643,0.000119848621723134,-0.00091295836419872,0.03307662092524923,0,70,255.0,255.0,255.0
534,26.700000000000003,11.503379400756891,-1.1487154352081785,-27.62272538310463,0.07437876354967465,0.13825015834097037,-1.6143854294068314,0.001026601530274725,0.001528135087238442,0.035061900212067815,0,70,255.0,255.0,255.0
535,26.75,11.5071,-1.1418,-27.7034,0.07445276244890216,0.13838759243161824,-1.6125827024140575,0.0019333544388263624,0.003969228538675651,0.03704717949888625,0,70,255.0,255.0,255.0
536,26.8,11.510824465951986,-1.1348766263347434,-27.783982922536378,0.07451409836039333,0.13852800433867768,-1.61073612684191,0.0005200820208205246,0.001647247743701963,0.03681584338701107,0,70,255.0,255.0,255.0
537,26.85,11.514550232109023,-1.1279491345501278,-27.864473805464286,0.07450477065098421,0.13855231720598846,-1.6089011180753565,-0.0008931903971853132,-0.000674733051271725,0.03658450727513588,0,70,255.0,255.0,255.0
538,26.900000000000002,11.51827376529007,-1.1210233295981402,-27.944873227124003,0.0744247793206748,0.13846053103355052,-1.6070776761143966,-0.0023064628151911503,-0.002996713846245413,0.0363531711632607,0,70,255.0,255.0,255.0
539,26.950000000000003,11.521991532314077,-1.1141050164307682,-28.02518176585582,0.0742741243694651,0.1382526458213639,-1.6052658009590302,-0.0037197352331969887,-0.005318694641219101,0.03612183505138552,0,70,255.0,255.0,255.0
540,27.0,11.5257,-1.1072,-28.1054,0.07405280579735511,0.1379286615694286,-1.6034654926092582,-0.005133007651202726,-0.007640675436192401,0.03589049893951213,0,70,255.0,255.0,255.0
541,27.05,11.529396601670621,-1.1003126649201034,-28.185528053146307,0.07381881383388028,0.13757379854083043,-1.6016494660332639,-0.004226670887790416,-0.006553845707734258,0.036750564100258044,0,70,255.0,255.0,255.0
542,27.1,11.533082636664025,-1.0934417144544761,-28.26556422988236,0.07363013870857606,0.13727327699865516,-1.5997904361992323,-0.003320334124378107,-0.0054670159792761155,0.03761062926100396,0,70,255.0,255.0,255.0
543,27.150000000000002,11.536760370822117,-1.0865844315287974,-28.345506380045265,0.07348678042144247,0.1370270969429028,-1.5978884031071634,-0.0024139973609657974,-0.004380186250817973,0.03847069442174988,0,70,255.0,255.0,255.0
544,27.200000000000003,11.540432069986807,-1.0797380990687455,-28.425352353472114,0.07338873897247948,0.13683525837357335,-1.5959433667570573,-0.001507660597553488,-0.0032933565223598298,0.039330759582495795,0,70,255.0,255.0,255.0
545,27.25,11.5441,-1.0729,-28.5051,0.07333601436168712,0.13669776129066685,-1.593955327148914,-0.000601323834141243,-0.002206526793900654,0.04019082474325231,0,70,255.0,255.0,255.0
546,27.3,11.547765927365527,-1.0660679139848417,-28.584747264878406,0.0732986463040897,0.1365848014980003,-1.5919300090250312,-0.0008933984697549844,-0.0023118649127607874,0.04082190021205819,0,70,255.0,255.0,255.0
547,27.35,11.551429621234881,-1.0592416076319653,-28.664292475006278,0.07324667451471162,0.13646657479939078,-1.589873137127708,-0.0011854731053687257,-0.002417203031620921,0.041452975680864076,0,70,255.0,255.0,255.0
548,27.400000000000002,11.55509035142147,-1.0524213442866681,-28.743734052694954,0.07318009899355284,0.1363430811948382,-1.5877847114569448,-0.0014775477409824669,-0.002522541150481055,0.04208405114966996,0,70,255.0,255.0,255.0
549,27.450000000000003,11.558747387738705,-1.0456073872942473,-28.823070420255753,0.07309891974061337,0.13621432068434264,-1.585664732012741,-0.0017696223765962082,-0.0026278792693411883,0.042715126618475846,0,70,255.0,255.0,255.0
550,27.5,11.5624,-1.0388,-28.9023,0.07300313675589322,0.13608029326790413,-1.583513198795097,-0.0020616970122097067,-0.0027332173882006483,0.04334620208728701,0,70,255.0,255.0,255.0
551,27.55,11.566047688867272,-1.0319996791405288,-28.98142128734008,0.07290660094975879,0.13592699546716863,-1.5813344978666306,-0.0017997352331671841,-0.0033986946412193223,0.04380183505136622,0,70,255.0,255.0,255.0
552,27.6,11.56969087839646,-1.0252078550176604,-29.06043307009253,0.0728231632325765,0.13574042380378218,-1.5791330152899605,-0.0015377734541246616,-0.004064171894237996,0.044257468015445424,0,70,255.0,255.0,255.0
553,27.650000000000002,11.573330223492011,-1.0184261913245278,-29.13933420917494,0.07275282360434632,0.13552057827774483,-1.576908751065086,-0.001275811675082139,-0.004729649147256671,0.044713100979524634,0,70,255.0,255.0,255.0
554,27.700000000000003,11.576966379058376,-1.0116563517542632,-29.218123565504907,0.07269558206506828,0.13526745888905653,-1.5746617051920078,-0.0010138498960396165,-0.005395126400275345,0.04516873394360384,0,70,255.0,255.0,255.0
555,27.75,11.5806,-1.0049,-29.2968,0.07265143861474237,0.13498106563771733,-1.572391877670726,-0.0007518881169971126,-0.00606060365329375,0.045624366907681235,0,70,255.0,255.0,255.0
556,27.8,11.58423131716539,-0.9981581694530428,-29.37536198576129,0.07259494989687774,0.1346992166333259,-1.57007599950847,-0.0015076605975877008,-0.0052133565223635315,0.04701075958254963,0,70,255.0,255.0,255.0
557,27.85,11.587858865179289,-0.9914293722973914,-29.45380644462362,0.07250067255498359,0.13445972998548095,-1.5676908017124709,-0.002263433078178289,-0.004366109391433313,0.04839715225741802,0,70,255.0,255.0,255.0
558,27.900000000000002,11.591480754610489,-0.9847114904152187,-29.53212991060531,0.07236860658905991,0.13426260569418258,-1.5652362842827283,-0.003019205558768877,-0.0035188622605030946,0.04978354493228642,0,70,255.0,255.0,255.0
559,27.950000000000003,11.595095096027793,-0.9780024056886971,-29.610328917724665,0.0721987519991067,0.13410784375943066,-1.5627124472192422,-0.0037749780393594654,-0.002671615129572876,0.05116993760715481,0,70,255.0,255.0,255.0
560,28.0,11.5987,-0.9713,-29.6884,0.07199110878512398,0.1339954441812253,-1.5601192905220127,-0.004530750519950444,-0.0018243679986429395,0.052556330282021335,0,70,255.0,255.0,255.0
561,28.05,11.602294242471165,-0.9646028430472997,-29.766340369614777,0.07178559946271128,0.1338841379995258,-1.557497504099499,-0.003689622376557688,-0.0026278792693367973,0.052315126618523417,0,70,255.0,255.0,255.0
562,28.1,11.605879260886388,-0.9579122557927728,-29.844149951413005,0.07162214654746821,0.13373265625429162,-1.5548877778601602,-0.002848494233164932,-0.003431390540030655,0.052073922955025505,0,70,255.0,255.0,255.0
563,28.150000000000002,11.609457158066032,-0.951230247014596,-29.921829348403847,0.07150075003939477,0.13354099894552274,-1.5522901118039965,-0.0020073660897721754,-0.004234901810724513,0.051832719291527586,0,70,255.0,255.0,255.0
564,28.200000000000003,11.61303003683045,-0.9445588254909459,-29.99937916359646,0.07142140993849098,0.13330916607321916,-1.5497045059310075,-0.0011662379463794194,-0.005038413081418371,0.05159151562802967,0,70,255.0,255.0,255.0
565,28.25,11.6166,-0.9379,-30.0768,0.07138412624475682,0.1330371576373809,-1.5471309602411938,-0.0003251098029868338,-0.005841924352113281,0.051350311964533546,0,70,255.0,255.0,255.0
