idx,t,px,py,pz,vx,vy,vz,ax,ay,az,yaw,mode,ledr,ledg,ledb
0,0.0,13.5,-3.0,0.0,-5.831417708741814e-20,-6.50393869586383e-20,0.019030436776039605,6.997701250490177e-19,7.804726435036596e-19,-0.5155652413124753,0,70,255.0,255.0,255.0
1,0.05,13.5,-3.0,0.0003090957239374257,-2.682452146021234e-20,-2.991811800097362e-20,-0.006625999083021784,5.598161000392142e-19,6.243781148029276e-19,-0.5106921930499801,0,70,255.0,255.0,255.0
2,0.1,13.5,-3.0,-0.0006585390347500995,-2.3325670834967233e-21,-2.6015754783455325e-21,-0.03203878252895842,4.198620750294106e-19,4.682835861021957e-19,-0.5058191447874851,0,70,255.0,255.0,255.0
3,0.15000000000000002,13.5,-3.0,-0.0028907216554063375,1.5161686042728722e-20,1.6910240609245973e-20,-0.0572079135617703,2.7990805001960703e-19,3.121890574014637e-19,-0.50094609652499,0,70,255.0,255.0,255.0
4,0.2,13.5,-3.0,-0.006375269517375051,2.5658237918463974e-20,2.8617330261800846e-20,-0.08213339218145743,1.3995402500980352e-19,1.5609452870073186e-19,-0.49607304826249493,0,70,255.0,255.0,255.0
5,0.25,13.5,-3.0,-0.0111,2.915708854370907e-20,3.251969347931915e-20,-0.1068152183880198,0.0,0.0,-0.49119999999999986,0,70,255.0,255.0,255.0
6,0.30000000000000004,13.5,-3.0,-0.017052730482624956,2.5658237918463974e-20,2.8617330261800846e-20,-0.13125339218145746,-1.3995402500980366e-19,-1.5609452870073205e-19,-0.48632695173750495,0,70,255.0,255.0,255.0
7,0.35000000000000003,13.5,-3.0,-0.02422127834459367,1.5161686042728704e-20,1.691024060924595e-20,-0.15544791356177032,-2.799080500196072e-19,-3.1218905740146395e-19,-0.4814539034750101,0,70,255.0,255.0,255.0
8,0.4,13.5,-3.0,-0.032593460965249905,-2.3325670834967353e-21,-2.6015754783455385e-21,-0.17939878252895844,-4.1986207502941065e-19,-4.682835861021959e-19,-0.4765808552125152,0,70,255.0,255.0,255.0
9,0.45,13.5,-3.0,-0.04215709572393743,-2.6824521460212363e-20,-2.991811800097363e-20,-0.20310599908302182,-5.598161000392142e-19,-6.243781148029277e-19,-0.47170780695002035,0,70,255.0,255.0,255.0
10,0.5,13.5,-3.0,-0.0529,-5.831417708741814e-20,-6.50393869586383e-20,-0.22656956322396044,-6.997701250490176e-19,-7.804726435036597e-19,-0.4668347586875261,0,70,255.0,255.0,255.0
11,0.55,13.5,-3.0,-0.06480937379343764,-7.580843021364358e-20,-8.455120304622981e-20,-0.24975243219114862,6.7407548053553255e-34,5.7777898331617076e-34,-0.46048000000000017,0,70,255.0,255.0,255.0
12,0.6000000000000001,13.5,-3.0,-0.07786994758687528,-5.831417708741808e-20,-6.503938695863824e-20,-0.27261756322396047,6.997701250490189e-19,7.804726435036608e-19,-0.4541252413124742,0,70,255.0,255.0,255.0
13,0.65,13.5,-3.0,-0.09206583448359407,-5.831417708741793e-21,-6.503938695863831e-21,-0.29516495632239603,1.3995402500980354e-18,1.5609452870073195e-18,-0.44777048262494834,0,70,255.0,255.0,255.0
14,0.7000000000000001,13.5,-3.0,-0.10738114758687527,8.163984792238554e-20,9.105514174209378e-20,-0.3173946114864553,2.099310375147054e-18,2.34141793051098e-18,-0.4414157239374224,0,70,255.0,255.0,255.0
15,0.75,13.5,-3.0,-0.1238,2.0409961980596348e-19,2.2763785435523407e-19,-0.3393065287161383,2.7990805001960707e-18,3.121890574014639e-18,-0.4350609652498987,0,70,255.0,255.0,255.0
16,0.8,13.5,-3.0,-0.14130657434362454,2.775754829361103e-19,3.0958748192311837e-19,-0.3609048790539482,1.3995402500980092e-19,1.5609452870072983e-19,-0.42887304826249545,0,70,255.0,255.0,255.0
17,0.8500000000000001,13.5,-3.0,-0.15988533130790536,2.180950223069436e-19,2.4324730722530707e-19,-0.3821938335423879,-2.519172450176469e-18,-2.8097015166131794e-18,-0.42268513127509216,0,70,255.0,255.0,255.0
18,0.9,13.5,-3.0,-0.17952080110037383,2.5658237918463842e-20,2.861733026180081e-20,-0.40317339218145737,-5.178298925362733e-18,-5.775497561927083e-18,-0.41649721428768893,0,70,255.0,255.0,255.0
19,0.9500000000000001,13.5,-3.0,-0.20019751392856158,-2.9973487022932983e-19,-3.3430244896740153e-19,-0.4238435549711568,-7.837425400549002e-18,-8.741293607240991e-18,-0.4103092973002857,0,70,255.0,255.0,255.0
20,1.0,13.5,-3.0,-0.2219,-7.580843021364359e-19,-8.45512030462298e-19,-0.444204321911486,-1.0496551875735266e-17,-1.1707089652554895e-17,-0.4041213803128829,0,70,255.0,255.0,255.0
21,1.05,13.5,-3.0,-0.24461232883206424,-1.034493501530798e-18,-1.1537987246462434e-18,-0.4642280515930586,-5.598161000392052e-19,-6.2437811480291625e-19,-0.3968278069500207,0,70,255.0,255.0,255.0
22,1.1,13.5,-3.0,-0.2683167271815035,-8.140659121403567e-19,-9.079498419425897e-19,-0.48388710260648815,9.376919675656855e-18,1.0458333422949063e-17,-0.3895342335871585,0,70,255.0,255.0,255.0
23,1.1500000000000001,13.5,-3.0,-0.2929949611149107,-9.680153396511133e-20,-1.079653823513365e-19,-0.5031814749517745,1.931365545135292e-17,2.1541044960701043e-17,-0.38224066022429626,0,70,255.0,255.0,255.0
24,1.2000000000000002,13.5,-3.0,-0.3186287966988786,1.1172996329949364e-18,1.2461546541275164e-18,-0.5221111686289177,2.925039122704898e-17,3.262375649845302e-17,-0.3749470868614341,0,70,255.0,255.0,255.0
25,1.25,13.5,-3.0,-0.3452,2.82823758873978e-18,3.154410267493958e-18,-0.5406761836379178,3.918712700274499e-17,4.370646803620494e-17,-0.36765351349857145,0,70,255.0,255.0,255.0
26,1.3,13.5,-3.0,-0.37269131032811864,3.860398523187082e-18,4.305607416661856e-18,-0.5589349145738176,2.0993103751470195e-18,2.3414179305109433e-18,-0.3626957239374226,0,70,255.0,255.0,255.0
27,1.35,13.5,-3.0,-0.4010893599660808,3.038168626254482e-18,3.3885520605450523e-18,-0.5769457560316601,-3.498850625245095e-17,-3.9023632175183055e-17,-0.35773793437627377,0,70,255.0,255.0,255.0
28,1.4000000000000001,13.5,-3.0,-0.4303817544399838,3.615478979419836e-19,4.0324419914354555e-19,-0.594708708011445,-7.207632288004893e-17,-8.038868228087705e-17,-0.35278014481512493,0,70,255.0,255.0,255.0
29,1.4500000000000002,13.5,-3.0,-0.4605560992759245,-4.169463661750417e-18,-4.65031616754266e-18,-0.6122237705131727,-1.0916413950764689e-16,-1.2175373238657105e-16,-0.3478223552539761,0,70,255.0,255.0,255.0
30,1.5,13.5,-3.0,-0.4916,-1.0554866052822684e-17,-1.1772129039513535e-17,-0.6294909435368427,-1.4625195613524468e-16,-1.6311878249226492e-16,-0.3428645656928291,0,70,255.0,255.0,255.0
31,1.55,13.5,-3.0,-0.5235000298554613,-1.4407100591217526e-17,-1.606863094200118e-17,-0.6464482901116705,-7.837425400548873e-18,-8.741293607240861e-18,-0.3354292973002872,0,70,255.0,255.0,255.0
32,1.6,13.5,-3.0,-0.5562386329541733,-1.133860859287757e-17,-1.264625840023762e-17,-0.6630338732668715,1.3057710533414693e-16,1.456361952777832e-16,-0.3279940289077453,0,70,255.0,255.0,255.0
33,1.6500000000000001,13.5,-3.0,-0.5897972211251546,-1.34939005780282e-18,-1.505011414222848e-18,-0.6792476930024451,2.689916360688428e-16,3.000136841628072e-16,-0.32055876051520343,0,70,255.0,255.0,255.0
34,1.7000000000000002,13.5,-3.0,-0.6241572061974241,1.556055501400673e-17,1.735511001604313e-17,-0.6950897493183917,4.074061668035385e-16,4.543911730478313e-16,-0.31312349212266155,0,70,255.0,255.0,255.0
35,1.75,13.5,-3.0,-0.6593,3.9391226622550957e-17,4.393410589056018e-17,-0.7105600422147114,5.458206975382337e-16,6.087686619328547e-16,-0.3056882237301224,0,70,255.0,255.0,255.0
36,1.8,13.5,-3.0,-0.6952077702500362,5.3768003841683015e-17,5.996891635134288e-17,-0.7257039249795003,2.925039122704835e-17,3.262375649845247e-17,-0.3000670868614336,0,70,255.0,255.0,255.0
37,1.85,13.5,-3.0,-0.7318657082172261,4.2316265745255796e-17,4.7196481540405436e-17,-0.7405667509008548,-4.87319915084137e-16,-5.435211489359498e-16,-0.2944459499927447,0,70,255.0,255.0,255.0
38,1.9000000000000001,13.5,-3.0,-0.7692597610593979,5.036012333269275e-18,5.616801457747865e-18,-0.7551485199787747,-1.0038902213953224e-15,-1.119666054370352e-15,-0.28882481312405583,0,70,255.0,255.0,255.0
39,1.9500000000000002,13.5,-3.0,-0.8073758759343798,-5.807275639427652e-17,-6.477012389662986e-17,-0.7694492322132603,-1.5204605277065076e-15,-1.6958109598047542e-15,-0.283203676255367,0,70,255.0,255.0,255.0
40,2.0,13.5,-3.0,-0.8462,-1.4701004043738113e-16,-1.639642945227272e-16,-0.7834688876043113,-2.0370308340176904e-15,-2.2719558652391537e-15,-0.27758253938667554,0,70,255.0,255.0,255.0
41,2.0500000000000003,13.5,-3.0,-0.8857176891443937,-2.0066491477551459e-16,-2.2380703446337034e-16,-0.7971840099703277,-1.0916413950763644e-16,-1.217537323865596e-16,-0.2710223552539767,0,70,255.0,255.0,255.0
42,2.1,13.5,-3.0,-0.9259129341769222,-1.5792645438814566e-16,-1.761396677613841e-16,-0.810571123129709,1.818702555002401e-15,2.0284484004660156e-15,-0.264462171121278,0,70,255.0,255.0,255.0
43,2.15,13.5,-3.0,-0.9667693346372538,-1.8794659275275118e-17,-2.0962194416769444e-17,-0.8236302270824554,3.746569249512437e-15,4.17865053331859e-15,-0.25790198698857925,0,70,255.0,255.0,255.0
44,2.2,13.5,-3.0,-1.0082704900650574,2.1673047056309926e-16,2.4172538557047623e-16,-0.836361321828567,5.674435944022492e-15,6.3288526661711845e-15,-0.2513418028558805,0,70,255.0,255.0,255.0
45,2.25,13.5,-3.0,-1.0504,5.486489351269736e-16,6.119230722003487e-16,-0.8487644073680434,7.602302638532529e-15,8.479054799023761e-15,-0.24478161872318438,0,70,255.0,255.0,255.0
46,2.3000000000000003,13.5,-3.0,-1.0931414731723894,7.488916552603755e-16,8.352592215021386e-16,-0.8608400351391897,4.0740616680349927e-16,4.543911730477882e-16,-0.23824349212266607,0,70,255.0,255.0,255.0
47,2.35,13.5,-3.0,-1.136478555075085,5.893895518073268e-16,6.573621895051311e-16,-0.87258875658031,-6.787490304925467e-15,-7.570272452928112e-15,-0.23170536552214782,0,70,255.0,255.0,255.0
48,2.4000000000000004,13.5,-3.0,-1.1803949003915868,7.014262476782494e-17,7.823197620932311e-17,-0.8840105716914045,-1.3982386776654495e-14,-1.5594936078904084e-14,-0.22516723892162954,0,70,255.0,255.0,255.0
49,2.45,13.5,-3.0,-1.2248741638053922,-8.088491258581208e-16,-9.021314183852752e-16,-0.895105480472473,-2.1177283248383463e-14,-2.3619599704879986e-14,-0.2186291123211113,0,70,255.0,255.0,255.0
50,2.5,13.5,-3.0,-1.2699,-2.0475857000705133e-15,-2.2837279942786673e-15,-0.9058734829235154,-2.8372179720112427e-14,-3.164426333085589e-14,-0.21209098572059393,0,70,255.0,255.0,255.0
51,2.5500000000000003,13.5,-3.0,-1.3154564181660497,-2.794901706265987e-15,-3.1172298515451833e-15,-0.9163358494729144,-1.5204605277063618e-15,-1.6958109598045945e-15,-0.20640367625536143,0,70,255.0,255.0,255.0
52,2.6,13.5,-3.0000000000000004,-1.3615288455227372,-2.1996317528411613e-15,-2.4533090902591402e-15,-0.9265138505490517,2.5331258664699464e-14,2.8252641411246434e-14,-0.200716366790129,0,70,255.0,255.0,255.0
53,2.6500000000000004,13.5,-3.0000000000000004,-1.4081030637964005,-2.6177583979602665e-16,-2.9196571042052506e-16,-0.9364074861519273,5.218297785710554e-14,5.820109378229773e-14,-0.1950290573248965,0,70,255.0,255.0,255.0
54,2.7,13.5,-3.0,-1.4551648547133755,3.0186660328693835e-15,3.3668002879706247e-15,-0.9460167562815414,7.903469704951136e-14,8.814954615334876e-14,-0.18934174785966407,0,70,255.0,255.0,255.0
55,2.75,13.5,-3.0,-1.5027,7.64169386515508e-15,8.52298890491432e-15,-0.9553416609378936,1.0588641624191716e-13,1.1809799852439983e-13,-0.18365443839443163,0,70,255.0,255.0,255.0
56,2.8000000000000003,13.5,-2.9999999999999996,-1.5506936541634138,1.0430715169803572e-14,1.1633660184678597e-14,-0.9643445669691515,5.67443594402195e-15,6.328852666170607e-15,-0.17646180285588264,0,70,255.0,255.0,255.0
57,2.85,13.5,-2.999999999999999,-1.5991284628339664,8.209137459557321e-15,9.155874171531432e-15,-0.9729878412234819,-9.453754435387238e-14,-1.0544029319205764e-13,-0.16926916731733374,0,70,255.0,255.0,255.0
58,2.9000000000000004,13.500000000000002,-2.9999999999999987,-1.6479864444228132,9.769607344162822e-16,1.089630865472778e-15,-0.981271483700885,-1.947495246517676e-13,-2.1720943905028684e-13,-0.16207653177878475,0,70,255.0,255.0,255.0
59,2.95,13.5,-2.999999999999999,-1.697249617341106,-1.1265815005619411e-14,-1.2565069733497222e-14,-0.9891954944013603,-2.9496150494966193e-13,-3.289785849085151e-13,-0.15488389624023585,0,70,255.0,255.0,255.0
60,3.0,13.5,-3.0,-1.7469,-2.8519189760549806e-14,-3.180822762537862e-14,-0.9967598733249085,-3.9517348524755616e-13,-4.407477307667432e-13,-0.14769126070168692,0,70,255.0,255.0,255.0
61,3.0500000000000003,13.499999999999998,-3.000000000000002,-1.7969201651802975,-3.8927958972948305e-14,-4.34174108871692e-14,-1.0039978826504785,-2.1177283248381383e-14,-2.3619599704877695e-14,-0.14182911232111528,0,70,255.0,255.0,255.0
62,3.1,13.499999999999996,-3.000000000000004,-1.8472949031413972,-3.0636918085388105e-14,-3.4170187595866576e-14,-1.01094278455702,3.5281891875079016e-13,3.935085313569841e-13,-0.13596696394054372,0,70,255.0,255.0,255.0
63,3.1500000000000004,13.499999999999995,-3.000000000000005,-1.898009558512349,-3.6460670978690976e-15,-4.066557751470574e-15,-1.0175945790445329,7.268151207499649e-13,8.106366624188496e-13,-0.13010481555997208,0,70,255.0,255.0,255.0
64,3.2,13.499999999999998,-3.000000000000004,-1.9490494759222003,4.2044593989608275e-14,4.689347864601827e-14,-1.0239532661130173,1.1008113227491365e-12,1.2277647934807115e-12,-0.12424266717940051,0,70,255.0,255.0,255.0
65,3.25,13.5,-3.0,-2.0004,1.0643506517704414e-13,1.1870992159660014e-13,-1.030018845762473,1.474807524748308e-12,1.6448929245425733e-12,-0.11838051879883338,0,70,255.0,255.0,255.0
66,3.3000000000000003,13.500000000000007,-2.9999999999999925,-2.052046485115398,1.4528112072198965e-13,1.6203598336399823e-13,-1.0357919024289355,7.903469704950391e-14,8.814954615334027e-14,-0.11254174785966096,0,70,255.0,255.0,255.0
67,3.35,13.500000000000012,-2.999999999999985,-2.1039743246004443,1.1433853488199513e-13,1.2752487621193487e-13,-1.041273020548439,-1.316738130649288e-12,-1.4685938322358786e-12,-0.1067029769204886,0,70,255.0,255.0,255.0
68,3.4000000000000004,13.500000000000016,-2.999999999999981,-2.156168921527793,1.3607307657060111e-14,1.5176600140409464e-14,-1.0464622001209842,-2.7125109583480916e-12,-3.025337210625112e-12,-0.10086420598131621,0,70,255.0,255.0,255.0
69,3.45,13.500000000000014,-2.999999999999985,-2.208615678970094,-1.5691256095281364e-13,-1.7500884485057594e-13,-1.0513594411465708,-4.108283786046884e-12,-4.582080589014331e-12,-0.09502543504214385,0,70,255.0,255.0,255.0
70,3.5,13.5,-3.0,-2.2613,-3.9722107094762674e-13,-4.430314587610219e-13,-1.0559647436251989,-5.504056613745674e-12,-6.138823967403551e-12,-0.08918666410297682,0,70,255.0,255.0,255.0
71,3.5500000000000003,13.499999999999975,-3.0000000000000275,-2.3142066943581128,-5.421965239150102e-13,-6.047265225688237e-13,-1.0602425076337791,-2.9496150494963335e-13,-3.289785849084844e-13,-0.08192389624023551,0,70,255.0,255.0,255.0
72,3.6,13.499999999999952,-3.0000000000000555,-2.3673181984568257,-4.267172214425923e-13,-4.759293172518729e-13,-1.0641571332492223,4.914133603846361e-12,5.4808667975865305e-12,-0.07466112837749427,0,70,255.0,255.0,255.0
73,3.6500000000000004,13.499999999999936,-3.0000000000000706,-2.420616355376483,-5.078316353037151e-14,-5.6639842810167485e-14,-1.0677086204715287,1.0123228712642401e-11,1.1290712180081597e-11,-0.06739836051475295,0,70,255.0,255.0,255.0
74,3.7,13.499999999999948,-3.0000000000000564,-2.474083008197426,5.856056498216463e-13,6.531419007562853e-13,-1.0708969693006978,1.5332323821438396e-11,1.7100557562576614e-11,-0.06013559265201171,0,70,255.0,255.0,255.0
75,3.75,13.5,-3.0,-2.5277,1.4824492186134629e-12,1.6534159134474876e-12,-1.0737221797367298,2.0541418930234388e-11,2.2910402945071622e-11,-0.05287282478927402,0,70,255.0,255.0,255.0
76,3.8000000000000003,13.50000000000009,-2.999999999999898,-2.5814499374521525,2.023504974938051e-12,2.2568701069112963e-12,-1.0762300670359468,1.1008113227490287e-12,1.227764793480593e-12,-0.047442667179407365,0,70,255.0,255.0,255.0
77,3.85,13.500000000000187,-2.9999999999997926,-2.6353184815722535,1.5925303508883747e-12,1.7761923927955567e-12,-1.0784664464546705,-1.8339796284736156e-11,-2.045487335811025e-11,-0.04201250956954076,0,70,255.0,255.0,255.0
78,3.9000000000000004,13.500000000000234,-2.9999999999997384,-2.689292056966278,1.8952534646442533e-13,2.1138277110025967e-13,-1.0804313179929008,-3.778040389222152e-11,-4.2137511509701275e-11,-0.0365823519596741,0,70,255.0,255.0,255.0
79,3.95,13.500000000000188,-2.999999999999789,-2.743357088240202,-2.1855100383337715e-12,-2.437558758174565e-12,-1.082124681650638,-5.72210114997067e-11,-6.382014966129212e-11,-0.031152194349807497,0,70,255.0,255.0,255.0
80,4.0,13.5,-3.0,-2.7975,-5.5325758035062246e-12,-6.1706321950289284e-12,-1.0835465374278814,-7.666161910719189e-11,-8.550278781288295e-11,-0.02572203673993556,0,70,255.0,255.0,255.0
81,4.05,13.499999999999657,-3.000000000000382,-2.851706355833278,-7.551823375837193e-12,-8.422753905076359e-12,-1.0846452242224334,-4.1082837860471406e-12,-4.582080589014606e-12,-0.018225435042145247,0,70,255.0,255.0,255.0
82,4.1000000000000005,13.499999999999305,-3.0000000000007754,-2.905958275254162,-5.943404182110876e-12,-6.62884025393032e-12,-1.085369080932096,6.84450515350989e-11,7.633862663485516e-11,-0.010728833344354802,0,70,255.0,255.0,255.0
83,4.15,13.499999999999122,-3.000000000000977,-2.9602370167584064,-7.07318222327333e-13,-7.888912415908748e-13,-1.085718107556869,1.4099838685624365e-10,1.5725933385872352e-10,-0.003232231646564488,0,70,255.0,255.0,255.0
84,4.2,13.499999999999295,-3.0000000000007865,-3.0145238388417672,8.156434503513438e-12,9.097093131941972e-12,-1.0856923040967525,2.135517221773884e-10,2.3818004108259183e-10,0.004264370051225822,0,70,255.0,255.0,255.0
85,4.25,13.5,-3.0,-3.0688,2.0647853995411435e-11,2.3029112866668226e-11,-1.0852916705517464,2.861050574985331e-10,3.191007483064602e-10,0.011760971749019689,0,70,255.0,255.0,255.0
86,4.3,13.500000000001275,-2.9999999999985754,-3.1230478392147347,2.818378852841072e-11,3.143414551339414e-11,-1.084581036074321,1.5332323821439324e-11,1.7100557562577687e-11,0.01666440734798725,0,70,255.0,255.0,255.0
87,4.3500000000000005,13.500000000002592,-2.999999999997108,-3.1772540174111,2.2181086377555134e-11,2.473916862292574e-11,-1.0836252298169475,-2.554404098556593e-10,-2.848996331813102e-10,0.021567842946954893,0,70,255.0,255.0,255.0
88,4.4,13.50000000000327,-2.9999999999963527,-3.231406276000097,2.6397475428448826e-12,2.9441821952632364e-12,-1.0824242517796256,-5.262131435327532e-10,-5.868998239251927e-10,0.02647127854592245,0,70,255.0,255.0,255.0
89,4.45,13.50000000000263,-2.999999999997066,-3.2854923563927296,-3.044022797572e-11,-3.3950813769593326e-11,-1.0809781019623554,-7.96985877209847e-10,-8.889000146690752e-10,0.031374714144890015,0,70,255.0,255.0,255.0
90,4.5,13.5,-3.0,-3.3395,-7.705884017813952e-11,-8.594581927164398e-11,-1.0792867803651365,-1.0677586108869405e-09,-1.1909002054129576e-09,0.0362781497438629,0,70,255.0,255.0,255.0
91,4.55,13.499999999995234,-3.0000000000053166,-3.3934158873077824,-1.0518333073780569e-10,-1.1731382814850021e-10,-1.0772866314802847,-5.722101149971018e-11,-6.382014966129595e-11,0.043727805650200555,0,70,255.0,255.0,255.0
92,4.6000000000000005,13.499999999990324,-3.000000000010792,-3.447222455101441,-8.278094132810967e-11,-9.23278342377726e-11,-1.0749139998001165,9.53316587887538e-10,1.063259906090386e-09,0.051177461556538344,0,70,255.0,255.0,255.0
93,4.65,13.499999999987798,-3.00000000001361,-3.5009010792412067,-9.851671949052272e-12,-1.0987837539462061e-11,-1.072168885324631,1.9638541872747685e-09,2.1903399618420476e-09,0.058627117462875994,0,70,255.0,255.0,255.0
94,4.7,13.49999999999018,-3.0000000000109517,-3.5544331355873147,1.1360447739936649e-10,1.2670616194643133e-10,-1.069051288053829,2.974391786661999e-09,3.317420017593709e-09,0.06607677336921365,0,70,255.0,255.0,255.0
95,4.75,13.5,-3.0,-3.6078,2.875875067171466e-10,3.207541642199077e-10,-1.0655612079877095,3.98492938604923e-09,4.444500073345371e-09,0.07352642927556019,0,70,255.0,255.0,255.0
96,4.800000000000001,13.500000000017788,-2.9999999999801594,-3.660983811554135,3.9254953442281224e-10,4.378211670806069e-10,-1.0617444380045395,2.1355172217733475e-10,2.3818004108253196e-10,0.07914437005123326,0,70,255.0,255.0,255.0
97,4.8500000000000005,13.500000000036113,-2.9999999999597233,-3.7139697621831416,3.0894267893488354e-10,3.445721683281647e-10,-1.057646770982586,-3.5578259416944923e-09,-3.9681399911802325e-09,0.08476231082690623,0,70,255.0,255.0,255.0
98,4.9,13.50000000004554,-2.9999999999492077,-3.766743807035081,3.6766940253364165e-11,4.100716796258514e-11,-1.0532682069218489,-7.329203605566321e-09,-8.174460023442995e-09,0.0903802516025792,0,70,255.0,255.0,255.0
99,4.95,13.500000000036644,-2.999999999959128,-3.8192919012580133,-4.2397768162174614e-10,-4.72873834016132e-10,-1.0486087458223283,-1.1100581269438148e-08,-1.238078005570576e-08,0.09599819237825218,0,70,255.0,255.0,255.0
100,5.0,13.5,-3.0,-3.8716,-1.073291186690447e-09,-1.1970708376079867e-09,-1.0436683876840238,-1.4871958933309979e-08,-1.6587100087968528e-08,0.10161613315392515,0,70,255.0,255.0,255.0
101,5.050000000000001,13.49999999993361,-3.0000000000740465,-3.92365366647568,-1.4650148069534432e-09,-1.633970840173927e-09,-1.0384236165015532,-7.969858772096464e-10,-8.889000146688505e-10,0.10817471414489158,0,70,255.0,255.0,255.0
102,5.1000000000000005,13.499999999865228,-3.000000000150315,-3.9754368961659967,-1.1529897744114243e-09,-1.2859608390748866e-09,-1.0328509162695345,1.3277987178890434e-08,1.4809300058630549e-08,0.11473329513585788,0,70,255.0,255.0,255.0
103,5.15,13.49999999983004,-3.000000000189561,-4.026933292618474,-1.3721608906440436e-10,-1.530408343108777e-10,-1.0269502869879676,2.7352960234990518e-08,3.0507500131929945e-08,0.1212918761268242,0,70,255.0,255.0,255.0
104,5.2,13.499999999863235,-3.000000000152538,-4.078126459380634,1.582306249087617e-09,1.764789174118097e-09,-1.0207217286568522,4.1427933291090595e-08,4.620570020522935e-08,0.1278504571177905,0,70,255.0,255.0,255.0
105,5.25,13.5,-3.0,-4.129,4.005577240044641e-09,4.467529186212039e-09,-1.0141652412761886,5.550290634719067e-08,6.190390027852871e-08,0.1344090381087586,0,70,255.0,255.0,255.0
106,5.300000000000001,13.500000000247772,-2.999999999723655,-4.179537522543148,5.46750969339096e-09,6.0980621936151014e-09,-1.0072810959892395,2.9743917866612426e-09,3.3174200175928585e-09,0.140956773369198,0,70,255.0,255.0,255.0
107,5.3500000000000005,13.500000000502977,-2.999999999439016,-4.229722653152874,4.303016418710813e-09,4.7992711879713795e-09,-1.0000695639392685,-4.955412277386726e-08,-5.526906024334195e-08,0.14750450862963732,0,70,255.0,255.0,255.0
108,5.4,13.500000000634298,-2.99999999929255,-4.279539022491026,5.120974160042519e-10,5.711561692809282e-10,-0.9925306451262759,-1.0208263733439575e-07,-1.1385554050427676e-07,0.1540522438900766,0,70,255.0,255.0,255.0
109,5.45,13.500000000510413,-2.9999999994307225,-4.3289702612194505,-5.905247314728725e-09,-6.586282862456257e-09,-0.9846643395502611,-1.5461115189492427e-07,-1.7244202076521157e-07,0.1605999791505159,0,70,255.0,255.0,255.0
110,5.5,13.5,-3.0,-4.378,-1.4949017773488116e-08,-1.667304590724017e-08,-0.9764706472112243,-2.0713966645545276e-07,-2.3102850102614644e-07,0.16714771441095522,0,70,255.0,255.0,255.0
111,5.550000000000001,13.499999999075307,-3.0000000010313346,-4.4266122433517285,-2.0405023966610395e-08,-2.275827793428648e-08,-0.9679719995414938,-1.110058126943536e-08,-1.238078005570264e-08,0.17279819237826047,0,70,255.0,255.0,255.0
112,5.6000000000000005,13.499999998122863,-3.0000000020936213,-4.4747924912225105,-1.6059075900431832e-08,-1.7911123912810634e-08,-0.9591908279733983,1.8493850391657854e-07,2.062669409147373e-07,0.17844867034556564,0,70,255.0,255.0,255.0
113,5.65,13.499999997632766,-3.0000000026402405,-4.522526617417429,-1.9111735749526125e-09,-2.131583842812829e-09,-0.9501271325069374,3.809775891025925e-07,4.2491466188517715e-07,0.1840991483128708,0,70,255.0,255.0,255.0
114,5.7,13.499999998095113,-3.0000000021245734,-4.569800495741565,2.203868300982728e-08,2.4580342275706944e-08,-0.9407809131421112,5.770166742886063e-07,6.435623828556171e-07,0.18974962628017594,0,70,255.0,255.0,255.0
115,5.75,13.5,-3.0,-4.6166,5.5790493853907824e-08,6.222465444274864e-08,-0.9311521698789198,7.730557594746203e-07,8.622101038260566e-07,0.19540010424747933,0,70,255.0,255.0,255.0
116,5.800000000000001,13.500000003451001,-2.9999999961510064,-4.662910304049941,7.615258617305063e-08,8.49350495435308e-08,-0.9211989058447876,4.142793329108016e-08,4.620570020521767e-08,0.20273045711780366,0,70,255.0,255.0,255.0
117,5.8500000000000005,13.50000000700557,-2.9999999921864986,-4.708713781957088,5.993328718301654e-08,6.684522446327116e-08,-0.9108791241671393,-6.901998928924468e-07,-7.697987034156069e-07,0.21006080998812784,0,70,255.0,255.0,255.0
118,5.9,13.500000008834638,-2.9999999901464878,-4.753992107839264,7.132596883806173e-09,7.955179201970382e-09,-0.9001928248459748,-1.421827719075974e-06,-1.5858031070364314e-06,0.21739116285845206,0,70,255.0,255.0,255.0
119,5.95,13.500000007109138,-2.9999999920709843,-4.798726955814292,-8.224948472458035e-08,-9.17350862403714e-08,-0.8891400078812942,-2.153455545259501e-06,-2.4018075106572556e-06,0.22472151572877624,0,70,255.0,255.0,255.0
120,6.0,13.5,-3.0,-4.8429,-2.0821295764214318e-07,-2.3222557186375437e-07,-0.8777206732730973,-2.8850833714430284e-06,-3.2178119142780802e-06,0.23205186859910398,0,70,255.0,255.0,255.0
121,6.050000000000001,13.499999987120693,-3.0000000143646393,-4.88649374044851,-2.8420532072559213e-07,-3.169819202398368e-07,-0.8659843770793568,-1.546111518948853e-07,-1.7244202076516784e-07,0.23739997915050928,0,70,255.0,255.0,255.0
122,6.1000000000000005,13.499999973854862,-3.0000000291603834,-4.929493980949143,-2.2367407283163425e-07,-2.4946977394027406e-07,-0.8539806753580462,2.5758610676532095e-06,2.8729278727476903e-06,0.2427480897019145,0,70,255.0,255.0,255.0
123,6.15,13.499999967028682,-3.0000000367738084,-4.971887351225521,-2.661921396027216e-08,-2.968913296506876e-08,-0.8417095681091655,5.306333287201304e-06,5.9182977662605485e-06,0.24809620025331972,0,70,255.0,255.0,255.0
124,6.2,13.499999973468334,-3.000000029591489,-5.013660481001266,3.0695925588849425e-07,3.423600026857789e-07,-0.8291710553327144,8.036805506749398e-06,8.963667659773407e-06,0.2534443108047249,0,70,255.0,255.0,255.0
125,6.25,13.5,-3.0,-5.0548,7.770613367146649e-07,8.666776330122688e-07,-0.816365137028693,1.076727772629749e-05,1.2009037553286264e-05,0.2587924213561328,0,70,255.0,255.0,255.0
126,6.300000000000001,13.500000048066221,-2.9999999463904357,-5.095291534156021,1.0606686967293176e-06,1.182992631415816e-06,-0.8032315858377849,5.770166742884603e-07,6.435623828554543e-07,0.26654962628018375,0,70,255.0,255.0,255.0
127,6.3500000000000005,13.500000097574985,-2.9999998911719663,-5.135116694246343,8.347630041435203e-07,9.310338712978248e-07,-0.7897101744006745,-9.61324437772039e-06,-1.0721912787575155e-05,0.2743068312042346,0,70,255.0,255.0,255.0
128,6.4,13.500000123050636,-2.999999862758278,-5.1742560872586525,9.93442589572822e-08,1.1080135265830437e-07,-0.7758009027173616,-1.9803505429729238e-05,-2.2087387958005762e-05,0.2820640361282854,0,70,255.0,255.0,255.0
129,6.45,13.500000099017528,-2.99999988956306,-5.212690320180641,-1.1455875388293969e-06,-1.2777049245027438e-06,-0.7615037707878459,-2.9993766481738087e-05,-3.345286312843637e-05,0.2898212410523362,0,70,255.0,255.0,255.0
130,6.5,13.5,-3.0,-5.2504,-2.9000323892165163e-06,-3.234484960185321e-06,-0.746818778612128,-4.0184027533746936e-05,-4.481833829886698e-05,0.29757844597638883,0,70,255.0,255.0,255.0
131,6.550000000000001,13.499999820614416,-3.0000002000736163,-5.287368122927406,-3.958469466191679e-06,-4.414988605423428e-06,-0.7318892795694988,-2.1534555452589564e-06,-2.401807510656642e-06,0.29960151572877386,0,70,255.0,255.0,255.0
132,6.6000000000000005,13.499999635845196,-3.0000004061517513,-5.32358724206549,-3.1153779437424464e-06,-3.474665711251024e-06,-0.7168586270392504,3.587711644322836e-05,4.0014723277552935e-05,0.30162458548115884,0,70,255.0,255.0,255.0
133,6.65,13.499999540768766,-3.000000512193079,-5.35905229973987,-3.70757821868856e-07,-4.1351627766814976e-07,-0.7017268210213828,7.390768843171566e-05,8.243125406576253e-05,0.3036476552335438,0,70,255.0,255.0,255.0
134,6.7,13.499999630461556,-3.0000004121562704,-5.393758238276168,4.2753908994290915e-06,4.768459695325197e-06,-0.6864938615158962,0.00011193826042020298,0.0001248477848539721,0.30567072498592884,0,70,255.0,255.0,255.0
135,6.75,13.5,-3.0,-5.4277,1.08230682201514e-05,1.2071262207729015e-05,-0.6711597485227903,0.00014996883240869031,0.0001672643156421817,0.30769379473831293,0,70,255.0,255.0,255.0
136,6.800000000000001,13.500000669476108,-2.9999992533150985,-5.460863974134356,1.4773209168037399e-05,1.64769617902779e-05,-0.6552112958842142,8.036805506747379e-06,8.963667659771154e-06,0.33024431080471817,0,70,255.0,255.0,255.0
137,6.8500000000000005,13.500001359044228,-2.9999984842210274,-5.493202337491699,1.1626748770826268e-05,1.2967628973706278e-05,-0.6381353174423183,-0.000133895221395193,-0.00014933698032263657,0.352794826871123,0,70,255.0,255.0,255.0
138,6.9,13.500001713874296,-2.9999980884694075,-5.524658713781866,1.3836870285181452e-06,1.5432637580142921e-06,-0.6199318131971021,-0.0002758272482971334,-0.0003076376283050443,0.37534534293752786,0,70,255.0,255.0,255.0
139,6.95,13.50000137913624,-2.9999984618118587,-5.555176726714688,-1.5955976058886973e-05,-1.779613385679804e-05,-0.6006007831485657,-0.00041775927519907384,-0.000465938276287452,0.3978958590039327,0,70,255.0,255.0,255.0
140,7.0,13.5,-3.0,-5.5847,-4.039224049138909e-05,-4.505056387073074e-05,-0.580142227296709,-0.0005596913021010143,-0.0006242389242698595,0.42044637507033755,0,70,255.0,255.0,255.0
141,7.050000000000001,13.499997501481154,-3.0000035866659904,-5.6131687805351715,-5.5134367205957926e-05,-0.00010949285855579082,-0.5583535368936418,-2.9993766481730593e-05,-0.001953452863132507,0.4511012410523368,0,70,255.0,255.0,255.0
142,7.1000000000000005,13.499994927977893,-3.000012056964138,-5.640509807967713,-4.3391617139562644e-05,-0.00024039585018398129,-0.535032103191475,0.0004997037691375436,-0.0032826668019951305,0.4817561070343355,0,70,255.0,255.0,255.0
143,7.15,13.499993603734055,-3.000028733929291,-5.666646445132668,-5.163990292203727e-06,-0.00043775953875530276,-0.5101779261902084,0.001029401304756818,-0.004611880740857754,0.5124109730163342,0,70,255.0,255.0,255.0
144,7.2,13.499994852993476,-3.000056940596296,-5.691502054865082,5.954851333611879e-05,-0.0007015839242697551,-0.4837910058898418,0.0015590988403760924,-0.005941094679720378,0.5430658389983329,0,70,255.0,255.0,255.0
145,7.25,13.5,-3.0001,-5.715,0.00015074589374540495,-0.0010318690067273384,-0.4558713422903753,0.002088796375995367,-0.007270308618583006,0.5737207049803335,0,70,255.0,255.0,255.0
146,7.300000000000001,13.500010124599275,-3.0001600000209416,-5.7370897037249575,0.00025376425965568375,-0.0013545055275704459,-0.4279825565412185,0.0020319382604157277,-0.005635152215141109,0.5418307249859236,0,70,255.0,255.0,255.0
147,7.3500000000000005,13.500025329044202,-3.000234087922421,-5.757824830637451,0.0003539397197869789,-0.001595384228241454,-0.4016882697917826,0.0019750801448360895,-0.00399999581169924,0.5099407449915141,0,70,255.0,255.0,255.0
148,7.4,13.500045471189491,-3.0003181758134296,-5.777285105687465,0.00045127227413929206,-0.0017545051087403689,-0.37698848204206725,0.0019182220292564508,-0.002364839408257373,0.47805076499710475,0,70,255.0,255.0,255.0
149,7.45,13.500070408889853,-3.0004081758029586,-5.7955502538249855,0.0005457619227126232,-0.0018318681690671903,-0.35388319329207235,0.0018613639136768124,-0.0007296830048155048,0.44616078500269535,0,70,255.0,255.0,255.0
150,7.5,13.5001,-3.0005,-5.8127,0.0006374086655069726,-0.0018274734092219188,-0.33237240354179787,0.0018045057980971713,0.0009054733986263771,0.41427080500828595,0,70,255.0,255.0,255.0
151,7.550000000000001,13.500134000121744,-3.0005900132502443,-5.828806804564999,0.0007200773285793142,-0.001768485031163343,-0.3120202369414918,0.0015022407247964466,0.0014540617237166144,0.3998158590039447,0,70,255.0,255.0,255.0
152,7.6000000000000005,13.500171755845297,-3.000676391346179,-5.843914069482487,0.0007876327379866183,-0.001682067236850257,-0.2923908176414032,0.001199975651495727,0.002002650048806842,0.3853609129996036,0,70,255.0,255.0,255.0
153,7.65,13.50021251150798,-3.0007577628169915,-5.858057932117476,0.0008400748937288865,-0.0015682200262826596,-0.27348414564153156,0.0008977105781950076,0.0025512383738970695,0.37090596699526257,0,70,255.0,255.0,255.0
154,7.7,13.500255511447108,-3.00083275619187,-5.871274529834976,0.0008774037958061186,-0.001426943399460551,-0.25530022094187704,0.0005954455048942881,0.0030998266989872973,0.3564510209909215,0,70,255.0,255.0,255.0
155,7.75,13.5003,-3.0009,-5.8836,0.000899619444218315,-0.001258237356383931,-0.2378390435424395,0.00029318043159355916,0.0036484150240775285,0.3419960749865818,0,70,255.0,255.0,255.0
156,7.800000000000001,13.500345074913753,-3.0009583469780825,-5.8950734780150515,0.0008979264260185203,-0.0010755543477751325,-0.2212804956928162,-0.00036090115958534077,0.0036589053202743032,0.320345838998341,0,70,255.0,255.0,255.0
157,7.8500000000000005,13.50038924757461,-3.0010075466928643,-5.905746091432605,0.0008635293282597813,-0.0008923468243564987,-0.20580445964260521,-0.0010149827507642292,0.0036693956164710775,0.29869560301010056,0,70,255.0,255.0,255.0
158,7.9,13.500430882778588,-3.001047572918605,-5.915671965842636,0.0007964281509420979,-0.0007086147861280262,-0.19141093539180626,-0.0016690643419431175,0.0036798859126678522,0.27704536702186017,0,70,255.0,255.0,255.0
159,7.95,13.50046834532171,-3.0010783994295633,-5.924905226835109,0.0006966228940654701,-0.0005243582330897148,-0.1780999229404193,-0.002323145933122006,0.0036903762088646265,0.25539513103361977,0,70,255.0,255.0,255.0
160,8.0,13.5005,-3.0011,-5.9335,0.000564113557629898,-0.00033957716524156466,-0.16587142228844434,-0.0029772275243008985,0.003700866505061404,0.23374489504538043,0,70,255.0,255.0,255.0
161,8.05,13.500524900223244,-3.0011117988374267,-5.941508883374801,0.0004402169673636655,-0.00012129757773532291,-0.15463378028724253,-0.00197863608634833,0.005030316995188143,0.2157607850026865,0,70,255.0,255.0,255.0
162,8.1,13.500544853856267,-3.001111021882365,-5.948978364787093,0.0003662499489950639,0.00016345453427724546,-0.14429534378817574,-0.0009800446483957974,0.006359767485314834,0.19777667495999324,0,70,255.0,255.0,255.0
163,8.15,13.500562357377675,-3.0010943455085903,-5.955953404511987,0.0003422125025240878,0.0005146791707961607,-0.1348561127912433,1.854678955677102e-05,0.007689217975441573,0.17979256491729928,0,70,255.0,255.0,255.0
164,8.200000000000001,13.50057990726605,-3.0010584460898775,-5.962478962824587,0.000368104627950741,0.0009323763318214137,-0.12631608729644556,0.0010171382275093394,0.009018668465568312,0.16180845487460538,0,70,255.0,255.0,255.0
165,8.25,13.5006,-3.001,-5.9686,0.00044392632527501957,0.0014165460173529863,-0.11867526730378279,0.0020157296654618687,0.010348118955695,0.14382434483191264,0,70,255.0,255.0,255.0
166,8.3,13.50062412419328,-3.0009160576722107,-5.97436218848575,0.0005092057045330712,0.0019447446587198172,-0.11197638315821151,0.0005954455048601587,0.010779826698977929,0.12413102099093495,0,70,255.0,255.0,255.0
167,8.35,13.50064973700032,-3.0008051657776753,-5.979814049419022,0.0005034708757610378,0.0024945286872507747,-0.10626216520468931,-0.0008248386557415011,0.011211534442260841,0.10443769714995796,0,70,255.0,255.0,255.0
168,8.4,13.50067328771072,-3.000666245047033,-5.98500481610942,0.0004267218389589188,0.003065898102945898,-0.10153261344321578,-0.0022451228163432113,0.01164324218554377,0.08474437330898024,0,70,255.0,255.0,255.0
169,8.450000000000001,13.500691225614082,-3.0004982162109277,-5.989983721866545,0.0002789585941267135,0.0036588529058051676,-0.09778772787379116,-0.003665406976944921,0.012074949928826698,0.06505104946800255,0,70,255.0,255.0,255.0
170,8.5,13.5007,-3.0003,-5.9948,6.018114126443056e-05,0.004273393095828562,-0.09502750849641553,-0.005085691137546582,0.012506657672109622,0.04535772562702545,0,70,255.0,255.0,255.0
171,8.55,13.500697003003644,-3.000070370473728,-5.9995023626822,-0.0001730397855013226,0.004918318942853009,-0.09322068707989971,-0.004243145933083413,0.013290376208867851,0.026915131033606834,0,70,255.0,255.0,255.0
172,8.6,13.500683398142453,-2.9998075150069345,-6.0041374375368175,-0.0003641334520439107,0.005602430716715342,-0.09233599539305481,-0.0034006007286202736,0.014074094745626053,0.008472536440188881,0,70,255.0,255.0,255.0
173,8.65,13.500661291779444,-2.999509474303276,-6.008751331050334,-0.0005130998583633472,0.00632572841741561,-0.09237343343588085,-0.002558055524157105,0.014857813282384284,-0.009970058153229731,0,70,255.0,255.0,255.0
174,8.700000000000001,13.50063279027762,-2.999174289066412,-6.013390149709234,-0.0006199390044596249,0.007088212044953791,-0.0933330012083778,-0.0017155103196939358,0.01564153181914251,-0.028412652746648337,0,70,255.0,255.0,255.0
175,8.75,13.5006,-2.9988,-6.0181,-0.0006846508903327417,0.007889881599329854,-0.09521469871054564,-0.000872965115230797,0.016425250355900672,-0.04685524734006585,0,70,255.0,255.0,255.0
176,8.8,13.500564663792149,-2.9983848604328767,-6.022927560785446,-0.0007290465625256676,0.008717979569866783,-0.09805286852218294,-0.0009028617724862094,0.01669866846557595,-0.06667154512542443,0,70,255.0,255.0,255.0
177,8.85,13.500527070429866,-2.997927974194589,-6.027921800433705,-0.0007749370675813623,0.009559748445887443,-0.10188185322308803,-0.0009327584297416208,0.016972086575251216,-0.08648784291078229,0,70,255.0,255.0,255.0
178,8.9,13.500487145171512,-2.9974286577398632,-6.033132259689243,-0.0008223224054998294,0.010415188227391898,-0.10670165281326116,-0.0009626550869970331,0.01724550468492649,-0.10630414069614089,0,70,255.0,255.0,255.0
179,8.950000000000001,13.500444813275434,-2.996886227523425,-6.038608479296519,-0.000871202576281067,0.011284298914380117,-0.11251226729270225,-0.0009925517442524456,0.017518922794601766,-0.12612043848149945,0,70,255.0,255.0,255.0
180,9.0,13.5004,-2.9963,-6.0444,-0.0009215775799250735,0.012167080506852068,-0.11931369666141102,-0.001022448401507857,0.017792340904277004,-0.14593673626685655,0,70,255.0,255.0,255.0
181,9.05,13.500352341827762,-2.995669387794767,-6.0505553941760155,-0.0009907739643873579,0.01305776277767955,-0.12704783883138154,-0.001745406976983482,0.017834949928821793,-0.16342895053195927,0,70,255.0,255.0,255.0
182,9.1,13.500300320138082,-2.994994188214712,-6.057119360728359,-0.0010961182776234198,0.01395057549973424,-0.13565659171460687,-0.002468365552459082,0.01787755895336658,-0.18092116479706138,0,70,255.0,255.0,255.0
183,9.15,13.500242127534522,-2.9942742947372736,-6.0641356301926965,-0.0012376105196332666,0.014845518673016202,-0.14513995531108762,-0.0031913241279347073,0.017920167977911367,-0.1984133790621641,0,70,255.0,255.0,255.0
184,9.200000000000001,13.50017595662064,-2.9935096008398894,-6.071647933104688,-0.001415250690416895,0.015742592297525403,-0.15549792962082354,-0.003914282703410332,0.017962777002456156,-0.21590559332726683,0,70,255.0,255.0,255.0
185,9.25,13.5001,-2.9927,-6.0797,-0.001629038789974297,0.01664179637326181,-0.1667305146438142,-0.004637241278885925,0.01800538602700097,-0.23339780759236883,0,70,255.0,255.0,255.0
186,9.3,13.500013168896803,-2.9918455883880566,-6.088322862510496,-0.0018358575799386847,0.017530969319415512,-0.17807577615228967,-0.003635510319689462,0.01756153181914654,-0.22041265274664368,0,70,255.0,255.0,255.0
187,9.35,13.499917249017804,-2.9909472729465647,-6.097496756652857,-0.001992589821943244,0.01839794955517646,-0.1887717799184785,-0.002633779360493035,0.01711767761129213,-0.20742749790091897,0,70,255.0,255.0,255.0
188,9.4,13.499814744690406,-2.9900061633110457,-6.107189219539972,-0.0020992355159879855,0.01924273708054472,-0.19881852594238147,-0.001632048401296572,0.0166738234034377,-0.1944423430551938,0,70,255.0,255.0,255.0
189,9.450000000000001,13.499708160242005,-2.989023369117017,-6.117367788284724,-0.0021557946620729034,0.02006533189552025,-0.20821601422399816,-0.0006303174421001092,0.016229969195583272,-0.18145718820946866,0,70,255.0,255.0,255.0
190,9.5,13.4996,-2.988,-6.128,-0.002162267260197998,0.020865734000103043,-0.2169642447633283,0.00037141351709631815,0.015786114987728833,-0.1684720333637426,0,70,255.0,255.0,255.0
191,9.55,13.499492582585027,-2.9869370586530075,-6.139059555782004,-0.0021297957158753072,0.021650359944661215,-0.22543305655945986,0.000927448255811299,0.015598922794597661,-0.1702804384815146,0,70,255.0,255.0,255.0
192,9.600000000000001,13.499387483790695,-2.985835119999028,-6.150544812660211,-0.0020695224346168667,0.022425626279562832,-0.23399228861147997,0.0014834829945262798,0.01541173060146649,-0.17208884359928664,0,70,255.0,255.0,255.0
193,9.65,13.499286093703846,-2.984694652018545,-6.162460291647417,-0.0019814474164226805,0.02319153300480786,-0.24264194091938843,0.0020395177332412405,0.015224538408335323,-0.17389724871705858,0,70,255.0,255.0,255.0
194,9.700000000000001,13.499189802411333,-2.9835161226920413,-6.174810513756416,-0.0018655706612927426,0.023948080120396356,-0.25138201348318584,0.0025955524719562216,0.015037346215204151,-0.17570565383483058,0,70,255.0,255.0,255.0
195,9.75,13.4991,-2.9823,-6.1876,-0.0017218921692270604,0.02469526762632827,-0.2602125063028714,0.003151587210671186,0.014850154022072987,-0.1775140589526023,0,70,255.0,255.0,255.0
196,9.8,13.49901730076309,-2.981046976999914,-6.20083251436149,-0.0015969595565467256,0.02541959090194152,-0.26908799760986835,0.0018457172965421385,0.014122777002456583,-0.1775055933272709,0,70,255.0,255.0,255.0
197,9.850000000000001,13.498939215819417,-2.9797586470573223,-6.214508792706299,-0.0015373204395728438,0.026107545326573948,-0.27796306563559875,0.0005398473824130908,0.01339539998284018,-0.17749712770193948,0,70,255.0,255.0,255.0
198,9.9,13.498862480494203,-2.978436828614773,-6.228628813870362,-0.0015429748183054142,0.026759130900225532,-0.2868377103800623,-0.0007660225317159108,0.012668022963223802,-0.17748866207660807,0,70,255.0,255.0,255.0
199,9.950000000000001,13.498783830112657,-2.977083340114816,-6.243192556689618,-0.0016139226927444367,0.027374347622896325,-0.2957119318432595,-0.0020718924458449587,0.011940645943607399,-0.17748019645127666,0,70,255.0,255.0,255.0
200,10.0,13.4987,-2.9757,-6.2582,-0.001750164062889907,0.02795319549458627,-0.3045857300251899,-0.003377762359973953,0.011213268923991132,-0.1774717308259448,0,70,255.0,255.0,255.0
201,10.05,13.49860861436262,-2.974287833347336,-6.273650386772036,-0.0018983660579416492,0.028543276447575438,-0.3134149530010753,-0.002550317442095642,0.012389969195575246,-0.17569718820946434,0,70,255.0,255.0,255.0
202,10.100000000000001,13.498510852931638,-2.9728446917716824,-6.289540016514595,-0.002005195807099475,0.029192192414143815,-0.32215544884613656,-0.001722872524217331,0.01356666946715936,-0.17392264559298387,0,70,255.0,255.0,255.0
203,10.15,13.498408784319341,-2.971367633522361,-6.305864452871135,-0.002070653310363383,0.02989994339429137,-0.33080721756037357,-0.0008954276063390496,0.01474336973874343,-0.17214810297650346,0,70,255.0,255.0,255.0
204,10.200000000000001,13.498304477138031,-2.969853716848694,-6.322619259485118,-0.002094738567733378,0.030666529388018154,-0.3393702591437869,-6.798268846073879e-05,0.015920070010327546,-0.170373560360023,0,70,255.0,255.0,255.0
205,10.25,13.4982,-2.9683,-6.3398,-0.0020774515792094583,0.03149195039532411,-0.3478445735963758,0.0007594622294175429,0.017096770281911478,-0.16859901774354302,0,70,255.0,255.0,255.0
206,10.3,13.498097041786426,-2.966704089610743,-6.357402738550371,-0.002041576211675002,0.03234330330775212,-0.35626019038583484,0.0006755524719606834,0.016957346215208145,-0.16802565383481463,0,70,255.0,255.0,255.0
207,10.350000000000001,13.497995772454034,-2.965065785855947,-6.375425541235328,-0.002009896332013389,0.03318768501684495,-0.36464713897985745,0.0005916427145038237,0.01681792214850481,-0.16745228992608627,0,70,255.0,255.0,255.0
208,10.4,13.497895982228428,-2.9633854372957806,-6.393866974645098,-0.00198241194022462,0.034025095522602584,-0.3730054193784434,0.0005077329570469672,0.016678498081801486,-0.1668789260173579,0,70,255.0,255.0,255.0
209,10.450000000000001,13.497797461335216,-2.961663392490409,-6.412725605369914,-0.0019591230363086927,0.03485553482502509,-0.3813350315815932,0.0004238231995901075,0.016539074015098153,-0.1663055621086295,0,70,255.0,255.0,255.0
210,10.5,13.4977,-2.9599,-6.432,-0.001940029620265609,0.035679002924112406,-0.3896359755893063,0.0003399134421332578,0.01639964994839499,-0.16573219819990026,0,70,255.0,255.0,255.0
211,10.55,13.49760321849167,-2.958095808209694,-6.451689059026488,-0.0019353290953593653,0.03648351032141289,-0.39792828545558606,-0.00015189244588351277,0.01578064594362414,-0.1659601964512861,0,70,255.0,255.0,255.0
212,10.600000000000001,13.497506057252224,-2.9562521648045292,-6.471793018544102,-0.0019552188648539605,0.037257067518474844,-0.40623199523443515,-0.0006436983339002833,0.015161641938853292,-0.16618819470267196,0,70,255.0,255.0,255.0
213,10.65,13.497407286766943,-2.954370617294517,-6.492312448548473,-0.0019996989287493928,0.03799967451529822,-0.41454710492585317,-0.0011355042219170365,0.014542637934082465,-0.1664161929540578,0,70,255.0,255.0,255.0
214,10.700000000000001,13.497305677521108,-2.9524527131896705,-6.51324791903523,-0.002068769287045665,0.03871133131188308,-0.42287361452984085,-0.0016273101099338072,0.013923633929311617,-0.16664419120544363,0,70,255.0,255.0,255.0
215,10.75,13.4972,-2.9505,-6.5346,-0.0021624299397427723,0.03939203790822938,-0.43121152404639757,-0.0021191159979505637,0.0133046299245409,-0.1668721894568308,0,70,255.0,255.0,255.0
216,10.8,13.497089284246893,-2.94851347755048,-6.556368225343685,-0.00226510740690124,0.04007465540660078,-0.43949866779181895,-0.001987982688388068,0.01400007001031489,-0.16461356036001973,0,70,255.0,255.0,255.0
217,10.850000000000001,13.496973598537066,-2.946491954925935,-6.578547984588268,-0.002361228208581582,0.04079204490926089,-0.44767288008239975,-0.0018568493788255727,0.01469551009608888,-0.16235493126320863,0,70,255.0,255.0,255.0
218,10.9,13.496853270703793,-2.9444336935261495,-6.6011336311610105,-0.0024507923447837964,0.041544206416209664,-0.45573416091813973,-0.0017257160692630818,0.015390950181862845,-0.16009630216639764,0,70,255.0,255.0,255.0
219,10.950000000000001,13.496728628580346,-2.942336954750909,-6.6241195184891675,-0.0025337998155078893,0.042331139927447164,-0.4636825102990395,-0.0015945827597005865,0.016086390267636835,-0.15783767306958654,0,70,255.0,255.0,255.0
220,11.0,13.4966,-2.9402,-6.6475,-0.0026102506207538547,0.04315284544297334,-0.4715179282250984,-0.0014634494501380886,0.016781830353410687,-0.1555790439727751,0,70,255.0,255.0,255.0
221,11.05,13.496467644520754,-2.938021481588384,-6.671270839598779,-0.002684241277018296,0.04398586805218586,-0.4793250433771338,-0.0014961768004395162,0.016539074015089656,-0.1567055621086338,0,70,255.0,255.0,255.0
222,11.100000000000001,13.496331548599507,-2.9358016154917297,-6.695433443102827,-0.0027598683007978085,0.04480675284448233,-0.487188484435962,-0.001528904150740944,0.01629631767676863,-0.15783208024449247,0,70,255.0,255.0,255.0
223,11.15,13.496191630417881,-2.9335410086008844,-6.719990626807487,-0.00283713169209239,0.045615499819862716,-0.49510825140158293,-0.0015616315010423705,0.016053561338447608,-0.15895859838035112,0,70,255.0,255.0,255.0
224,11.200000000000001,13.496047808157506,-2.9312402678066922,-6.744945207008099,-0.0029160314509020452,0.04641210897832709,-0.5030843442739971,-0.0015943588513437981,0.015810805000126577,-0.1600851165162098,0,70,255.0,255.0,255.0
225,11.25,13.4959,-2.9289,-6.7703,-0.002996567577226769,0.047196580319875364,-0.5111167630532039,-0.0016270862016452108,0.0155680486618055,-0.16121163465206578,0,70,255.0,255.0,255.0
226,11.3,13.495748137670093,-2.926520596095984,-6.796056416261206,-0.003077927485017098,0.047981872384653616,-0.5191211586996417,-0.001627310109967902,0.01584363392932429,-0.15896419120544425,0,70,255.0,255.0,255.0
227,11.350000000000001,13.49559220706491,-2.924101583107145,-6.822210243000426,-0.0031592985882235615,0.04878094371280782,-0.5270131821737485,-0.0016275340182905934,0.016119219196843077,-0.15671674775882274,0,70,255.0,255.0,255.0
228,11.4,13.49543220762468,-2.921642272070314,-6.848755861609042,-0.0032406808868461565,0.04959379430433792,-0.534792833475524,-0.0016277579266132844,0.016394804464361857,-0.1544693043122013,0,70,255.0,255.0,255.0
229,11.450000000000001,13.495268138789633,-2.9191419740223217,-6.8756876534784395,-0.003322074380884889,0.050420424159244,-0.5424601126049685,-0.0016279818349359757,0.016670389731880647,-0.1522218608655798,0,70,255.0,255.0,255.0
230,11.5,13.4951,-2.9166,-6.903,-0.003403479070339753,0.05126083327752599,-0.5500150195620819,-0.0016282057432586497,0.016945974999399593,-0.1499744174189619,0,70,255.0,255.0,255.0
231,11.55,13.49492780479888,-2.9140161340276793,-6.930688295356399,-0.003484048782913735,0.052086642409201696,-0.5575183218242962,-0.001594582759700584,0.01608639026762828,-0.15015767306960653,0,70,255.0,255.0,255.0
232,11.600000000000001,13.49475162314086,-2.911392052079689,-6.958751984895472,-0.003562937346309814,0.05286947230428884,-0.5650307868690427,-0.001560959776142518,0.015226805535856966,-0.1503409287202512,0,70,255.0,255.0,255.0
233,11.65,13.494571539083404,-2.9087299031178597,-6.987191526756345,-0.0036401447605279866,0.053609322962787385,-0.5725524146963213,-0.0015273367925844534,0.014367220804085683,-0.15052418437089585,0,70,255.0,255.0,255.0
234,11.700000000000001,13.49438763668396,-2.9060318361040207,-7.016007379078147,-0.0037156710255682587,0.054306194384697394,-0.5800832053061322,-0.0014937138090263876,0.01350763607231437,-0.15070744002154052,0,70,255.0,255.0,255.0
235,11.75,13.4942,-2.9033,-7.0452,-0.0037895161414306247,0.05496008657001882,-0.5876231586984753,-0.0014600908254683229,0.012648051340543198,-0.15089069567218516,0,70,255.0,255.0,255.0
236,11.8,13.494008643134386,-2.9005356677932985,-7.0747696023132,-0.0038658773833500763,0.055623557978535694,-0.5951575540031845,-0.0015943588513096913,0.01389080500013103,-0.1504851165161792,0,70,255.0,255.0,255.0
237,11.850000000000001,13.493813300371642,-2.8977366085740965,-7.104715417417689,-0.003948952026561596,0.056349167070031944,-0.6026716703500934,-0.0017286268771510595,0.015133558659718861,-0.15007953736017327,0,70,255.0,255.0,255.0
238,11.9,13.493613636041706,-2.894899715458246,-7.135036431365578,-0.0040387400710651805,0.057136913844507566,-0.6101655077392018,-0.0018628949029924232,0.016376312319306648,-0.14967395820416735,0,70,255.0,255.0,255.0
239,11.950000000000001,13.493409314474514,-2.892021881561597,-7.16573163020898,-0.0041352415168608376,0.05798679830196261,-0.6176390661705101,-0.0019971629288337914,0.017619065978894483,-0.14926837904816137,0,70,255.0,255.0,255.0
240,12.0,13.4932,-2.8891,-7.1968,-0.004238456363948559,0.058898820442397005,-0.6250923456440178,-0.0021314309546751203,0.01886181963848227,-0.14886279989215367,0,70,255.0,255.0,255.0
241,12.05,13.492985622663575,-2.886132394799126,-7.228240495390805,-0.004332441683687984,0.059787125676656304,-0.6325234621629615,-0.001627981834901844,0.016670389731889213,-0.1483818608655895,0,70,255.0,255.0,255.0
242,12.100000000000001,13.492767175372565,-2.883123113623923,-7.2600519454337755,-0.004401254547438745,0.06056585941558595,-0.639930531730577,-0.0011245327151285674,0.01447895982529616,-0.14790092183902528,0,70,255.0,255.0,255.0
243,12.15,13.492545916749766,-2.8800776350491564,-7.2922331477813405,-0.004444894955200842,0.06123502165918592,-0.647313554346864,-0.0006210835953553088,0.012287529918703185,-0.1474199828124611,0,70,255.0,255.0,255.0
244,12.200000000000001,13.492323105417977,-2.8770014376495934,-7.324782900085938,-0.0044633629069742746,0.061794612407456255,-0.654672530011823,-0.00011763447558203223,0.010096100012110129,-0.14693904378589692,0,70,255.0,255.0,255.0
245,12.25,13.4921,-2.8739,-7.3577,-0.004456658402759045,0.06224463166039693,-0.6620074587254537,0.0003858146441912541,0.007904670105516931,-0.1464581047593283,0,70,255.0,255.0,255.0
246,12.3,13.491877666211312,-2.870777153010195,-7.390982816123582,-0.004436355881881741,0.0626839393148423,-0.6692925973449758,0.00042628619090092967,0.00966763607229774,-0.14494744002155197,0,70,255.0,255.0,255.0
247,12.350000000000001,13.491656398138101,-2.86763013693021,-7.424628000847217,-0.004414029783668952,0.06321139526762673,-0.6765022027276092,0.0004667577376106053,0.011430602039078547,-0.1434367752837756,0,70,255.0,255.0,255.0
248,12.4,13.491436296959236,-2.864454544345127,-7.458631777509061,-0.00438968010812068,0.06382699951875015,-0.6836362748733533,0.0005072292843202794,0.013193568005859291,-0.14192611054599932,0,70,255.0,255.0,255.0
249,12.450000000000001,13.491217463853578,-2.8612459678400293,-7.492990369447272,-0.004363306855236924,0.06453075206821265,-0.690694813782209,0.0005477008310299551,0.014956533972640101,-0.14041544580822296,0,70,255.0,255.0,255.0
250,12.5,13.491,-2.858,-7.5277,-0.004334910025017684,0.06532265291601416,-0.6976778194541755,0.00058817237773965,0.01671949993942068,-0.13890478107044224,0,70,255.0,255.0,255.0
251,12.55,13.490783712491178,-2.854713393160092,-7.562757840114872,-0.004322134788794296,0.06613311706397217,-0.7046421484571399,-7.71629288041501e-05,0.01569906597889886,-0.13966837904813156,0,70,255.0,255.0,255.0
252,12.600000000000001,13.490567232075032,-2.8513875386552368,-7.598164851177363,-0.0043426263178981,0.06689255951390406,-0.7116446573589889,-0.0007424982353479502,0.01467863201837704,-0.14043197702582086,0,70,255.0,255.0,255.0
253,12.65,13.490348895413298,-2.8480249875703354,-7.6339229421824175,-0.00439638461232909,0.06760098026580987,-0.718685346159722,-0.0014078335418917266,0.013658198057855257,-0.14119557500351015,0,70,255.0,255.0,255.0
254,12.700000000000001,13.49012703916771,-2.844628290990289,-7.670034022124983,-0.004483409672087272,0.06825837931968959,-0.7257642148593398,-0.0020731688484355265,0.012637764097333437,-0.14195917298119945,0,70,255.0,255.0,255.0
255,12.75,13.4899,-2.8412,-7.7065,-0.004603701497172641,0.0688647566755432,-0.7328812634578418,-0.002738504154979289,0.011617330136811654,-0.14272277095888608,0,70,255.0,255.0,255.0
256,12.8,13.489666683823982,-2.837742074349437,-7.743321823416936,-0.004723104962936563,0.06945559242926658,-0.7399788088264617,-0.002037634475577546,0.012016100012122704,-0.14117904378590945,0,70,255.0,255.0,255.0
257,12.850000000000001,13.489428273561774,-2.834254108448844,-7.780496594443337,-0.004807464944730398,0.07006636667675549,-0.7469991678364329,-0.0013367647961758026,0.012414869887433755,-0.1396353166129328,0,70,255.0,255.0,255.0
258,12.9,13.489186521387573,-2.8307351053735323,-7.818020453761268,-0.0048567814425541445,0.07069707941800994,-0.753942340487755,-0.0006358951167740844,0.012813639762744791,-0.13809158943995622,0,70,255.0,255.0,255.0
259,12.950000000000001,13.488943179475584,-2.8271840681988136,-7.855889542052801,-0.004871054456407805,0.07134773065302996,-0.7608083267804285,6.497456262765907e-05,0.013212409638055842,-0.13654786226697957,0,70,255.0,255.0,255.0
260,13.0,13.4887,-2.8236,-7.8941,-0.00485028398629138,0.07201832038181552,-0.767597126714453,0.0007658442420293912,0.0136111795133671,-0.1350041350940021,0,70,255.0,255.0,255.0
261,13.05,13.488458352212898,-2.8199823094421594,-7.932648466217388,-0.004817445359464895,0.0726845132189654,-0.7743386162370085,0.0005477008310299663,0.013036533972627532,-0.1346554458082167,0,70,255.0,255.0,255.0
262,13.100000000000001,13.488218073677878,-2.8163320275493873,-7.971533571049298,-0.004795513903188382,0.07332197377907829,-0.781062671295275,0.0003295574200305414,0.012461888431887964,-0.1343067565224313,0,70,255.0,255.0,255.0
263,13.15,13.487978619036406,-2.8126505909355353,-8.01075444277251,-0.004784489617461841,0.0739307020621542,-0.7877692918892517,0.00011141400903112427,0.011887242891148415,-0.1339580672366459,0,70,255.0,255.0,255.0
264,13.200000000000001,13.487739442929955,-2.8089394362144553,-8.050310209663817,-0.00478437250228527,0.07451069806819313,-0.7944584780189394,-0.00010672940196830062,0.011312597350408847,-0.1336093779508605,0,70,255.0,255.0,255.0
265,13.25,13.4875,-2.8052,-8.0902,-0.00479516255765867,0.07506196179719508,-0.8011302296843377,-0.000324872812967697,0.010737951809669188,-0.13326068866507335,0,70,255.0,255.0,255.0
266,13.3,13.48725990732442,-2.8014334878819254,-8.130422711713512,-0.004807113599193861,0.07559835469487027,-0.8077707262254955,-0.0001531688484399777,0.010717764097337778,-0.13235917298123673,0,70,255.0,255.0,255.0
267,13.350000000000001,13.487019431726718,-2.7976401813536063,-8.170976321359479,-0.004810479442502668,0.07613373820692888,-0.8143661469824616,1.8535116087741604e-05,0.010697576385006367,-0.1314576572974001,0,70,255.0,255.0,255.0
268,13.4,13.486779002466807,-2.793820130884326,-8.211858575148689,-0.004805260087585088,0.0766681123333709,-0.8209164919552354,0.00019023908061545477,0.010677388672674959,-0.13055614161356352,0,70,255.0,255.0,255.0
269,13.450000000000001,13.486539048804596,-2.7899733869433634,-8.253067219291934,-0.0047914555344411225,0.07720147707419638,-0.8274217611438178,0.0003619430451431741,0.010657200960343548,-0.1296546259297269,0,70,255.0,255.0,255.0
270,13.5,13.4863,-2.7861,-8.2946,-0.004769065783070771,0.07773383242940526,-0.8338819545482082,0.0005336470096709012,0.010637013248012028,-0.12875311024588942,0,70,255.0,255.0,255.0
271,13.55,13.486062018489422,-2.78219973903014,-8.336455086928563,-0.00475410024376416,0.07828206800155686,-0.8403224788610288,6.49745625935383e-05,0.01129240963805179,-0.12886786226692895,0,70,255.0,255.0,255.0
272,13.600000000000001,13.485824199415251,-2.7782712470361854,-8.37863234351279,-0.0047625683268114165,0.07886307339321046,-0.8467687407749014,-0.00040369788448382457,0.011947806028091553,-0.12898261428796848,0,70,255.0,255.0,255.0
273,13.65,13.485585371096368,-2.774312885527161,-8.421132056632734,-0.004794470032212541,0.07947684860436602,-0.8532207402898255,-0.0008723703315611708,0.012603202418131293,-0.12909736630900798,0,70,255.0,255.0,255.0
274,13.700000000000001,13.485344361851658,-2.7703230160120906,-8.463954513168455,-0.0048498053599675345,0.08012339363502358,-0.859678477405802,-0.0013410427786385336,0.013258598808171054,-0.1292121183300475,0,70,255.0,255.0,255.0
275,13.75,13.4851,-2.7663,-8.5071,-0.004928574310076394,0.08080270848518312,-0.8661419521228302,-0.0018097152257158869,0.013913995198210571,-0.1293268703510826,0,70,255.0,255.0,255.0
276,13.8,13.484851218717889,-2.762242755997513,-8.550568140572247,-0.005024485425766682,0.08148137329889872,-0.8725713583303791,-0.002026729401895601,0.013232597350412857,-0.12784937795087215,0,70,255.0,255.0,255.0
277,13.850000000000001,13.484597370612276,-2.75815243050165,-8.59435590458937,-0.0051312472502659575,0.08212596822022442,-0.8789268899179176,-0.0022437435780753153,0.012551199502615143,-0.1263718855506617,0,70,255.0,255.0,255.0
278,13.9,13.484337913147716,-2.7540307270070308,-8.638459598320372,-0.005248859783574213,0.08273649324916023,-0.8852085468854453,-0.002460757754255022,0.011869801654817453,-0.12489439315045131,0,70,255.0,255.0,255.0
279,13.950000000000001,13.484072303788773,-2.749879349008274,-8.682875528034248,-0.005377323025691458,0.08331294838570616,-0.8914163292329627,-0.0026777719304347364,0.011188403807019739,-0.12341690075024087,0,70,255.0,255.0,255.0
280,14.0,13.4838,-2.7457,-8.7276,-0.005516636976617685,0.08385533362986221,-0.8975502369604692,-0.002894786106614443,0.010507005959222382,-0.12193940835002959,0,70,255.0,255.0,255.0
281,14.05,13.483521106639017,-2.741494036979807,-8.772629950782456,-0.005627958053155208,0.08438443880285136,-0.9036480878174636,-0.001558056954886435,0.010657200960343685,-0.12197462592974606,0,70,255.0,255.0,255.0
282,14.100000000000001,13.483238318135646,-2.7372614309572136,-8.81796483812973,-0.005672442672106331,0.0849210537258966,-0.909747699553444,-0.00022132780315842725,0.010807395961464987,-0.12200984350946253,0,70,255.0,255.0,255.0
283,14.15,13.482954976312765,-2.7330018064447166,-8.86360475008578,-0.005650090833471053,0.08546517839899787,-0.9158490721684099,0.0011154013485695337,0.010957590962586285,-0.12204506108917901,0,70,255.0,255.0,255.0
284,14.200000000000001,13.482674422993256,-2.728714787954813,-8.909549774694554,-0.005560902537249376,0.08601681282215522,-0.9219522056623618,0.0024521305002975415,0.011107785963707586,-0.12208027866889548,0,70,255.0,255.0,255.0
285,14.25,13.4824,-2.7244,-8.9558,-0.005404877783441303,0.0865759569953686,-0.9280571000352994,0.0037888596520255155,0.011257980964828773,-0.12211549624861551,0,70,255.0,255.0,255.0
286,14.3,13.482133954726047,-2.7200570960832575,-9.002355256297943,-0.005247682361607702,0.0871408714896935,-0.9341482903997649,0.002498957221318401,0.011338598808166856,-0.12153211832999648,0,70,255.0,255.0,255.0
287,14.350000000000001,13.481874156845146,-2.7156858456694946,-9.049214342891712,-0.00515498206130946,0.0877098168761853,-0.9402103118682992,0.0012090547906112867,0.01141921665150494,-0.12094874041137745,0,70,255.0,255.0,255.0
288,14.4,13.481617381601225,-2.7112860472141027,-9.096375801336508,-0.005126776882546573,0.08828279315484398,-0.9462431644409025,-8.084764009578214e-05,0.011499834494843021,-0.12036536249275843,0,70,255.0,255.0,255.0
289,14.450000000000001,13.4813604042382,-2.7068574991724743,-9.143838173187536,-0.00516306682531904,0.0888598003256696,-0.952246848117575,-0.001370750070802896,0.011580452338181104,-0.11978198457413941,0,70,255.0,255.0,255.0
290,14.5,13.4811,-2.7024,-9.1916,-0.005263851889626858,0.0894408383886621,-0.9582213628983165,-0.002660652501509958,0.011661070181519184,-0.11919860665551774,0,70,255.0,255.0,255.0
291,14.55,13.480833474456796,-2.6979135786871624,-9.239659424025776,-0.005397312500424625,0.09001207523837579,-0.9641427505834617,-0.00267777193040063,0.011188403807028496,-0.1176569007502852,0,70,255.0,255.0,255.0
292,14.600000000000001,13.480560254483766,-2.6933991863648075,-9.288012990303425,-0.005531629082666925,0.09055967876936497,-0.9699870529733452,-0.002694891359291302,0.010715737432537805,-0.11611519484505269,0,70,255.0,255.0,255.0
293,14.65,13.48028029728234,-2.6888580046988717,-9.336656844568187,-0.005666801636353754,0.09108364898162957,-0.9757542700679669,-0.002712010788181973,0.010243071058047134,-0.11457348893982021,0,70,255.0,255.0,255.0
294,14.700000000000001,13.479993560053941,-2.68429121535529,-9.385587132555301,-0.005802830161485121,0.09158398587516967,-0.9814444018673272,-0.002729130217072645,0.009770404683556446,-0.11303178303458769,0,70,255.0,255.0,255.0
295,14.75,13.4797,-2.6797,-9.4348,-0.005939714658061017,0.09206068944998522,-0.9870574483714256,-0.002746249645963296,0.009297738309066217,-0.11149007712935877,0,70,255.0,255.0,255.0
296,14.8,13.479400147446766,-2.6750853891680917,-9.484292647598958,-0.006043067636702438,0.09252282755680426,-0.9926567072663828,-0.0013878694996935102,0.00918778596369507,-0.11248027866892124,0,70,255.0,255.0,255.0
297,14.850000000000001,13.479096825219786,-2.6704478088712738,-9.534066495894589,-0.00607850160803037,0.09297946804635474,-0.9983054762383179,-2.948935342372448e-05,0.009077833618323924,-0.11347048020848371,0,70,255.0,255.0,255.0
298,14.9,13.478793429269418,-2.6657875339904105,-9.584124020390739,-0.006046016572044814,0.09343061091863665,-1.004003755287231,0.001328890792846013,0.008967881272952782,-0.11446068174804616,0,70,255.0,255.0,255.0
299,14.950000000000001,13.478493355546036,-2.6611048394063648,-9.63446769659126,-0.005945612528745766,0.09387625617365002,-1.0097515444131224,0.0026872709391157984,0.008857928927581636,-0.11545088328760864,0,70,255.0,255.0,255.0
300,15.0,13.4782,-2.6564,-9.6851,-0.005777289478133237,0.09431640381139482,-1.0155488436159918,0.00404565108538555,0.008747976582210826,-0.11644108482717108,0,70,255.0,255.0,255.0
301,15.05,13.477915535756134,-2.6516728646404712,-9.736021985578397,-0.005614416952768039,0.09477661453440495,-1.0213104203510242,0.0024692499292222735,0.009660452338194094,-0.11402198457411747,0,70,255.0,255.0,255.0
302,15.100000000000001,13.47763724463709,-2.646921578150096,-9.787229026118228,-0.005530364485211005,0.09528244904521424,-1.0269510420734038,0.0008928487730589974,0.010572928094177363,-0.11160288432106384,0,70,255.0,255.0,255.0
303,15.15,13.477361185639984,-2.642143859339486,-9.83871507386886,-0.005525132075462136,0.09583390734382267,-1.0324707087831306,-0.0006835523831042233,0.011485403850160598,-0.10918378406801031,0,70,255.0,255.0,255.0
304,15.200000000000001,13.477083417761918,-2.6373374270192502,-9.890474081079663,-0.0055987197235214305,0.09643098943023029,-1.0378694204802046,-0.0022599535392675,0.012397879606143867,-0.10676468381495668,0,70,255.0,255.0,255.0
305,15.25,13.4768,-2.6325,-9.9425,-0.005751127429388883,0.09707369530443705,-1.0431471771646261,-0.0038363546954307062,0.013310355362127213,-0.10434558356190671,0,70,255.0,255.0,255.0
306,15.3,13.476508109528694,-2.627630352270024,-9.994788210087464,-0.005915264552202321,0.09769871430557904,-1.0483896113295372,-0.0027291302171067204,0.01169040468355218,-0.10535178303454026,0,70,255.0,255.0,255.0
307,15.350000000000001,13.476209396231846,-2.6227314785283404,-10.047339799632516,-0.006024040451099558,0.09824273577279227,-1.0536823554680803,-0.001621905738782734,0.010070454004977147,-0.10635798250717382,0,70,255.0,255.0,255.0
308,15.4,13.475906628170652,-2.617807428651644,-10.100157284133832,-0.0060774551260805955,0.09870575970607674,-1.0590254095802547,-0.0005146812604587873,0.00845050332640217,-0.10736418197980734,0,70,255.0,255.0,255.0
309,15.450000000000001,13.475602573406302,-2.6128622525166323,-10.153243179090103,-0.006075508577145435,0.0990877861054325,-1.064418773666061,0.000592543217865199,0.006830552647827136,-0.10837038145244089,0,70,255.0,255.0,255.0
310,15.5,13.4753,-2.6079,-10.2066,-0.006018200804294077,0.09938881497085947,-1.0698624477254988,0.0016997676961891528,0.005210601969251938,-0.10937658092507441,0,70,255.0,255.0,255.0
311,15.55,13.475000826129092,-2.6029233262794294,-10.260229174071748,-0.005956524838412194,0.09969252824328,-1.0752911343308165,0.0007672709390861266,0.006937928927569173,-0.10777088328762578,0,70,255.0,255.0,255.0
312,15.600000000000001,13.474703570435528,-2.59792930773654,-10.31412777535172,-0.005941473710385463,0.10008260786361639,-1.0806395360542616,-0.00016522581801689962,0.008665255885886408,-0.10616518565017716,0,70,255.0,255.0,255.0
313,15.65,13.474405901677422,-2.5929136260539356,-10.36829178959581,-0.005973047420213882,0.10055905383186864,-1.085907652895834,-0.0010977225751198924,0.01039258284420358,-0.1045594880127286,0,70,255.0,255.0,255.0
314,15.700000000000001,13.474105488612878,-2.587871962914221,-10.422717202559937,-0.006051245967897454,0.10112186614803675,-1.0910954848555343,-0.0020302193322229187,0.012119909802520815,-0.10295379037527998,0,70,255.0,255.0,255.0
315,15.75,13.4738,-2.5828,-10.4774,-0.006176069353436173,0.10177104481212072,-1.0962030319333618,-0.002962716089325905,0.013847236760837878,-0.10134809273782963,0,70,255.0,255.0,255.0
316,15.8,13.473487785954946,-2.5776947426122576,-10.53233669362554,-0.006306636094150156,0.1024271727212957,-1.1012618513471826,-0.002259953539233339,0.01239787960616079,-0.10100468381500605,0,70,255.0,255.0,255.0
317,15.850000000000001,13.473169922026045,-2.5725584905254992,-10.58752589896062,-0.006402064707359509,0.10301083277273682,-1.1063035003148627,-0.001557190989140773,0.010948522451483703,-0.10066127489218245,0,70,255.0,255.0,255.0
318,15.9,13.472848165119668,-2.5673948671326126,-10.642966757482924,-0.006462355193064234,0.10352202496644407,-1.111327978836401,-0.0008544284390482318,0.009499165296806666,-0.10031786596935888,0,70,255.0,255.0,255.0
319,15.950000000000001,13.472524272142195,-2.5622074958264838,-10.698658410670154,-0.006487507551264332,0.10396074930241749,-1.1163352869117982,-0.00015166588895566564,0.008049808142129581,-0.09997445704653528,0,70,255.0,255.0,255.0
320,16.0,13.4722,-2.557,-10.7546,-0.006477521781959802,0.10432700578065703,-1.1213254245410544,0.0005510966611368753,0.006600450987452766,-0.09963104812371171,0,70,255.0,255.0,255.0
321,16.05,13.471876830051128,-2.551775303271541,-10.810790451426096,-0.006448930784985603,0.10466278087153903,-1.126285460280458,0.0005925432178310755,0.006830552647827196,-0.09877038145242947,0,70,255.0,255.0,255.0
322,16.1,13.4715551414603,-2.546533530161462,-10.867227828805822,-0.006418267460176693,0.10501006104543975,-1.1312024626862975,0.0006339897745252757,0.007060654308201626,-0.09790971478114725,0,70,255.0,255.0,255.0
323,16.150000000000002,13.471235037843908,-2.5412741054156127,-10.9239099804725,-0.006385531807533074,0.10536884630235921,-1.136076431758573,0.000675436331219476,0.007290755968576056,-0.09704904810986502,0,70,255.0,255.0,255.0
324,16.2,13.470916622818343,-2.535996453779843,-10.98083475475945,-0.006350723827054747,0.10573913664229734,-1.1409073674972838,0.0007168828879136732,0.0075208576289504695,-0.09618838143858285,0,70,255.0,255.0,255.0
325,16.25,13.4706,-2.5307,-11.038,-0.006313843518741708,0.10612093206525425,-1.1456952699024308,0.0007583294446078873,0.00775095928932501,-0.09532771476729529,0,70,255.0,255.0,255.0
326,16.3,13.470284893840544,-2.5253840443015787,-11.095403900670085,-0.006297640765931342,0.1065217037925502,-1.1504603075309947,-0.00011021933219327576,0.008279909802512638,-0.09527379037526096,0,70,255.0,255.0,255.0
327,16.35,13.469969512132758,-2.5200473888286505,-11.153045985816108,-0.006324865451961036,0.10694892304550553,-1.155222648939957,-0.0009787681089944388,0.008808860315700266,-0.09521986598322663,0,70,255.0,255.0,255.0
328,16.400000000000002,13.4696516835047,-2.5146887112049336,-11.21092612062709,-0.006395517576830788,0.10740258982412022,-1.1599822941293176,-0.0018473168857956021,0.009337810828887894,-0.0951659415911923,0,70,255.0,255.0,255.0
329,16.45,13.469329236584427,-2.509306689054144,-11.269044170292045,-0.006509597140540589,0.10788270412839429,-1.164739243099076,-0.0027158656625967032,0.009866761342075484,-0.09511201719915796,0,70,255.0,255.0,255.0
330,16.5,13.469,-2.5039,-11.3274,-0.006667104143090455,0.10838926595832776,-1.169493495849233,-0.0035844144393978386,0.010395711855262668,-0.0950580928071183,0,70,255.0,255.0,255.0
331,16.55,13.468662794586693,-2.4984677195221447,-11.385993145893572,-0.00680850615129833,0.10889840395826246,-1.174225309595574,-0.00207166588891707,0.009969808142125018,-0.0942144570465146,0,70,255.0,255.0,255.0
332,16.6,13.46832041000866,-2.493010514523934,-11.444821827929758,-0.006874270731982165,0.10938624677254027,-1.1789149415538844,-0.0005589173384363015,0.00954390442898737,-0.0933708212859109,0,70,255.0,255.0,255.0
333,16.650000000000002,13.467976628137286,-2.487529449764651,-11.50388393701916,-0.006864397885141961,0.1098527944011612,-1.1835623917241649,0.0009538312120444667,0.009118000715849721,-0.0925271855253072,0,70,255.0,255.0,255.0
334,16.7,13.467635230843939,-2.4820255900035795,-11.563177364072374,-0.006778887610777726,0.11029804684412524,-1.188167660106415,0.002466579762525128,0.008692097002712102,-0.09168354976470355,0,70,255.0,255.0,255.0
335,16.75,13.4673,-2.4765,-11.6227,-0.006617739908889447,0.11072200410143242,-1.1927307467006352,0.003979328313005931,0.008266193289574786,-0.0908399140041034,0,70,255.0,255.0,255.0
336,16.8,13.466973527812687,-2.470953877609842,-11.682449915755637,-0.00645233462886742,0.11111668037439577,-1.1972624540867027,0.0026368828878750835,0.007520857628959255,-0.09042838143859555,0,70,255.0,255.0,255.0
337,16.85,13.466653647832592,-2.465388953075611,-11.742425902464868,-0.006354051620101935,0.11147408986432834,-1.2017735848444948,0.0012944374627442364,0.006775521968343724,-0.09001684887308768,0,70,255.0,255.0,255.0
338,16.900000000000002,13.466337003946155,-2.4598070897364592,-11.802626931296283,-0.006322890882592995,0.11179423257123015,-1.2062641389740116,-4.800796238661059e-05,0.0060301863077281935,-0.08960531630757983,0,70,255.0,255.0,255.0
339,16.95,13.46602024003981,-2.454210150931539,-11.863051973418461,-0.006358852416340591,0.11207710849510116,-1.2107341164752525,-0.0013904533875173626,0.005284850647112715,-0.08919378374207199,0,70,255.0,255.0,255.0
340,17.0,13.4657,-2.4486,-11.9237,-0.006461936221344731,0.11232271763594143,-1.2151835173482188,-0.0027328988126481893,0.004539514986496851,-0.08878225117656946,0,70,255.0,255.0,255.0
341,17.05,13.465373494162563,-2.442977570038488,-11.984569591083893,-0.006598155333225855,0.11258687454415574,-1.2195888740576124,-0.002715865662596707,0.0060267613420754915,-0.087432017199173,0,70,255.0,255.0,255.0
342,17.1,13.465040198660969,-2.4373400731736212,-12.045657762210782,-0.006733522787604406,0.11292539377014899,-1.2239267190681362,-0.002698832512545225,0.007514007697654132,-0.08608178322177654,0,70,255.0,255.0,255.0
343,17.150000000000002,13.464700156078093,-2.43168379128951,-12.106961137795727,-0.0068680385844803815,0.11333827531392117,-1.2281970523797903,-0.002681799362493743,0.009001254053232773,-0.08473154924438007,0,70,255.0,255.0,255.0
344,17.2,13.464353408996812,-2.426005006270266,-12.168476342253777,-0.007001702723853775,0.11382551917547223,-1.2323998739925741,-0.0026647662124422615,0.010488500408811309,-0.08338131526698371,0,70,255.0,255.0,255.0
345,17.25,13.464,-2.4203,-12.2302,-0.0071345152057246015,0.11438712535480226,-1.2365351839064884,-0.0026477330623907447,0.011975746764389616,-0.08203108128958725,0,70,255.0,255.0,255.0
346,17.3,13.463640495537064,-2.414566242236205,-12.292129319908803,-0.007235044038221871,0.1149518214489797,-1.2406380496828453,-0.0013734202374999656,0.010612097002707802,-0.08208354976469216,0,70,255.0,255.0,255.0
347,17.35,13.463277557523531,-2.408805954229903,-12.354263848692014,-0.0072718572294746,0.11544833505507306,-1.2447435388829577,-9.910741260918659e-05,0.009248447241025987,-0.08213601823979709,0,70,255.0,255.0,255.0
348,17.400000000000002,13.46291437174147,-2.403022545105499,-12.416603717520829,-0.00724495477948279,0.11587666617308232,-1.2488516515068253,0.0011752054122815925,0.007884797479344171,-0.082188486714902,0,70,255.0,255.0,255.0
349,17.45,13.462554123972938,-2.3972194239873965,-12.479149057566424,-0.0071543366882464475,0.11623681480300747,-1.2529623875544478,0.0024495182371722813,0.0065211477176624535,-0.08224095519000692,0,70,255.0,255.0,255.0
350,17.5,13.4622,-2.3914,-12.5419,-0.007000002955765563,0.11652878094484853,-1.2570757470258258,0.003723831062063053,0.005157497955980528,-0.08229342366510828,0,70,255.0,255.0,255.0
351,17.55,13.461854123689186,-2.3855670610166912,-12.604856329280906,-0.0068456685139012905,0.11678983965992608,-1.2611709272110057,0.0024495466125077636,0.005284850647121255,-0.08151378374209164,0,70,255.0,255.0,255.0
352,17.6,13.4615143712449,-2.3797209099067644,-12.668016443021168,-0.006755048294514783,0.11705726600956066,-1.2652271254000351,0.0011752621629524743,0.005412203338261982,-0.08073414381907502,0,70,255.0,255.0,255.0
353,17.650000000000002,13.461177556956024,-2.3738612282884923,-12.731378392120975,-0.006728142297606042,0.11733105999375229,-1.2692443415929133,-9.902228660281509e-05,0.005539556029402709,-0.07995450389605839,0,70,255.0,255.0,255.0
354,17.7,13.460840495111434,-2.367987697780147,-12.794940227480518,-0.006764950523175059,0.11761122161250091,-1.273222575789641,-0.0013733067361580142,0.005666908720543427,-0.07917486397304183,0,70,255.0,255.0,255.0
355,17.75,13.4605,-2.3621,-12.8587,-0.006865472971221844,0.11789775086580662,-1.2771618279902175,-0.002647591185713262,0.005794261411684154,-0.07839522405002519,0,70,255.0,255.0,255.0
356,17.8,13.460153409706196,-2.3561975136970292,-12.922655762967581,-0.00699828190617488,0.1182088199113188,-1.2810622414731423,-0.0026647662124081196,0.006648500408803061,-0.07762131526696371,0,70,255.0,255.0,255.0
357,17.85,13.459800157496861,-2.350278406143037,-12.986805579223331,-0.00713194959246266,0.11856260090668692,-1.2849239595169142,-0.002681941239102977,0.0075027394059219675,-0.07684740648390223,0,70,255.0,255.0,255.0
358,17.900000000000002,13.459440200434427,-2.344340541740529,-13.05114751399529,-0.007266476030085183,0.118959093851911,-1.2887469821215327,-0.0026991162657978344,0.008356978403040874,-0.07607349770084074,0,70,255.0,255.0,255.0
359,17.95,13.459073495581329,-2.3383817848920154,-13.115679632511496,-0.007401861219042438,0.119398298746991,-1.2925313092869979,-0.0027162912924926907,0.00921121740015972,-0.07529958891777931,0,70,255.0,255.0,255.0
360,18.0,13.4587,-2.3324,-13.1804,-0.007538105159334446,0.11988021559192696,-1.2962769410133106,-0.0027334663191875483,0.010065456397279071,-0.07452568013471961,0,70,255.0,255.0,255.0
361,18.05,13.458320237486033,-2.32639408419519,-13.245307018848775,-0.00764120386138631,0.12034288069480041,-1.3000041068964283,-0.0013904817628869598,0.008441147717658004,-0.07456095518998893,0,70,255.0,255.0,255.0
362,18.1,13.457936998767659,-2.320367065521086,-13.310400440085525,-0.007677153335623143,0.12072433036369278,-1.3037330365323097,-4.749720658637135e-05,0.0068168390380369355,-0.07459623024525826,0,70,255.0,255.0,255.0
363,18.150000000000002,13.457553641306268,-2.3143230047493866,-13.375680351897888,-0.0076459535820449466,0.12102456459860411,-1.3074637299209542,0.0012954873497142173,0.005192530358415867,-0.07463150530052758,0,70,255.0,255.0,255.0
364,18.2,13.457173522563252,-2.308265962651792,-13.441146842473497,-0.007547604600651729,0.12124358339953437,-1.3111961870623623,0.00263847190601471,0.003568221678794915,-0.07466678035579691,0,70,255.0,255.0,255.0
365,18.25,13.4568,-2.3022,-13.5068,-0.007382106391443477,0.12138138676648356,-1.3149304079565336,0.003981456462315298,0.0019439129991735138,-0.0747020554110609,0,70,255.0,255.0,255.0
366,18.3,13.456435240349673,-2.2961277495222094,-13.572639361637325,-0.007220902648288913,0.1215236573094766,-1.3186333309411364,0.0024666932638671194,0.0037469087205477735,-0.07341486397305379,0,70,255.0,255.0,255.0
367,18.35,13.456076647432505,-2.2900461317726175,-13.638662260434584,-0.007135437065056762,0.12175607763853835,-1.3222718943538392,0.0009519300654189404,0.005549904441922033,-0.07212767253504669,0,70,255.0,255.0,255.0
368,18.400000000000002,13.455720434340503,-2.2839506392619215,-13.70486547841318,-0.007125709641747018,0.12207864775366882,-1.3258460981946412,-0.0005628331330292382,0.007352900163296293,-0.07084048109703958,0,70,255.0,255.0,255.0
369,18.45,13.455362814165664,-2.2778367645008166,-13.771245797594514,-0.007191720378359679,0.12249136765486796,-1.329355942463543,-0.00207759633147731,0.009155895884670424,-0.06955328965903257,0,70,255.0,255.0,255.0
370,18.5,13.455,-2.2717,-13.8378,-0.007333469274894751,0.12299423734213584,-1.3328014271605442,-0.003592359529925461,0.010958891606044685,-0.0682660982210237,0,70,255.0,255.0,255.0
371,18.55,13.454629201115274,-2.2655373177159714,-13.904525134601927,-0.007491185545455206,0.12349849006729118,-1.3361985693390148,-0.0027162912924926673,0.009211217400168479,-0.06761958891780039,0,70,255.0,255.0,255.0
372,18.6,13.45425161150232,-2.2593516073884428,-13.971419318176151,-0.0076050984041440214,0.1239153590821527,-1.3395633860523242,-0.001840223055059874,0.007463543194292271,-0.06697307961457709,0,70,255.0,255.0,255.0
373,18.650000000000002,13.453869421331724,-2.2531472382029274,-14.03848093444941,-0.0076752078509611955,0.12424484438672041,-1.3428958773004727,-0.0009641548176270802,0.005715868988416065,-0.06632657031135378,0,70,255.0,255.0,255.0
374,18.7,13.453484820774086,-2.246928579344942,-14.105708367148443,-0.007701513885906731,0.12448694598099432,-1.3461960430834596,-8.80865801943494e-05,0.003968194782539983,-0.06568006100813052,0,70,255.0,255.0,255.0
375,18.75,13.4531,-2.2407,-14.1731,-0.007684016508980628,0.1246416638649744,-1.3494638834012855,0.0007879816572384443,0.002220520576663776,-0.06503355170490366,0,70,255.0,255.0,255.0
376,18.8,13.452716755189225,-2.2344645796139044,-14.240654499954967,-0.007646355169899186,0.12478638242136064,-1.3527163917028027,0.0007184719060191972,0.0035682216787861843,-0.06506678035578091,0,70,255.0,255.0,255.0
377,18.85,13.452335306558217,-2.228220238673612,-14.308371666860824,-0.0076121693183787064,0.12499848603285303,-1.3559705614368638,0.0006489621547999502,0.004915922780908593,-0.06510000900665816,0,70,255.0,255.0,255.0
378,18.900000000000002,13.451955480332595,-2.221963607926367,-14.376251583789198,-0.00758145895441919,0.1252779746994515,-1.3592263926034684,0.0005794524035807032,0.006263623883031002,-0.06513323765753541,0,70,255.0,255.0,255.0
379,18.95,13.451577102737982,-2.2156913181194153,-14.444294333811712,-0.007554224078020638,0.12562484842115612,-1.3624838852026173,0.0005099426523614611,0.007611324985153315,-0.06516646630841265,0,70,255.0,255.0,255.0
380,19.0,13.4512,-2.2094,-14.5125,-0.0075304646891830454,0.12603910719796685,-1.3657430392343097,0.00044043290114221395,0.008959026087275834,-0.06519969495929345,0,70,255.0,255.0,255.0
381,19.05,13.45082377812782,-2.20308756382841,-14.580868065578207,-0.007523393774941535,0.1264439802472654,-1.3689678638497682,-0.00015759633148180346,0.007235895884666352,-0.06379328965904632,0,70,255.0,255.0,255.0
382,19.1,13.450447162264812,-2.196757037917109,-14.64939561438056,-0.007546224322331226,0.1267626967864335,-1.3721223682002146,-0.0007556255641058209,0.00551276568205687,-0.06238688435879918,0,70,255.0,255.0,255.0
383,19.150000000000002,13.450068657337894,-2.190412730091602,-14.718079130393814,-0.007598956331352118,0.1269952568154711,-1.3752065522856483,-0.001353654796729838,0.0037896354794473884,-0.06098047905855204,0,70,255.0,255.0,255.0
384,19.200000000000003,13.449686768273985,-2.184058948177397,-14.78691509760471,-0.007681589802004212,0.12714166033437824,-1.3782204161060698,-0.0019516840293538557,0.0020665052768379065,-0.05957407375830491,0,70,255.0,255.0,255.0
385,19.25,13.4493,-2.1777,-14.8559,-0.0077941247342874975,0.1272019073431549,-1.3811639596614789,-0.0025497132619778443,0.0003433750742272146,-0.05816766845805965,0,70,255.0,255.0,255.0
386,19.3,13.448907332299491,-2.1713387650724547,-14.92503083773221,-0.007908069730341692,0.12726169658957437,-1.3840681528981333,-0.0020080865801898598,0.002048194782552428,-0.05800006100811181,0,70,255.0,255.0,255.0
387,19.35,13.448509644382533,-2.164972409657952,-14.99430667561694,-0.007994933392306487,0.12740672682141013,-1.38696396576229,-0.0014664598984018755,0.0037530144908776417,-0.05783245355816397,0,70,255.0,255.0,255.0
388,19.400000000000002,13.44810829031583,-2.158596671707223,-15.063727094635565,-0.008054715720181882,0.12763699803866216,-1.3898513982539498,-0.0009248332166138912,0.005457834199202855,-0.05766484610821613,0,70,255.0,255.0,255.0
389,19.450000000000003,13.447704624166084,-2.152207289170996,-15.133291675769463,-0.008087416713967876,0.12795251024133045,-1.3927304503731117,-0.00038320653482590674,0.007162653907528069,-0.05749723865826829,0,70,255.0,255.0,255.0
390,19.5,13.4473,-2.1458,-15.203,-0.008093036373664472,0.12835326342941492,-1.3956011221197764,0.00015842014696207385,0.008867473615851607,-0.05732963120831336,0,70,255.0,255.0,255.0
391,19.55,13.446895692674211,-2.139371775881772,-15.272851783492959,-0.008076327303681383,0.12876523339443982,-1.3984715245576942,0.0005099426523614775,0.0076113249851446785,-0.05748646630839467,0,70,255.0,255.0,255.0
392,19.6,13.446492660205054,-2.1329245234510816,-15.342847283151688,-0.008042042108428323,0.1291143959279294,-1.4013497687506158,0.0008614651577608811,0.0063551763544377506,-0.05764330140847598,0,70,255.0,255.0,255.0
393,19.650000000000002,13.446091781398788,-2.126461383079505,-15.412986891063937,-0.007990180787905293,0.1294007510298836,-1.4042358546985418,0.001212987663160285,0.005099027723730823,-0.057800136508557295,0,70,255.0,255.0,255.0
394,19.700000000000003,13.445693935061684,-2.1199854951386183,-15.483270999317462,-0.007920743342112294,0.12962429870030248,-1.4071297824014717,0.0015645101685596884,0.0038428790930238937,-0.05795697160863861,0,70,255.0,255.0,255.0
395,19.75,13.4453,-2.1135,-15.5537,-0.00783372977104933,0.12978503893918597,-1.4100315518594058,0.0019160326739590672,0.002586730462315945,-0.05811380670871458,0,70,255.0,255.0,255.0
396,19.8,13.444909897003665,-2.107006931400457,-15.62427322829596,-0.007786621054934311,0.1299493698326647,-1.4128777488710824,-3.168402935833643e-05,0.003986505276833016,-0.05573407375834801,0,70,255.0,255.0,255.0
397,19.85,13.444519714797254,-2.1005038965377216,-15.694985791776316,-0.007836898173985163,0.13018368946686926,-1.4156049592352407,-0.00197940073267574,0.005386280091350088,-0.053354340807981446,0,70,255.0,255.0,255.0
398,19.900000000000002,13.444124584089012,-2.093987395974758,-15.765831741108695,-0.007984561128201888,0.1304879978417997,-1.4182131829518807,-0.003927117435993143,0.0067860549058671605,-0.05097460785761488,0,70,255.0,255.0,255.0
399,19.950000000000003,13.44371963558718,-2.0874539302745294,-15.836805126960716,-0.008229609917584483,0.13086229495745602,-1.420702420021002,-0.005874834139310547,0.008185829720384232,-0.048594874907248314,0,70,255.0,255.0,255.0
400,20.0,13.4433,-2.0809,-15.9079,-0.008572044542132923,0.1313065808138381,-1.4230726704426053,-0.007822550842627785,0.00958560453489965,-0.04621514195687482,0,70,255.0,255.0,255.0
401,20.05,13.442862319311136,-2.074323698516401,-15.979112103323203,-0.008921188476568934,0.13172528727489918,-1.4254254799579835,-0.00614320653481246,0.0071626539075439685,-0.047897238658251975,0,70,255.0,255.0,255.0
402,20.1,13.442409280605935,-2.0677294903980328,-16.050443949743048,-0.009186365195614178,0.13202284620459248,-1.4278623943084305,-0.004463862226997136,0.004739703280188288,-0.049579335359629134,0,70,255.0,255.0,255.0
403,20.150000000000002,13.441945082245162,-2.0611234330214643,-16.1218997445013,-0.009367574699268653,0.13219925760291804,-1.4303834134939466,-0.0027845179191818116,0.0023167526528326066,-0.05126143206100629,0,70,255.0,255.0,255.0
404,20.200000000000003,13.441473922589596,-2.0545115837632637,-16.1934836928397,-0.009464816987532362,0.13225452146987576,-1.4329885375145313,-0.001105173611366488,-0.00010619797452307393,-0.052943528762383445,0,70,255.0,255.0,255.0
405,20.25,13.441,-2.0479,-16.2652,-0.009478092060405308,0.1321886378054657,-1.4356777663701845,0.0005741706964487586,-0.002529148601879694,-0.054625625463751604,0,70,255.0,255.0,255.0
406,20.3,13.440526425751798,-2.0412926745339393,-16.337051158411235,-0.00947262503878169,0.13212548106774388,-1.438348331296993,-0.0003554898315040626,2.879093006794009e-06,-0.052196971608581645,0,70,255.0,255.0,255.0
407,20.35,13.440051962779016,-2.034685341870146,-16.40903280925149,-0.009513641043555714,0.13218892571476637,-1.4408974635310428,-0.0012851503594568838,0.002534906787893282,-0.04976831775341168,0,70,255.0,255.0,255.0
408,20.400000000000002,13.439574286930336,-2.0280716719393834,-16.481138880886128,-0.00960114007472738,0.1323789717465332,-1.443325163072334,-0.0022148108874097054,0.00506693448277977,-0.04733966389824172,0,70,255.0,255.0,255.0
409,20.450000000000003,13.439091074054435,-2.0214453346724137,-16.55336330168051,-0.00973512213229669,0.13269561916304437,-1.445631429920867,-0.0031444714153625263,0.0075989621776662575,-0.044911010043071756,0,70,255.0,255.0,255.0
410,20.5,13.4386,-2.0148,-16.6257,-0.009915587216263623,0.1331388679642998,-1.4478162640766412,-0.004074131943315254,0.010130989872551677,-0.04248235618790197,0,70,255.0,255.0,255.0
411,20.55,13.438099177681675,-2.0081312033478413,-16.698144063031865,-0.010116311368327675,0.13359678845412318,-1.449949194854022,-0.003954834139246684,0.008185829720383236,-0.042834874907329026,0,70,255.0,255.0,255.0
412,20.6,13.437588468278003,-2.001441942121381,-16.770695213251003,-0.010311070630188296,0.13395745093633815,-1.4520997515673741,-0.0038355363351781128,0.006240669568214796,-0.04318739362675609,0,70,255.0,255.0,255.0
413,20.650000000000002,13.437068170033493,-1.9947370792210004,-16.843354331954203,-0.010499865001845491,0.13422085541094467,-1.4542679342166978,-0.0037162385311095424,0.0042955094160463565,-0.043539912346183145,0,70,255.0,255.0,255.0
414,20.700000000000003,13.436538581192655,-1.98802147754708,-16.91612230043827,-0.010682694483299258,0.13438700187794278,-1.4564537428019926,-0.003596940727040972,0.002350349263877916,-0.0438924310656102,0,70,255.0,255.0,255.0
415,20.75,13.436,-1.9813,-16.989,-0.010859559074549581,0.13445589033733243,-1.4586571773232586,-0.00347764292297241,0.0004051891117085038,-0.04424494978503368,0,70,255.0,255.0,255.0
416,20.8,13.435452863521498,-1.9745761120746963,-17.061987789461302,-0.011022129487907947,0.13451136511576237,-1.4608468892869435,-0.0030251736113620993,0.001813802025488951,-0.043343528762365566,0,70,255.0,255.0,255.0
417,20.85,13.434898164108969,-1.9678476896443287,-17.13508393774451,-0.011162076435685795,0.13463727053988134,-1.4629915301994953,-0.002572704299751789,0.003222414939269398,-0.04244210773969745,0,70,255.0,255.0,255.0
418,20.900000000000002,13.434337032935689,-1.9611112111766131,-17.20828619129707,-0.01127939991788313,0.13483360660968932,-1.4650911000609135,-0.0021202349881414787,0.004631027853049845,-0.04154068671702933,0,70,255.0,255.0,255.0
419,20.950000000000003,13.43377060117494,-1.954363155139265,-17.28159229656642,-0.011374099934499947,0.13510037332518632,-1.467145598871198,-0.001667765676531168,0.006039640766830293,-0.04063926569436122,0,70,255.0,255.0,255.0
420,21.0,13.4332,-1.9476,-17.355,-0.011446176485536246,0.13543757068637233,-1.4691550266303495,-0.0012152963649209036,0.007448253680610639,-0.039737844671689615,0,70,255.0,255.0,255.0
421,21.05,13.432626168232328,-1.9408195483533734,-17.428507179122928,-0.011507170680043442,0.13576575108282904,-1.4711272479982171,-0.0012244714153669346,0.0056789621776576395,-0.03915101004301639,0,70,255.0,255.0,255.0
422,21.1,13.43204927528612,-1.9340248993013027,-17.502112235770966,-0.01156862362707294,0.13600546690413812,-1.4730701276346512,-0.0012336464658129656,0.00390967067470464,-0.03856417541434316,0,70,255.0,255.0,255.0
423,21.150000000000002,13.431469298223746,-1.9272204760725453,-17.575813702857538,-0.011630535326624742,0.1361567181502995,-1.4749836655396515,-0.0012428215162589966,0.002140379171751641,-0.037977340785669944,0,70,255.0,255.0,255.0
424,21.200000000000003,13.43088621410758,-1.9204107018958585,-17.649610113296077,-0.011692905778698841,0.13621950482131326,-1.4768678617132183,-0.0012519965667050275,0.00037108766879864145,-0.03739050615699672,0,70,255.0,255.0,255.0
425,21.25,13.4303,-1.9136,-17.7235,-0.011755734983295239,0.13619382691717935,-1.4787227161553511,-0.0012611716171510162,-0.0013982038341553427,-0.036803671528323534,0,70,255.0,255.0,255.0
426,21.3,13.429710463549185,-1.9067912945118093,-17.79748189404699,-0.011829187791900153,0.1361696305529224,-1.4805481187201999,-0.0016769407270454482,0.0004303492638773759,-0.03621243106562736,0,70,255.0,255.0,255.0
427,21.35,13.429116734746552,-1.8999815131504592,-17.87155431917164,-0.011923429055999786,0.1362368618435671,-1.482343959261914,-0.00209270983693988,0.0022589023619100945,-0.03562119060293119,0,70,255.0,255.0,255.0
428,21.400000000000002,13.428517774169327,-1.8931660845332041,-17.945715797272797,-0.012038458775594143,0.1363955207891134,-1.4841102377804931,-0.002508478946834312,0.004087455459942812,-0.03502995014023502,0,70,255.0,255.0,255.0
429,21.450000000000003,13.427912542394735,-1.8863404372772994,-18.019964850249302,-0.012174276950683221,0.13664560738956139,-1.4858469542759374,-0.002924248056728744,0.005916008557975532,-0.03443870967753885,0,70,255.0,255.0,255.0
430,21.5,13.4273,-1.8795,-18.0943,-0.012330883581267008,0.13698712164491095,-1.487554108748247,-0.0033400171666231326,0.007744561656007676,-0.03384746921484272,0,70,255.0,255.0,255.0
431,21.55,13.426679177570934,-1.8726416735993883,-18.16871964468913,-0.012504078152347461,0.1373317267054819,-1.4892242771209756,-0.0035877656765949595,0.006039640766830232,-0.03295926569430952,0,70,255.0,255.0,255.0
432,21.6,13.426049385727675,-1.8657682480968591,-18.2432216875425,-0.012689660148926508,0.13759108572159398,-1.490850035317678,-0.0038355141865667867,0.004334719877652789,-0.03207106217377633,0,70,255.0,255.0,255.0
433,21.650000000000002,13.425410005098948,-1.858883985794636,-18.317803908051303,-0.012887629571004146,0.1377651986932472,-1.4924313833383533,-0.004083262696538614,0.002629798988475345,-0.031182858653243134,0,70,255.0,255.0,255.0
434,21.700000000000003,13.42476041631348,-1.851993148994942,-18.392464085706735,-0.013097986418580376,0.1378540656204415,-1.4939683211830022,-0.004331011206510441,0.000924878099297902,-0.03029465513270994,0,70,255.0,255.0,255.0
435,21.75,13.4241,-1.8451,-18.4672,-0.013320730691655182,0.13785768650317698,-1.4954608488516246,-0.004578759716482236,-0.0007800427898794204,-0.029406451612178586,0,70,255.0,255.0,255.0
436,21.8,13.423428826167084,-1.8382076110906371,-18.54200992719649,-0.013514499598733049,0.13784746262514994,-1.496938772795856,-0.0031719965666322843,0.0003710876687982698,-0.02971050615708251,0,70,255.0,255.0,255.0
437,21.85,13.422749722342749,-1.8313142944621024,-18.61689413065837,-0.013637930348318415,0.13789479527005682,-1.498431899467333,-0.001765233416782332,0.00152221812747596,-0.030014560701986433,0,70,255.0,255.0,255.0
438,21.900000000000002,13.422066205434875,-1.8244171722882492,-18.69185337052201,-0.013691022940411284,0.13799968443789754,-1.4999402288660548,-0.00035847026693237947,0.0026733485861536502,-0.03031861524689036,0,70,255.0,255.0,255.0
439,21.950000000000003,13.421381792351335,-1.8175133667429304,-18.76688840692377,-0.013673777375011652,0.13816213012867218,-1.501463760992022,0.0010482928829175725,0.0038244790448313404,-0.030622669791794285,0,70,255.0,255.0,255.0
440,22.0,13.4207,-1.8106,-18.842,-0.013586193652119534,0.13838213234238067,-1.5030024958452342,0.0024550560327674525,0.004975609503508505,-0.030926724336698186,0,70,255.0,255.0,255.0
441,22.05,13.42002311776073,-1.8036750820380623,-18.91718784652491,-0.013501923452718789,0.13860642279391777,-1.5044926316955904,0.0009157519432623305,0.00399600855797527,-0.028678709677551917,0,70,255.0,255.0,255.0
442,22.1,13.41934852490132,-1.7967401740547293,-18.99244738982401,-0.0134946184577933,0.13878173319817821,-1.5058703668129896,-0.0006235521462427916,0.0030164076124420346,-0.02643069501840565,0,70,255.0,255.0,255.0
443,22.150000000000002,13.418672373161543,-1.7897977250523653,-19.06777300986066,-0.013564278667343067,0.13890806355516197,-1.5071357011974311,-0.0021628562357479137,0.0020368066669088,-0.024182680359259384,0,70,255.0,255.0,255.0
444,22.200000000000003,13.417990814281177,-1.7828501840333342,-19.143159086598207,-0.013710904081368094,0.1389854138648691,-1.5082886348489153,-0.003702160325253036,0.0010572057213755646,-0.021934665700113116,0,70,255.0,255.0,255.0
445,22.25,13.4173,-1.7759,-19.2186,-0.013934494699868356,0.13901378412729953,-1.5093291677674425,-0.005241464414758035,7.760477584151104e-05,-0.019686651040972336,0,70,255.0,255.0,255.0
446,22.3,13.416597102789991,-1.7689488607571138,-19.294091486703877,-0.014173806590400071,0.13903884619917803,-1.5103387004217836,-0.004331011206510425,0.0009248780992977444,-0.02069465513266701,0,70,255.0,255.0,255.0
447,22.35,13.415883378051966,-1.7619954093189791,-19.369634710045588,-0.014367595820519405,0.13910627193722933,-1.5113986332807092,-0.0034205579982628147,0.0017721514227539777,-0.02170265922436168,0,70,255.0,255.0,255.0
448,22.400000000000002,13.415161101918946,-1.7550375275022876,-19.445232190035362,-0.014515862390226357,0.1392160613414534,-1.5125089663442197,-0.002510104790015205,0.002619424746210211,-0.022710663316056354,0,70,255.0,255.0,255.0
449,22.450000000000003,13.41443255052395,-1.7480730971237306,-19.52088644668342,-0.01461860629952093,0.13936821441185032,-1.513669699612315,-0.0015996515817675951,0.0034666980696664443,-0.023718667407751026,0,70,255.0,255.0,255.0
450,22.5,13.4137,-1.7411,-19.5966,-0.014675827548403119,0.13956273114842002,-1.514880833084995,-0.0006891983735200641,0.0043139713931219514,-0.02472667149945096,0,70,255.0,255.0,255.0
451,22.55,13.412965271079303,-1.7341166749334829,-19.67237420665958,-0.014714850185668071,0.13976619240936897,-1.5160725666172765,-0.0008717071170780242,0.003824479044835398,-0.02294266979181214,0,70,255.0,255.0,255.0
452,22.6,13.412228362890815,-1.7271237886693531,-19.748205769993636,-0.014762998260110924,0.13994517905290357,-1.5171751000641762,-0.0010542158606359844,0.0033349866965488445,-0.02115866808417332,0,70,255.0,255.0,255.0
453,22.650000000000002,13.411488819162672,-1.7201225649384824,-19.82409022999791,-0.014820271771731673,0.14009969107902387,-1.5181884334256939,-0.0012367246041939445,0.002845494348262291,-0.0193746663765345,0,70,255.0,255.0,255.0
454,22.700000000000003,13.41074618362302,-1.713114227471741,-19.90002312666812,-0.014886670720530319,0.1402297284877298,-1.5191125667018297,-0.0014192333477519047,0.0023560019999757376,-0.01759066466889568,0,70,255.0,255.0,255.0
455,22.75,13.41,-1.7061,-19.976,-0.014962195106506858,0.1403352912790214,-1.5199474998925835,-0.0016017420913097685,0.0018665096516885527,-0.015806662961253437,0,70,255.0,255.0,255.0
456,22.8,13.409249812892796,-1.6990812395089552,-20.052017286657808,-0.01504679266692189,0.14040838416334786,-1.5207470331091182,-0.0017821603252914818,0.0010572057213709901,-0.016174665700127384,0,70,255.0,255.0,255.0
457,22.85,13.40849517038478,-1.692059836003607,-20.12807500997986,-0.015140411139036008,0.14044101185115848,-1.521564966462596,-0.001962578559273195,0.00024790179105342786,-0.01654266843900133,0,70,255.0,255.0,255.0
458,22.900000000000002,13.407735621430364,-1.685037812743781,-20.204174089973016,-0.015243050522849213,0.14043317434245323,-1.522401299953018,-0.0021429967932549083,-0.0005614021392641344,-0.016910671177875272,0,70,255.0,255.0,255.0
459,22.950000000000003,13.406970714983967,-1.6780171929893033,-20.280315446644114,-0.015354710818361502,0.14038487163723207,-1.523256033580384,-0.0023234150272366215,-0.001370706069581697,-0.01727867391674922,0,70,255.0,255.0,255.0
460,23.0,13.4062,-1.671,-20.3565,-0.01547539202557287,0.14029610373549506,-1.5241291673446933,-0.0025038332612183217,-0.00218000999990009,-0.017646676655614257,0,70,255.0,255.0,255.0
461,23.05,13.405423477349512,-1.663987167030696,-20.432727846709202,-0.015577979146646668,0.1402322709372392,-1.5249713009462762,-0.0015996515817335586,-0.00037330193033377696,-0.016038667407699925,0,70,255.0,255.0,255.0
462,23.1,13.404642955570068,-1.656975267316218,-20.508995790086924,-0.01563535718374623,0.1402587735424617,-1.5257330340854631,-0.0006954699022487956,0.001433406139232536,-0.01443065815978559,0,70,255.0,255.0,255.0
463,23.150000000000002,13.403860695115869,-1.6499597840863915,-20.585299810110044,-0.01564752613687155,0.14037561155116246,-1.5264143667622547,0.0002087117772359673,0.0032401142087988494,-0.012822648911871258,0,70,255.0,255.0,255.0
464,23.200000000000003,13.403078956441112,-1.6429362005710435,-20.661635886755445,-0.015614486006022629,0.14058278496334156,-1.5270152989766506,0.0011128934567207305,0.005046822278365162,-0.011214639663956924,0,70,255.0,255.0,255.0
465,23.25,13.4023,-1.6359,-20.738,-0.015536236791199483,0.14088029377899897,-1.5275358307286502,0.002017075136205415,0.006853530347931791,-0.009606630416033823,0,70,255.0,255.0,255.0
466,23.3,13.40152507770916,-1.62884849236826,-20.81438892650539,-0.015473290746488256,0.14115853208769663,-1.5280237631057738,0.0005007666522436455,0.004276001999975473,-0.009910664668911554,0,70,255.0,255.0,255.0
467,23.35,13.400751407334948,-1.62178629473152,-20.890802629672457,-0.015486160125975118,0.1413078939789965,-1.5285268971955415,-0.001015541831718124,0.0016984736520191546,-0.010214698921789287,0,70,255.0,255.0,255.0
468,23.400000000000002,13.399975198106159,-1.61471985091065,-20.967241869586825,-0.015574844929660069,0.14132837945289856,-1.5290452329979527,-0.0025318503156798932,-0.0008790546959371636,-0.01051873317466702,0,70,255.0,255.0,255.0
469,23.450000000000003,13.399192659251577,-1.60765560472652,-21.04370740633413,-0.015739345157543112,0.14121998850940282,-1.529578770513008,-0.004048158799641663,-0.0034565830438934818,-0.01082276742754475,0,70,255.0,255.0,255.0
470,23.5,13.3984,-1.6006,-21.1202,-0.01597966080962422,0.14098272114850927,-1.5301275097407074,-0.005564467283603269,-0.006034111391848951,-0.011126801680420684,0,70,255.0,255.0,255.0
471,23.55,13.397594611813854,-1.5935572634962634,-21.196719647269237,-0.01622485786739596,0.1407496007119735,-1.530645646630637,-0.004243415027266198,-0.0032907060695817115,-0.00959867391676459,0,70,255.0,255.0,255.0
472,23.6,13.39677861509014,-1.5865227537577007,-21.273263291223262,-0.016404002312350847,0.14065365054155107,-1.5310873771323839,-0.002922362770929128,-0.0005473007473144722,-0.008070546153108494,0,70,255.0,255.0,255.0
473,23.650000000000002,13.395955312459499,-1.579489612271006,-21.349827111542673,-0.01651709414448888,0.14069487063724204,-1.5314527012459478,-0.0016013105145920572,0.0021961045749527685,-0.0065424183894523995,0,70,255.0,255.0,255.0
474,23.700000000000003,13.395128006552573,-1.5724509805228744,-21.426407287908056,-0.016564133363810053,0.14087326099904637,-1.5317416189713293,-0.0002802582582549862,0.0049395098972200065,-0.005014290625796305,0,70,255.0,255.0,255.0
475,23.75,13.3943,-1.5654,-21.503,-0.01654511997031438,0.14118882162696403,-1.5319541303085278,0.0010407939980820458,0.007682915219486608,-0.003486162862138542,0,70,255.0,255.0,255.0
476,23.8,13.393474075035423,-1.5583320536466863,-21.579602084417672,-0.01649127778394346,0.14150706506441033,-1.5321296503716788,0.001112893456754783,0.005046822278364889,-0.0035346396639006636,0,70,255.0,255.0,255.0
477,23.85,13.392650932304488,-1.5512514902376764,-21.656213005434502,-0.0164338306246389,0.14169350385480053,-1.5323075942749178,0.0011849929154275206,0.0024107293372431695,-0.0035831164656627847,0,70,255.0,255.0,255.0
478,23.900000000000002,13.39183075205584,-1.5441649000053235,-21.7328328842425,-0.016372778492400708,0.14174813799813463,-1.532487962018245,0.001257092374100258,-0.00022536360387854885,-0.0036315932674249062,0,70,255.0,255.0,255.0
479,23.950000000000003,13.39101371453813,-1.5370788731819802,-21.809461842033667,-0.016308121387228876,0.14167096749441266,-1.5326707536016604,0.0013291918327729953,-0.002861456545000269,-0.0036800700691870273,0,70,255.0,255.0,255.0
480,24.0,13.3902,-1.53,-21.8861,-0.01623985930912341,0.1414619923436346,-1.5328559690251637,0.0014012912914457831,-0.005497549486122466,-0.0037285468709455927,0,70,255.0,255.0,255.0
481,24.05,13.389389088044453,-1.5229329219169916,-21.96274721506008,-0.016210030996827676,0.1412381390303842,-1.533027751882628,-0.00020815879961640972,-0.003456583043892951,-0.0031427674276301248,0,70,255.0,255.0,255.0
482,24.1,13.388577655691908,-1.5158744852915929,-22.039402287038726,-0.016260675189085052,0.1411163340392453,-1.5331702457679266,-0.0018176088906786026,-0.0014156166016634358,-0.002556987984314657,0,70,255.0,255.0,255.0
483,24.150000000000002,13.387761679317137,-1.5088195877076984,-22.116063751487335,-0.01639179188589554,0.14109657737021786,-1.5332834506810598,-0.0034270589817407956,0.0006253498405660793,-0.0019712085409991894,0,70,255.0,255.0,255.0
484,24.200000000000003,13.38693713529491,-1.5017631267492024,-22.1927301439573,-0.016603381087259138,0.1411788690233019,-1.5333673666220267,-0.005036509072802988,0.0026663162827955944,-0.0013854290976837214,0,70,255.0,255.0,255.0
485,24.25,13.3861,-1.4947,-22.2694,-0.01689544279317582,0.1413632089984974,-1.5334219935908282,-0.006645959163865123,0.00470728272502452,-0.0007996496543665188,0,70,255.0,255.0,255.0
486,24.3,13.385247972786765,-1.4876266586853468,-22.346071455342017,-0.01716459822873031,0.14155637881405353,-1.533423342097831,-0.0041202582583142995,0.0030195098972198168,0.0007457093742591289,0,70,255.0,255.0,255.0
487,24.35,13.384385644927882,-1.4805457685959509,-22.422741046410593,-0.017307468619007258,0.1416651599882194,-1.5333474226534023,-0.0015945573527634763,0.0013317370694151142,0.0022910684028847766,0,70,255.0,255.0,255.0
488,24.400000000000002,13.383519330675616,-1.4734615491638814,-22.499404909808167,-0.017324053964006658,0.14168955252099505,-1.5331942352575425,0.0009311435527873469,-0.0003560357583895892,0.0038364274315104245,0,70,255.0,255.0,255.0
489,24.450000000000003,13.382655344282236,-1.4663782198212076,-22.57605918213716,-0.01721435426372852,0.14162955641238043,-1.5329637799102511,0.00345684445833817,-0.0020438085861942913,0.005381786460136072,0,70,255.0,255.0,255.0
490,24.5,13.3818,-1.4593,-22.6527,-0.01697836951817286,0.14148517166237562,-1.5326560566115286,0.005982545363888758,-0.0037315814139988746,0.0069271454887633865,0,70,255.0,255.0,255.0
491,24.55,13.38095742080849,-1.4522300433416198,-22.729324563571865,-0.016747576088256423,0.14132034571340063,-1.5323348797260379,0.003249191832768489,-0.002861456545000417,0.00591992993085951,0,70,255.0,255.0,255.0
492,24.6,13.380122964596564,-1.4451672403246023,-22.8059343273189,-0.016653450334896007,0.14119902600787557,-1.5320640636184426,0.0005158383016482197,-0.001991331676001959,0.004912714372955634,0,70,255.0,255.0,255.0
493,24.650000000000002,13.379289797980393,-1.4381094156367746,-22.88253180928001,-0.016695992258091603,0.14112121254580043,-1.5318436082887426,-0.0022175152294720505,-0.0011212068070035014,0.003905498815051757,0,70,255.0,255.0,255.0
494,24.700000000000003,13.378451087576147,-1.4310543939659646,-22.959119527494078,-0.016875201857843213,0.14108690532717522,-1.5316735137369375,-0.004950868760592319,-0.00025108193800504365,0.002898283257147881,0,70,255.0,255.0,255.0
495,24.75,13.3776,-1.424,-23.0357,-0.01719107913415081,0.14109610435199993,-1.5315537799630277,-0.0076842222917123115,0.0006190429309933521,0.001891067699251181,0,70,255.0,255.0,255.0
496,24.8,13.37673194397927,-1.4169443679481728,-23.112274290370525,-0.01750909741826199,0.14113023833234464,-1.5313971389979906,-0.005036509072734642,0.0007463162827955135,0.004374570902236776,0,70,255.0,255.0,255.0
497,24.85,13.375851296685855,-1.4098868701056388,-23.1888376443138,-0.017694730041424283,0.14117073598027946,-1.531116322872804,-0.0023887958537569722,0.0008735896345976749,0.006858074105222371,0,70,255.0,255.0,255.0
498,24.900000000000002,13.37496467740281,-1.4028271882890182,-23.265383853071803,-0.01774797700363769,0.14121759729580444,-1.5307113315874683,0.00025891736522069657,0.0010008629863998363,0.009341577308207966,0,70,255.0,255.0,255.0
499,24.950000000000003,13.374078705413176,-1.3957650043149317,-23.341906707886544,-0.01766883830490221,0.14127082227891946,-1.5301821651419831,0.002906630584198367,0.0011281363382019977,0.011825080511193561,0,70,255.0,255.0,255.0
500,25.0,13.3732,-1.3887,-23.4184,-0.017457313945217868,0.1413304109296246,-1.5295288235363487,0.005554343803175904,0.001255409690003484,0.014308583714191414,0,70,255.0,255.0,255.0
501,25.05,13.372333203274435,-1.381632484865688,-23.494859074946028,-0.01723203423868087,0.1413587009572198,-1.5288445642819908,0.0034568444583038737,-0.0001238085861945599,0.013061786460122331,0,70,255.0,255.0,255.0
502,25.1,13.371475048660011,-1.3745652792528413,-23.57128549542591,-0.017111629499387476,0.14131803007100513,-1.5282226448903364,0.0013593451134318434,-0.0015030268623926037,0.011814989206053249,0,70,255.0,255.0,255.0
503,25.150000000000002,13.370620292408374,-1.3675018312071507,-23.64768237843278,-0.017096099727337687,0.14120839827098053,-1.5276630653613854,-0.000738154231440186,-0.002882245138590648,0.010568191951984164,0,70,255.0,255.0,255.0
504,25.200000000000003,13.369763690771158,-1.3604455887743065,-23.724052840959764,-0.017185444922531493,0.14102980555714606,-1.527165825695138,-0.002835653576312217,-0.004261463414788691,0.009321394697915082,0,70,255.0,255.0,255.0
505,25.25,13.3689,-1.3534,-23.8004,-0.017379665084968892,0.14078225192950167,-1.5267309258915938,-0.004933152921184042,-0.0056406816909868596,0.008074597443847864,0,70,255.0,255.0,255.0
506,25.3,13.368025642923,-1.3463672925890746,-23.876725409845353,-0.017578765627014263,0.14053895783877687,-1.5262646038740677,-0.003030868760630657,-0.004091081938004471,0.010578283257198286,0,70,255.0,255.0,255.0
507,25.35,13.3671437086741,-1.3393448128829946,-23.953024373982565,-0.017682751961031962,0.14037314373570123,-1.5256730975658739,-0.001128584600077272,-0.0025414821850220817,0.013081969070548708,0,70,255.0,255.0,255.0
508,25.400000000000002,13.366258952963697,-1.332328686882377,-24.029290633197096,-0.017691624087021993,0.14028480962027468,-1.5249564069670127,0.0007736995604761135,-0.0009918824320396926,0.015585654883899132,0,70,255.0,255.0,255.0
509,25.450000000000003,13.365376131502197,-1.3253150405878396,-24.105517928274423,-0.01760538200498435,0.14027395549249724,-1.524114532077484,0.002675983721029498,0.0005577173209426961,0.018089340697249552,0,70,255.0,255.0,255.0
510,25.5,13.3645,-1.3183,-24.1817,-0.017424025714919054,0.14034058135236896,-1.5231474728972878,0.004578267881582859,0.002107317073925641,0.0205930265105998,0,70,255.0,255.0,255.0
511,25.55,13.363633825033565,-1.3112807447780124,-24.257832085672558,-0.01723690325327282,0.14042146768767214,-1.5221450202217435,0.00290663058426646,0.0011281363382017544,0.01950508051118119,0,70,255.0,255.0,255.0
512,25.6,13.36277491664359,-1.304258669215179,-24.33391540864384,-0.0171333626564924,0.14045339498618914,-1.5211969648461696,0.0012349932869500616,0.00014895560247786804,0.018417134511762582,0,70,255.0,255.0,255.0
513,25.650000000000002,13.361919095736834,-1.2972362212633397,-24.409952688778844,-0.01711340392457781,0.14043636324791994,-1.5203033067705671,-0.00043664401036633705,-0.0008302251332460184,0.01732918851234397,0,70,255.0,255.0,255.0
514,25.700000000000003,13.361062183220053,-1.2902158488743334,-24.48594664594257,-0.017177027057529038,0.14037037247286455,-1.5194640459949351,-0.002108281307682736,-0.0018094058689699048,0.016241242512925365,0,70,255.0,255.0,255.0
515,25.75,13.3602,-1.2832,-24.5619,-0.017324232055346073,0.14025542266102295,-1.5186791825192743,-0.0037799186049990163,-0.0027885866046937213,0.015153296513515713,0,70,255.0,255.0,255.0
516,25.8,13.359329456942739,-1.2761905282988755,-24.637814247464416,-0.017489621359879706,0.14012717141053588,-1.5178753152389872,-0.00283565357634619,-0.0023414634147891737,0.017001394697969754,0,70,255.0,255.0,255.0
517,25.85,13.358451824751537,-1.269186910256288,-24.713685991442084,-0.0176077974129807,0.14002127631954403,-1.5169790430494774,-0.0018913885476933632,-0.001894340224884626,0.0188494928824238,0,70,255.0,255.0,255.0
518,25.900000000000002,13.357569464088964,-1.2621880280642626,-24.789510611687547,-0.017678760214649043,0.1399377373880474,-1.5159903659507445,-0.0009471235190405365,-0.001447217034980078,0.02069759106687784,0,70,255.0,255.0,255.0
519,25.950000000000003,13.356684735617597,-1.2551927639148246,-24.865283487955335,-0.01770250976488475,0.139876554616046,-1.5149092839427893,-2.858490387710154e-06,-0.0010000938450755305,0.022545689251331887,0,70,255.0,255.0,255.0
520,26.0,13.3558,-1.2482,-24.941,-0.017679046063687823,0.13983772800353986,-1.5137357970256116,0.0009414065382650771,-0.0005529706551710145,0.024393787435785796,0,70,255.0,255.0,255.0
521,26.05,13.354917147195483,-1.2412091420264852,-25.016656524469795,-0.0176366113072062,0.13978984667018404,-1.5125297188222862,0.0007559837209998284,-0.001362282679061056,0.023849340697234205,0,70,255.0,255.0,255.0
522,26.1,13.354036184350264,-1.2342216897596678,-25.092253425587845,-0.017603447691587837,0.13970149973563376,-1.511350862955888,0.0005705609037345797,-0.0021715947029510973,0.023304893958682613,0,70,255.0,255.0,255.0
523,26.150000000000002,13.353156647907308,-1.2272396664796081,-25.167792064470998,-0.017579555216832743,0.13957268719988894,-1.5101992294264177,0.00038513808646933087,-0.0029809067268411382,0.022760447220131017,0,70,255.0,255.0,255.0
524,26.200000000000003,13.352278074309568,-1.2202650954663654,-25.243273802236104,-0.017564933882940902,0.13940340906294962,-1.5090748182338751,0.00019971526920408214,-0.0037902187507311796,0.022216000481579425,0,70,255.0,255.0,255.0
525,26.25,13.3514,-1.2133,-25.3187,-0.017559583689912332,0.1391936653248158,-1.50797762937826,1.4292451938791029e-05,-0.0045995307746222736,0.021671553743026095,0,70,255.0,255.0,255.0
526,26.3,13.350521954275335,-1.2063457035951834,-25.394070854656416,-0.01756393341130519,0.1389854419087261,-1.5068378094718633,-0.00018828130765304052,-0.0037294058689656727,0.023921242512844318,0,70,255.0,255.0,255.0
527,26.35,13.349643437847405,-1.1994007307050392,-25.469381906206543,-0.017578411820677636,0.13882072473791923,-1.5055855051269758,-0.00039085506724487206,-0.002859280963309072,0.026170931282662544,0,70,255.0,255.0,255.0
528,26.400000000000002,13.348763944281801,-1.1924629060173033,-25.54462753042847,-0.017603018918029678,0.1386995138123952,-1.504220716343597,-0.0005934288268367036,-0.001989156057652471,0.028420620052480767,0,70,255.0,255.0,255.0
529,26.450000000000003,13.347882967144134,-1.1855300542197114,-25.619802103100266,-0.017637754703361305,0.138621809132154,-1.5027434431217275,-0.0007960025864285352,-0.0011190311519958702,0.030670308822298993,0,70,255.0,255.0,255.0
530,26.5,13.347,-1.1786,-25.6949,-0.01768261917667253,0.13858761069719558,-1.5011536854613672,-0.0009985763460204355,-0.00024890624633999714,0.032919997592113504,0,70,255.0,255.0,255.0
531,26.55,13.346115035703173,-1.171671243592781,-25.76991685690456,-0.017707655047582736,0.1385563856949103,-1.4995270432902783,-2.8584903877606777e-06,-0.0010000938450712145,0.03214568925144475,0,70,255.0,255.0,255.0
532,26.6,13.345230064260122,-1.1647449874201743,-25.844853349585982,-0.017682905025711307,0.13848760131268845,-1.4979391165362228,0.0009928593652449142,-0.0017512814438024318,0.031371380910776,0,70,255.0,255.0,255.0
533,26.650000000000002,13.344347574965482,-1.1578231094511775,-25.91971141381513,-0.01760836911105824,0.13838125755053007,-1.4963899051992007,0.001988577220877589,-0.002502469042533649,0.030597072570107253,0,70,255.0,255.0,255.0
534,26.700000000000003,13.343470057113894,-1.150907487654787,-25.994492985362854,-0.017484047303623546,0.1382373544084351,-1.494879409279212,0.002984295076510264,-0.0032536566412648665,0.029822764229438505,0,70,255.0,255.0,255.0
535,26.75,13.3426,-1.144,-26.0692,-0.017309939603407223,0.1380558918864036,-1.4934076287762568,0.00398001293214284,-0.004004844239995808,0.02904845588877336,0,70,255.0,255.0,255.0
536,26.8,13.341738702911968,-1.1371021220336925,-26.14383371772537,-0.01715744639837281,0.1378610153116353,-1.4919340173670002,0.0021197152692336643,-0.0037902187507358825,0.029896000481493712,0,70,255.0,255.0,255.0
537,26.85,13.34088270511211,-1.1302137196142619,-26.21839269544954,-0.017097968076483856,0.13767687001133,-1.4904180287281072,0.0002594176063244885,-0.003575593261475956,0.030743545074214066,0,70,255.0,255.0,255.0
538,26.900000000000002,13.340027355856266,-1.1233342561779849,-26.292874814311023,-0.01713150463774036,0.1375034559854877,-1.4888596628595787,-0.0016008800565846873,-0.00336096777221603,0.03159108966693441,0,70,255.0,255.0,255.0
539,26.950000000000003,13.339168004400282,-1.1164631951611383,-26.36727795544834,-0.017258056082142325,0.1373407732341084,-1.4872589197614139,-0.003461177719493863,-0.0031463422829561037,0.03243863425965477,0,70,255.0,255.0,255.0
540,27.0,13.3383,-1.1096,-26.4416,-0.017477622409689732,0.13718882175719213,-1.485615799433613,-0.0053214753824028516,-0.002931716793696415,0.03328617885238394,0,70,255.0,255.0,255.0
541,27.05,13.337420552648952,-1.1027442682724484,-26.51583867219396,-0.01767855935891126,0.1370395530585497,-1.4839208872417462,-0.00271600258645814,-0.003039031152000639,0.03451030882229029,0,70,255.0,255.0,255.0
542,27.1,13.33653431529144,-1.0958961341227766,-26.58999106861587,-0.01774922266833555,0.13688491864199206,-1.482164768551384,-0.00011052979051342886,-0.003146345510304863,0.035734438792196635,0,70,255.0,255.0,255.0
543,27.150000000000002,13.335647801609449,-1.089055865836881,-26.664054128940798,-0.0176896123379626,0.1367249185075192,-1.4803474433625263,0.0024949430054312834,-0.003253659868609087,0.03695856876210298,0,70,255.0,255.0,255.0
544,27.200000000000003,13.334767525284972,-1.0822237317006567,-26.738024792843817,-0.017499728367792417,0.13655955265513117,-1.4784689116751737,0.005100415801375994,-0.0033609742269133107,0.03818269873200933,0,70,255.0,255.0,255.0
545,27.25,13.3339,-1.0754,-26.8119,-0.01717957075782502,0.1363888210848279,-1.4765291734893256,0.007705888597320604,-0.0034682885852179712,0.039406828701915586,0,70,255.0,255.0,255.0
546,27.3,13.333049486492222,-1.0685848048765132,-26.88567719349879,-0.016864316165979356,0.13622077245416583,-1.474558433666039,0.004904295076505704,-0.003253656641264732,0.039422764229552244,0,70,255.0,255.0,255.0
547,27.35,13.332211233722134,-1.0617777438946299,-26.959355830087,-0.01668914125017444,0.13606345542070142,-1.4725868970663702,0.0021027015556908035,-0.003039024697311493,0.0394386997571889,0,70,255.0,255.0,255.0
548,27.400000000000002,13.331378237705938,-1.0549782804744896,-27.032935869925822,-0.016654046010410276,0.13591686998443467,-1.47061456369032,-0.0006988919651240953,-0.002824392753358253,0.039454635284825554,0,70,255.0,255.0,255.0
549,27.450000000000003,13.330543494459826,-1.048185878036233,-27.10641727317643,-0.016759030446686852,0.13578101614536559,-1.4686414335378875,-0.0035004854859389967,-0.002609760809405014,0.03947057081246221,0,70,255.0,255.0,255.0
550,27.5,13.3297,-1.0414,-27.1798,-0.017004094559004153,0.13565589390349417,-1.466667506609074,-0.00630207900675378,-0.002395128865452234,0.039486506340097094,0,70,255.0,255.0,255.0
551,27.55,13.328843101382162,-1.0346205122214975,-27.2530837538109,-0.017248175977160347,0.13551735712478408,-1.4646773780940823,-0.0034611777194937616,-0.003146342282951908,0.04011863425957359,0,70,255.0,255.0,255.0
552,27.6,13.327977549820023,-1.0278488902987026,-27.326267211036146,-0.017350212330953532,0.13534125967519897,-1.4626556431831166,-0.0006202764322337431,-0.0038975557004515817,0.04075076217905009,0,70,255.0,255.0,255.0
553,27.650000000000002,13.327110447566808,-1.021087012265159,-27.399348791355948,-0.01731020362038372,0.1351276015547389,-1.4606023018761771,0.0022206248550262746,-0.004648769117951255,0.04138289009852659,0,70,255.0,255.0,255.0
554,27.700000000000003,13.326248896875725,-1.0143367561544099,-27.4723269144505,-0.017128149845450902,0.13487638276340386,-1.458517354173264,0.005061526142286294,-0.0053999825354509295,0.042015018018003086,0,70,255.0,255.0,255.0
555,27.75,13.3254,-1.0076,-27.5452,-0.01680405100615511,0.1345876033011938,-1.456400800074377,0.00790242742954611,-0.006151195952950772,0.04264714593748131,0,70,255.0,255.0,255.0
556,27.8,13.324568507979135,-1.0008779462374955,-27.617966191257633,-0.016478979925382057,0.13430179904669728,-1.45423605395764,0.005100415801375872,-0.005280974226908862,0.043942698731997985,0,70,255.0,255.0,255.0
557,27.85,13.323749766997773,-0.9941690949105584,-27.690622525768436,-0.016294009426017518,0.1340595058785029,-1.4520065302011773,0.002298404173205635,-0.0044107525008669525,0.04523825152651465,0,70,255.0,255.0,255.0
558,27.900000000000002,13.322936772026843,-0.9874712704648735,-27.763165764650427,-0.01624913950806149,0.1338607237966106,-1.4497122288049886,-0.0005036074549646021,-0.003540530774825042,0.046533804321031325,0,70,255.0,255.0,255.0
559,27.950000000000003,13.322122518037276,-0.9807822973461255,-27.835592669021608,-0.016344370171513977,0.1337054528010204,-1.447353149769074,-0.0033056190831348402,-0.002670309048783132,0.047829357115548,0,70,255.0,255.0,255.0
560,28.0,13.3213,-0.9741,-27.9079,-0.016579701416374958,0.1335936928917323,-1.4449292930934337,-0.006107630711304879,-0.0018000873227410619,0.04912490991006635,0,70,255.0,255.0,255.0
561,28.05,13.320464466701303,-0.9674229028285195,-27.980085081158578,-0.016819904321306055,0.13348344668842851,-1.4424744060753694,-0.0035004854859388163,-0.0026097608094116103,0.049070570812505564,0,70,255.0,255.0,255.0
