idx,t,px,py,pz,vx,vy,vz,ax,ay,az,yaw,mode,ledr,ledg,ledb
0,0.0,3.0,0.0,0.0,-2.6393064162221915e-12,-2.8505661713693614e-66,0.04313012312807685,3.16716769946663e-11,3.4206794056432335e-65,-1.1887614775369222,0,70,255.0,255.0,255.0
1,0.05,2.999999999999905,-1.0262038216929703e-67,0.0006790844326107662,-1.214080951462208e-12,-1.3112604388299064e-66,-0.015796143361084654,2.5337341595733037e-11,2.736543524514587e-65,-1.1682891820295378,0,70,255.0,255.0,255.0
2,0.1,2.9999999999998734,-1.3682717622572934e-67,-0.001562554089852313,-1.0557225664888757e-13,-1.1402264685477467e-67,-0.07369879507487694,1.9003006196799776e-11,2.0524076433859403e-65,-1.1478168865221534,0,70,255.0,255.0,255.0
3,0.15000000000000002,2.9999999999998894,-1.1972377919751317e-67,-0.006673734828620777,6.862196682177704e-13,7.411472045560337e-67,-0.13057783201330003,1.2668670797866515e-11,1.3682717622572932e-65,-1.127344591014769,0,70,255.0,255.0,255.0
4,0.2,2.9999999999999365,-6.841358811286462e-68,-0.014603277044926163,1.1612948231377642e-12,1.2542491154025184e-66,-0.18643325417635384,6.334335398933258e-12,6.841358811286466e-66,-1.1068722955073846,0,70,255.0,255.0,255.0
5,0.25,3.0,0.0,-0.0253,1.3196532081110958e-12,1.4252830856846807e-66,-0.24126506156403843,0.0,0.0,-1.0863999999999994,0,70,255.0,255.0,255.0
6,0.30000000000000004,3.0000000000000635,6.841358811286473e-68,-0.03871272295507385,1.161294823137764e-12,1.2542491154025186e-66,-0.2950732541763539,-6.334335398933265e-12,-6.841358811286473e-66,-1.0659277044926152,0,70,255.0,255.0,255.0
7,0.35000000000000003,3.0000000000001106,1.197237791975132e-67,-0.054790265171379235,6.862196682177693e-13,7.411472045560335e-67,-0.34785783201329995,-1.2668670797866524e-11,-1.3682717622572939e-65,-1.0454554089852308,0,70,255.0,255.0,255.0
8,0.4,3.000000000000127,1.3682717622572935e-67,-0.0734814459101477,-1.0557225664888807e-13,-1.140226468547748e-67,-0.3996187950748769,-1.9003006196799783e-11,-2.0524076433859403e-65,-1.0249831134778467,0,70,255.0,255.0,255.0
9,0.45,3.000000000000095,1.02620382169297e-67,-0.09473508443261075,-1.2140809514622087e-12,-1.3112604388299067e-66,-0.4503561433610846,-2.533734159573304e-11,-2.736543524514587e-65,-1.0045108179704623,0,70,255.0,255.0,255.0
10,0.5,3.0,0.0,-0.1185,-2.6393064162221915e-12,-2.8505661713693614e-66,-0.5000698768719231,-3.16716769946663e-11,-3.420679405643234e-65,-0.9840385224630745,0,70,255.0,255.0,255.0
11,0.55,2.999999999999842,-1.7103397028216184e-67,-0.1447233926123154,-3.4310983410888487e-12,-3.7057360227801697e-66,-0.5486628399335,2.5849394142282115e-26,3.3735033418337674e-80,-0.9596799999999996,0,70,255.0,255.0,255.0
12,0.6000000000000001,2.9999999999996834,-3.420679405643237e-67,-0.17334598522463082,-2.6393064162221883e-12,-2.850566171369358e-66,-0.5960378768719231,3.167167699466635e-11,3.4206794056432406e-65,-0.9353214775369247,0,70,255.0,255.0,255.0
13,0.65,2.9999999999996043,-4.275849257054042e-67,-0.2043068815307885,-2.6393064162221786e-13,-2.8505661713693345e-67,-0.6421949876871924,6.334335398933261e-11,6.84135881128647e-65,-0.9109629550738498,0,70,255.0,255.0,255.0
14,0.7000000000000001,2.9999999999996834,-3.4206794056432296e-67,-0.2375451852246308,3.695028982711076e-12,3.9907926399171147e-66,-0.6871341723793081,9.501503098399895e-11,1.0262038216929707e-64,-0.8866044326107749,0,70,255.0,255.0,255.0
15,0.75,3.0,0.0,-0.273,9.23757245677767e-12,9.976981599792766e-66,-0.7308554309482699,1.266867079786652e-10,1.3682717622572934e-64,-0.8622459101477018,0,70,255.0,255.0,255.0
16,0.8,3.00000000000057,6.157222930157828e-67,-0.31061050659566475,1.2563098541217631e-11,1.3568694975718161e-65,-0.7733633860896472,6.334335398933151e-12,6.841358811286352e-66,-0.8380722955073848,0,70,255.0,255.0,255.0
17,0.8500000000000001,3.000000000001156,1.2485479830597814e-66,-0.3503161939300979,9.871005996670984e-12,1.0661117480921403e-65,-0.8146626604990084,-1.1401803718079889e-10,-1.2314445860315663e-64,-0.8138986808670677,0,70,255.0,255.0,255.0
18,0.9,3.0000000000014566,1.573512526595888e-66,-0.3920566279666986,1.1612948231377605e-12,1.254249115402513e-66,-0.8547532541763538,-2.3437040976053065e-10,-2.5313027601759935e-64,-0.7897250662267508,0,70,255.0,255.0,255.0
19,0.9500000000000001,3.0000000000011715,1.265651380087996e-66,-0.4357713746688663,-1.3566034979382094e-11,-1.4651910120838544e-65,-0.8936351671216834,-3.5472278234026267e-10,-3.8311609343204234e-64,-0.7655514515864338,0,70,255.0,255.0,255.0
20,1.0,3.0,0.0,-0.4814,-3.431098341088849e-11,-3.70573602278017e-65,-0.9313083993349972,-4.750751549199945e-10,-5.1310191084648506e-64,-0.7413778369461115,0,70,255.0,255.0,255.0
21,1.05,2.999999999997878,-2.291855201780969e-66,-0.5288817810050259,-4.6821295823781686e-11,-5.056904388009247e-65,-0.9677556157079115,-2.5337341595732656e-11,-2.7365435245145477e-65,-0.7165108179704577,0,70,255.0,255.0,255.0
22,1.1,2.999999999995693,-4.652123991674802e-66,-0.5781548390549783,-3.684471757046177e-11,-3.979390375231625e-65,-1.002959481132043,4.2440047172852916e-10,4.583710403561941e-64,-0.6916437989948038,0,70,255.0,255.0,255.0
23,1.1500000000000001,2.9999999999945683,-5.866465180678147e-66,-0.6291570066024172,-4.381248650928727e-12,-4.73193984447302e-66,-1.036919995607392,8.741382850527908e-10,9.441075159575336e-64,-0.66677678001915,0,70,255.0,255.0,255.0
24,1.2000000000000002,2.9999999999956297,-4.7205375797876524e-66,-0.6818261160999044,5.056911093481739e-11,5.46168478434372e-65,-1.0696371591339582,1.3238760983770528e-09,1.4298439915588733e-63,-0.6419097610434961,0,70,255.0,255.0,255.0
25,1.25,3.0,0.0,-0.7361,1.280063611867763e-10,1.3825245931141403e-64,-1.1011109717117415,1.7736139117013133e-09,1.915580467160211e-63,-0.6170427420678486,0,70,255.0,255.0,255.0
26,1.3,3.0000000000079177,8.551698514108092e-66,-0.7919175693842315,1.747220847539091e-10,1.8870748054465172e-64,-1.1314061510787075,9.501503098399745e-11,1.0262038216929555e-64,-0.594764432610782,0,70,255.0,255.0,255.0
27,1.35,3.000000000016073,1.7359947983639425e-65,-0.84922204984999,1.3750786428517608e-10,1.4851449752834363e-64,-1.1605874149728197,-1.5835838497333184e-09,-1.71033970282162e-63,-0.5724861231537154,0,70,255.0,255.0,255.0
28,1.4000000000000001,3.00000000002027,2.18923481961167e-65,-0.9079577456236326,1.6363699780577133e-11,1.7673510262489608e-65,-1.188654763394079,-3.2621827304506343e-09,-3.523299787812535e-63,-0.5502078136966488,0,70,255.0,255.0,255.0
29,1.4500000000000002,3.000000000016311,1.7616498939062615e-65,-0.968068960931517,-1.8871040875988765e-10,-2.0381548125291026e-64,-1.2156081963424847,-4.94078161116795e-09,-5.336259872803451e-63,-0.5279295042395822,0,70,255.0,255.0,255.0
30,1.5,3.0,0.0,-1.0295,-4.777144613362167e-10,-5.1595247701785444e-64,-1.241447713818037,-6.619380491885258e-09,-7.149219957794357e-63,-0.5056511947825122,0,70,255.0,255.0,255.0
31,1.55,2.9999999999704503,-3.1914938854651403e-65,-1.0921935414580484,-6.520670431918547e-10,-7.042608782985144e-64,-1.2660757799772604,-3.547227823402571e-10,-3.831160934320357e-64,-0.4794714515864264,0,70,255.0,255.0,255.0
32,1.6,2.9999999999400138,-6.47876679428829e-65,-1.1560857615450628,-5.131867395702426e-10,-5.5426408636105825e-64,-1.2893948589766797,5.909934927204744e-09,6.382987770930286e-63,-0.4532917083903406,0,70,255.0,255.0,255.0
33,1.6500000000000001,2.999999999924352,-8.170292760378866e-65,-1.221111210903053,-6.107355047138001e-11,-6.596210120548504e-65,-1.3114049508162948,1.2174592636749746e-08,1.3149091635292607e-62,-0.42711196519425476,0,70,255.0,255.0,255.0
34,1.7000000000000002,2.9999999999391274,-6.574545817646282e-65,-1.2872044401740288,7.04272524104733e-10,7.606450771682034e-64,-1.3321060554961053,1.8439250346294747e-08,1.991519549965493e-62,-0.40093222199816897,0,70,255.0,255.0,255.0
35,1.75,3.0,0.0,-1.3543,1.7828514841580906e-09,1.9255574487600036e-63,-1.3514981730161117,2.4703908055839712e-08,2.668129936401722e-62,-0.3747524788020886,0,70,255.0,255.0,255.0
36,1.8,3.0000000001102807,1.1910805690449752e-64,-1.4223338647835757,2.4335460880135095e-09,2.628336032649406e-63,-1.3696667290122515,1.3238760983770296e-09,1.429843991558848e-63,-0.3519897610434999,0,70,255.0,255.0,255.0
37,1.85,3.0000000002238707,2.4179072378789218e-64,-1.4912477039697598,1.915239093995794e-09,2.0685418479158884e-63,-1.3866971491204618,-2.2056155859085653e-08,-2.3821611380899526e-62,-0.3292270432849111,0,70,255.0,255.0,255.0
38,1.9000000000000001,3.0000000002823217,3.049193622190379e-64,-1.5609846107641563,2.2793050210494203e-10,2.4617489455945225e-64,-1.4025894333407427,-4.543618781654834e-08,-4.9073066753357896e-62,-0.30646432552632236,0,70,255.0,255.0,255.0
39,1.9500000000000002,3.000000000227181,2.4536533376678874e-64,-1.6314876783723689,-2.6283796876590433e-09,-2.838764827419906e-63,-1.417343581673094,-6.881621977401102e-08,-7.432452212581627e-62,-0.28370160776773357,0,70,255.0,255.0,255.0
40,2.0,3.0,0.0,-1.7027,-6.653691475296146e-09,-7.18627731802216e-63,-1.4309595941175157,-9.219625173147362e-08,-9.957597749827457e-62,-0.26093889000915027,0,70,255.0,255.0,255.0
41,2.0500000000000003,2.9999999995884266,-4.445172887633408e-64,-1.7745637994076506,-9.082117308862186e-09,-9.809083252299112e-63,-1.443385303973734,-4.940781611167482e-09,-5.336259872802961e-63,-0.23608950423958092,0,70,255.0,255.0,255.0
42,2.1,2.999999999164501,-9.023752272086858e-64,-1.847017822575899,-7.147769636412934e-09,-7.719903305302497e-63,-1.4545685445414738,8.231468850913789e-08,8.890345775266782e-62,-0.2112401184700118,0,70,255.0,255.0,255.0
43,2.15,2.999999998946363,-1.1379745212723628e-63,-1.9199999460403225,-8.506484579484249e-10,-9.18737477032362e-64,-1.4645093158207352,1.6957015862944325e-07,1.8314317537813857e-61,-0.18639073270044268,0,70,255.0,255.0,255.0
44,2.2,2.9999999991521493,-9.157158768906919e-64,-1.993448046336498,9.809246226531442e-09,1.059441423251142e-62,-1.473207617811518,2.568256287497494e-07,2.7738289300361018e-61,-0.16154134693087335,0,70,255.0,255.0,255.0
45,2.25,3.0,0.0,-2.0673,2.4831914417026493e-08,2.681955182332864e-62,-1.4806634505138223,3.4408109887005473e-07,3.716226106290809e-61,-0.136691961161306,0,70,255.0,255.0,255.0
46,2.3000000000000003,3.000000001536013,1.6589610981488652e-63,-2.141494137585825,3.389492314743523e-08,3.660799697654704e-62,-1.4869040550928094,1.8439250346292987e-08,1.991519549965298e-62,-0.11293222199817898,0,70,255.0,255.0,255.0
47,2.35,3.000000003118124,3.367710185046851e-63,-2.2159706057266453,2.6675839451655932e-08,2.8811071373294096e-62,-1.4919566727136402,-3.072025981774659e-07,-3.3179221962977174e-61,-0.08917248283505219,0,70,255.0,255.0,255.0
48,2.4000000000000004,3.0000000039322288,4.2469787228704154e-63,-2.290670005074553,3.1746633296884855e-09,3.428775013569676e-63,-1.4958213033763146,-6.328444467012276e-07,-6.834996347591996e-61,-0.06541274367192519,0,70,255.0,255.0,255.0
49,2.45,3.000000003164222,3.417498173795978e-63,-2.3655329362816406,-3.6608605218466755e-08,-3.953889210262577e-62,-1.4984979470808328,-9.584862952249865e-07,-1.0352070498886244e-60,-0.041653004508798386,0,70,255.0,255.0,255.0
50,2.5,3.0,0.0,-2.4405,-9.267396619280983e-08,-1.0009192997529239e-61,-1.4999866038271947,-1.2841281437487452e-06,-1.386914465018049e-60,-0.01789326534567337,0,70,255.0,255.0,255.0
51,2.5500000000000003,2.9999999942675215,-6.191327103832121e-63,-2.5155116502490515,-1.2649757528087874e-07,-1.3662290465388904e-61,-1.5002784756550298,-6.881621977400447e-08,-7.432452212580916e-62,0.006218392232268274,0,70,255.0,255.0,255.0
52,2.6,2.9999999883630024,-1.2568465512978718e-62,-2.5905077545175215,-9.955558817021083e-08,-1.0752438218787393e-61,-1.499364764603968,1.1464957042007252e-06,1.2382654207664192e-60,0.030330049810209703,0,70,255.0,255.0,255.0
53,2.6500000000000004,2.9999999853247226,-1.5849940370209298e-62,-2.665428033661467,-1.1848004860805547e-08,-1.279636257724643e-62,-1.4972454706740088,2.361807628175466e-06,2.5508553636586586e-60,0.05444170738815135,0,70,255.0,255.0,255.0
54,2.7,2.999999988190962,-1.2754276818293226e-62,-2.740212208536941,1.3662517464733544e-07,1.475611541779916e-61,-1.4939205938651527,3.5771195521501957e-06,3.8634453065508874e-60,0.07855336496609278,0,70,255.0,255.0,255.0
55,2.75,3.0,0.0,-2.8148,3.458639503542128e-07,3.735481680778409e-61,-1.4893901341773994,4.792431476124926e-06,5.176035249443115e-60,0.10266502254403242,0,70,255.0,255.0,255.0
56,2.8000000000000003,3.000000021393901,2.3106347317179614e-62,-2.8891312614179716,4.7209537797607975e-07,5.0988362163900906e-61,-1.4836620422870703,2.5682562874972413e-07,2.7738289300358296e-61,0.126458653069128,0,70,255.0,255.0,255.0
57,2.85,3.0000000434298664,4.690615186686802e-62,-2.96314637620327,3.7154651322918733e-07,4.012864573782014e-61,-1.4767442688704866,-4.278780218625437e-06,-4.6212694634359057e-60,0.1502522835942234,0,70,255.0,255.0,255.0
58,2.9000000000000004,3.0000000547688805,5.915278275796676e-62,-3.0367858602795827,4.421735611353354e-08,4.7756675295416076e-62,-1.468636813927648,-8.814386066000638e-06,-9.519921819875436e-60,0.174045914119319,0,70,255.0,255.0,255.0
59,2.95,3.0000000440719305,4.759960909937692e-62,-3.109990229570597,-5.098920933708751e-07,-5.5070572460934105e-61,-1.4593396774585545,-1.33499919133758e-05,-1.4418574176314926e-59,0.1978395446444144,0,70,255.0,255.0,255.0
60,3.0,3.0,0.0,-3.1827,-1.2907818352240413e-06,-1.3941007423360712e-60,-1.4488528594632069,-1.788559776075096e-05,-1.9317226532754413e-59,0.22163317516950798,0,70,255.0,255.0,255.0
61,3.0500000000000003,2.999999920156874,-8.623406216488633e-62,-3.254855304079065,-1.7618839366234402e-06,-1.9029115819021476e-60,-1.4371533551966893,-9.584862952248967e-07,-1.0352070498885265e-60,0.24634699549119446,0,70,255.0,255.0,255.0
62,3.1,2.999999837917532,-1.7505614195449334e-61,-3.326394740669401,-1.3866304647465386e-06,-1.497621447324932e-60,-1.4242181599140873,1.596862517030102e-05,1.7246812432977197e-59,0.2710608158128807,0,70,255.0,255.0,255.0
63,3.1500000000000004,2.999999795599754,-2.207611906616578e-61,-3.3972565252202056,-1.650214195933292e-07,-1.7823033860441763e-61,-1.410047273615401,3.289573663582709e-05,3.5528831915843086e-59,0.29577463613456717,0,70,255.0,255.0,255.0
64,3.2,2.999999835521317,-1.7764415957921433e-61,-3.467378873180673,1.902943198836165e-06,2.0552617442593713e-60,-1.3946406963006308,4.9822848101353e-05,5.3810851398708805e-59,0.32048845645625346,0,70,255.0,255.0,255.0
65,3.25,3.0,0.0,-3.5367,4.817263390541953e-06,5.202854801266444e-60,-1.377998427969776,6.674995956687893e-05,7.209287088157453e-59,0.3452022767779397,0,70,255.0,255.0,255.0
66,3.3000000000000003,3.0000002979786022,3.218299013423657e-61,-3.605157922265772,6.575440368517682e-06,7.10176270596958e-60,-1.3601085369261747,3.5771195521498603e-06,3.8634453065505276e-60,0.37039336496610403,0,70,255.0,255.0,255.0
67,3.35,3.000000604900004,6.533184159511053e-61,-3.672689861119128,5.1749753457569665e-06,5.589199331921527e-60,-1.3409590914731655,-5.9595720462578635e-05,-6.436598026847288e-59,0.39558445315426816,0,70,255.0,255.0,255.0
68,3.4000000000000004,3.0000007628321037,8.238919798886644e-61,-3.7392328388395986,6.158683222597846e-07,6.651646791222561e-61,-1.3205500916107478,-0.0001227685604773077,-1.325954058434969e-58,0.42077554134243245,0,70,255.0,255.0,255.0
69,3.45,3.0000006138428024,6.62977029217481e-61,-3.8047238777067123,-7.101880701973787e-06,-7.670341252428142e-60,-1.298881537338922,-0.0001859414004920362,-2.008248314185203e-58,0.44596662953059657,0,70,255.0,255.0,255.0
70,3.5,3.0,0.0,-3.8691,-1.797827172694377e-05,-1.9417318462729705e-59,-1.2759534286576881,-0.0002491142405067647,-2.6905425699354376e-58,0.4711577177187589,0,70,255.0,255.0,255.0
71,3.5500000000000003,2.999998887928717,-1.2010855432045769e-60,-3.932301806857851,-2.4539877537447286e-05,-2.6504139241976174e-59,-1.251980497098609,-1.33499919133745e-05,-1.4418574176313546e-59,0.4877595446444002,0,70,255.0,255.0,255.0
72,3.6,2.9999977424824533,-2.4382175218499286e-60,-3.99428421485409,-1.9313270918281332e-05,-2.085917588036118e-59,-1.227177474193248,0.0002224142566800136,2.402171086409144e-58,0.5043613715700414,0,70,255.0,255.0,255.0
73,3.6500000000000004,2.9999971530718317,-3.074806728892999e-60,-4.055005719421405,-2.2984518694458026e-06,-2.4824283778846073e-60,-1.201544359941605,0.0004581785052734038,4.9485279145814454e-58,0.5209631984956826,0,70,255.0,255.0,255.0
74,3.7,2.9999977091074737,-2.4742639572907102e-60,-4.114424815992479,2.650457960905898e-05,2.8626103265453216e-59,-1.1750811543436797,0.0006939427538667919,7.494884742753725e-58,0.5375650254213238,0,70,255.0,255.0,255.0
75,3.75,3.0,0.0,-4.1725,6.709582351723313e-05,7.246641904965238e-59,-1.1477878573994729,0.0009297070024601801,1.0041241570926005e-57,0.5541668523469561,0,70,255.0,255.0,255.0
76,3.8000000000000003,3.0000041503065313,4.4825122714759415e-60,-4.229174050302828,9.158406978127147e-05,9.891479426193512e-59,-1.1187214746793925,4.982284810134841e-05,5.381085139870373e-59,0.6084884564562539,0,70,255.0,255.0,255.0
77,3.85,3.0000084251701833,9.099551671448606e-60,-4.284326879464515,7.207810832736837e-05,7.784750418952319e-59,-1.0869390117538476,-0.0008300613062574754,-8.965024542951846e-58,0.6628100605655513,0,70,255.0,255.0,255.0
78,3.9000000000000004,3.0000106248805687,1.1475334935683334e-59,-4.337822683474789,8.57793915552346e-06,9.264548832416195e-60,-1.0524404686228372,-0.0017099454606163069,-1.8468157599890813e-57,0.7171316646748491,0,70,255.0,255.0,255.0
79,3.95,3.000008549727303,9.234078799945356e-60,-4.389525658323375,-9.891643773426209e-05,-1.068340718093847e-58,-1.0152258452863625,-0.002589829614975131,-2.79712906568297e-57,0.7714532687841464,0,70,255.0,255.0,255.0
80,4.0,3.0,0.0,-4.4393,-0.00025040502234198876,-2.704483577358798e-58,-0.9752951417444231,-0.0034697137693339548,-3.747442371376857e-57,0.8257748728934367,0,70,255.0,255.0,255.0
81,4.05,2.999983710845158,-1.6728963542699021e-59,-4.487013991930838,-0.00038979640158773944,-3.691550378057642e-58,-0.9328936041838222,-0.0021059414004960925,-2.0082483141853193e-58,0.8702866295306054,0,70,255.0,255.0,255.0
82,4.1000000000000005,2.999962156836815,-3.3959989163944633e-59,-4.532552267287852,-0.00046099916239159797,-2.9053084087772995e-58,-0.8882664787913621,-0.000742169031658206,3.3457927085398566e-57,0.9147983861677749,0,70,255.0,255.0,255.0
83,4.15,2.9999387474058934,-4.282653301384034e-59,-4.5758035466794444,-0.00046401330475356157,-3.4575766951779882e-59,-0.8414137655670443,0.0006216033371796562,6.892410248498182e-57,0.9593101428049436,0,70,255.0,255.0,255.0
84,4.2,2.9999168919833137,-3.44620512424907e-59,-4.616656550714025,-0.0003988388286736325,3.987101839720856e-58,-0.7923354645108681,0.0019853757060175185,1.0439027788456507e-56,1.0038218994421124,0,70,255.0,255.0,255.0
85,4.25,2.9999,0.0,-4.655,-0.00026547573415181046,1.0093270118938668e-57,-0.7410315756228334,0.003349148074855382,1.398564532841483e-56,1.0483336560792793,0,70,255.0,255.0,255.0
86,4.3,2.9998906063128357,6.243334189932019e-59,-4.690766781973816,-0.00011639846343365531,1.3777053569611216e-57,-0.6901521085853185,0.0026139427538708457,7.49488474275418e-58,0.9868450254213217,0,70,255.0,255.0,255.0
87,4.3500000000000005,2.9998877474825556,1.2674040498432989e-58,-4.724066451384082,-4.08145876472516e-06,1.0842758593213972e-57,-0.6423470730807008,0.0018787374328862962,-1.2486668379864229e-56,0.9253563947633631,0,70,255.0,255.0,255.0
88,4.4,2.999889585495858,1.59830797119678e-58,-4.755052729807436,7.147527985497593e-05,1.2903851897470365e-58,-0.5976164691089817,0.0011435321119017596,-2.572282523400364e-56,0.8638677641054054,0,70,255.0,255.0,255.0
89,4.45,2.99989428233944,1.2861412617001745e-58,-4.783879338820527,0.00011027175242545045,-1.4880066640789573e-57,-0.5559602966701606,0.0004083267909172233,-3.895898208814305e-56,0.8023791334474479,0,70,255.0,255.0,255.0
90,4.5,2.9999,0.0,-4.8107,0.00011230795894669817,-3.7668596898395873e-57,-0.5173785557642371,-0.00032687853006731216,-5.219513894228247e-56,0.7408905027894912,0,70,255.0,255.0,255.0
91,4.55,2.9999058639034994,-2.330044040545817e-58,-4.835658080173894,0.00013539025532083952,-5.141666390038722e-57,-0.48124996147489674,0.0012501703850329702,-2.797129065683149e-57,0.7042532687841287,0,70,255.0,255.0,255.0
92,4.6000000000000005,2.9999148532329607,-4.730016307733749e-58,-4.858855527175828,0.00023732499744999724,-4.04657259640786e-57,-0.44695322888582384,0.0028272193001332804,4.660088081091706e-56,0.6676160347787655,0,70,255.0,255.0,255.0
93,4.65,2.9999309106106735,-5.964966554648717e-58,-4.880383934090814,0.0004181121853341677,-4.815783089470357e-58,-0.4144883579970198,0.004404268215233563,9.59988906875164e-56,0.6309788007734031,0,70,255.0,255.0,255.0
94,4.7,2.999957978658924,-4.799944534375791e-58,-4.900334894003867,0.0006777518189733519,5.553316472343746e-57,-0.38385534880848377,0.005981317130333845,1.4539690056411572e-55,0.5943415667680405,0,70,255.0,255.0,255.0
95,4.75,3.0,0.0,-4.9188,0.00101624389836755,1.4058111747464482e-56,-0.3550542013202159,0.007558366045434129,1.9479491044071503e-55,0.5577043327626772,0,70,255.0,255.0,255.0
96,4.800000000000001,3.000060338073167,8.695842743190238e-58,-4.935872897330608,0.0013988374421537242,1.9188960203193776e-56,-0.328208045515096,0.0077453757060126196,1.043902778845388e-56,0.5161418994421044,0,70,255.0,255.0,255.0
97,4.8500000000000005,3.000140039585599,1.7652661181091696e-57,-4.951655439912611,0.0017907814689688158,1.510201452631004e-56,-0.3034400113760052,0.007932385366591108,-1.73916854863804e-55,0.47457946612153235,0,70,255.0,255.0,255.0
98,4.9,3.0002395720614476,2.2261558247398088e-57,-4.966251533829309,0.002192075978812832,1.7972747168134466e-57,-0.28075009890294295,0.008119395027169594,-3.5827273751606186e-55,0.4330170328009603,0,70,255.0,255.0,255.0
99,4.95,3.000359403024864,1.7913636875802984e-57,-4.979765085164005,0.0026027209716857724,-2.072525922529602e-56,-0.2601383080959093,0.008306404687748082,-5.426286201683197e-55,0.3914545994803883,0,70,255.0,255.0,255.0
100,5.0,3.0005,0.0,-4.9923,0.003022716447587638,-5.246558730001834e-56,-0.24160463895490428,0.008493414348326574,-7.269845028205776e-55,0.34989216615981644,0,70,255.0,255.0,255.0
101,5.050000000000001,3.000662383803833,-3.245332693221509e-57,-5.003959930503677,0.003485259976068394,-7.161417442273639e-56,-0.2251338564647218,0.0100083267909034,-3.89589820881333e-56,0.3089391334474733,0,70,255.0,255.0,255.0
102,5.1000000000000005,3.0008497884246426,-6.588062841663304e-57,-5.0148475131737325,0.004023549126677982,-5.63614855088323e-56,-0.21071072561015675,0.011523239233480198,6.490665386442989e-55,0.2679861007351309,0,70,255.0,255.0,255.0
103,5.15,3.0010660011435357,-8.308126643494363e-57,-5.025065130591952,0.00463758389941641,-6.707520558306719e-57,-0.19833524639120878,0.013038151676056998,1.3370920593767312e-54,0.22703306802278853,0,70,255.0,255.0,255.0
104,5.2,3.0013148092416193,-6.685460296883621e-57,-5.034715165340114,0.005327364294283677,7.734772042884035e-56,-0.18800741880787797,0.014553064118633798,2.0251175801091632e-54,0.18608003531044615,0,70,255.0,255.0,255.0
105,5.25,3.0016,0.0,-5.0439,0.006092890311279785,1.958042374526089e-55,-0.17972724286016425,0.016067976561210603,2.7131431008415955e-54,0.14512700259810418,0,70,255.0,255.0,255.0
106,5.300000000000001,3.0019245267115027,1.2111746498567013e-56,-5.05272258065469,0.0068841226535687,2.6726773748775178e-55,-0.17352852862601092,0.015581317130345563,1.4539690056407913e-55,0.10282156676802578,0,70,255.0,255.0,255.0
107,5.3500000000000005,3.0022880067158306,2.4586985248544045e-56,-5.061288107392459,0.00765102202431435,2.103439275090192e-55,-0.16944508618336157,0.015094657699480532,-2.4223492997133915e-54,0.06051613093794814,0,70,255.0,255.0,255.0
108,5.4,3.0026892233644085,3.1006350749237646e-56,-5.069702343802884,0.008393588423516748,2.5032807516413538e-56,-0.1674769155322161,0.014607998268615502,-4.9900954999908626e-54,0.01821069510787049,0,70,255.0,255.0,255.0
109,5.45,3.003126960008657,2.4950477499954182e-56,-5.078071053475539,0.009111821851175896,-2.8866562249006527e-55,-0.16762401667257454,0.01412133883775047,-7.557841700268333e-54,-0.02409474072220716,0,70,255.0,255.0,255.0
110,5.5,3.0036,0.0,-5.0865,0.00980572230729179,-7.307513625104172e-55,-0.1698863896044368,0.013634679406885411,-1.0125587900545803e-53,-0.06640017655228325,0,70,255.0,255.0,255.0
111,5.550000000000001,3.0041083093501566,-4.520165330104654e-56,-5.0950937468775646,0.01054624940965783,-9.974567755282706e-55,-0.17419202903123426,0.015986404687755786,-5.426286201681828e-55,-0.10582540051961245,0,70,255.0,255.0,255.0
112,5.6000000000000005,3.0046565847120332,-9.175987815251287e-56,-5.10395205725643,0.011404362776067375,-7.850142245272442e-55,-0.18046892965639807,0.018338129968626122,9.040330660209268e-54,-0.14525062448694093,0,70,255.0,255.0,255.0
113,5.65,3.005250705398831,-1.157172763534562e-55,-5.113173494196512,0.012380062406520436,-9.342370950734685e-56,-0.1887170914799283,0.020689855249496455,1.862328994058672e-53,-0.18467584845426943,0,70,255.0,255.0,255.0
114,5.7,3.0058965507237527,-9.31164497029331e-56,-5.122856620757728,0.013473348301017013,1.0773147695314211e-54,-0.19893651450182495,0.02304158053036679,2.820624922096417e-53,-0.22410107242159794,0,70,255.0,255.0,255.0
115,5.75,3.0066,0.0,-5.1331,0.014684220459557105,2.72720121258906e-54,-0.21112719872208802,0.025393305811237055,3.778920850134162e-53,-0.263526296388926,0,70,255.0,255.0,255.0
116,5.800000000000001,3.00736543588787,1.6869486670561914e-55,-5.1440048318350495,0.015922879707803546,3.722559364625331e-54,-0.22544735524905035,0.02415306411861992,2.0251175801086503e-54,-0.30927996468955943,0,70,255.0,255.0,255.0
117,5.8500000000000005,3.0081912544360363,3.424525273615074e-55,-5.155682863581822,0.01709952687141911,2.929712970599958e-54,-0.24205519519104407,0.02291282242600281,-3.373897334112369e-53,-0.3550336329901921,0,70,255.0,255.0,255.0
118,5.9,3.0090743550402683,4.3186275466458724e-55,-5.168248479411071,0.018214161950403818,3.4866203051297365e-55,-0.26095071854806945,0.021672580733385696,-6.950306426235602e-53,-0.40078730129082474,0,70,255.0,255.0,255.0
119,5.95,3.0100116370963335,3.475153213117782e-55,-5.181816063493546,0.019266784944757673,-4.020593455635619e-54,-0.28213392532012643,0.020432339040768584,-1.0526715518358837e-52,-0.4465409695914574,0,70,255.0,255.0,255.0
120,6.0,3.011,0.0,-5.1965,0.020257395854480668,-1.0178053487845822e-53,-0.30560481550721497,0.0191920973481515,-1.4103124610482068e-52,-0.4922946378920878,0,70,255.0,255.0,255.0
121,6.050000000000001,3.012037947098363,-6.2957781352142995e-55,-5.212405325782239,0.021282231759128214,-1.3892780682973054e-53,-0.3308025499725726,0.021801338837749693,-7.557841700266428e-54,-0.515614740722203,0,70,255.0,255.0,255.0
122,6.1000000000000005,3.013130397543821,-1.278050231293517e-54,-5.2295996884162825,0.02243752973825565,-1.0933837657872589e-53,-0.3571662895794355,0.02441058032734784,1.2591556270428545e-52,-0.5389348435523179,0,70,255.0,255.0,255.0
123,6.15,3.014283874440097,-1.6117337423048925e-54,-5.248141388159208,0.023723289791862986,-1.3012244125445504e-54,-0.3846960343278042,0.02701982181694599,2.5938896710883733e-52,-0.5622549463824328,0,70,255.0,255.0,255.0
124,6.2,3.0155049008909156,-1.2969448355441793e-54,-5.268088725268089,0.025139511919950234,1.5005059053011048e-53,-0.41339178421767864,0.029629063306544138,3.928623715133892e-52,-0.5855750492125475,0,70,255.0,255.0,255.0
125,6.25,3.0168,0.0,-5.2895,0.02668619612251739,3.7985012738794226e-53,-0.44325353924905875,0.03223830479614234,5.26335775917941e-52,-0.6088951520426624,0,70,255.0,255.0,255.0
126,6.300000000000001,3.018173175718677,2.3496163873801007e-54,-5.312396265035997,0.028212193255680446,5.184856336726687e-53,-0.472046444860665,0.02880158053037887,2.8206249220957074e-53,-0.5428210724215705,0,70,255.0,255.0,255.0
127,6.3500000000000005,3.0196183553886797,4.76974839781256e-54,-5.33664958275305,0.029566354175555296,4.080563766089039e-53,-0.4975356464912161,0.025364856264615456,-4.699232774760181e-52,-0.47674699280047983,0,70,255.0,255.0,255.0
128,6.4,3.0211269471993445,6.015072214554984e-54,-5.362094767952102,0.03074867888214198,4.856235619665236e-54,-0.5197211441407128,0.021928131998852046,-9.680528041729932e-52,-0.41067291317938914,0,70,255.0,255.0,255.0
129,6.45,3.022690359340006,4.8402640208649393e-54,-5.388566635434103,0.03175916737544049,-5.59996427564086e-53,-0.5386029378091549,0.018491407733088633,-1.4661823308699684e-51,-0.34459883355829846,0,70,255.0,255.0,255.0
130,6.5,3.0243,0.0,-5.4159,0.03259781965545083,-1.4176199746733108e-52,-0.5541810274965425,0.015054683467325192,-1.9643118575669435e-51,-0.278524753937206,0,70,255.0,255.0,255.0
131,6.550000000000001,3.0259493500269294,-8.768887735998973e-54,-5.443962414073772,0.033388995218152986,-1.9350147278609448e-52,-0.5684196705847598,0.016592339040760497,-1.052671551835618e-52,-0.29102096959147694,0,70,255.0,255.0,255.0
132,6.6000000000000005,3.02764018090146,-1.7800943359956725e-53,-5.472752380571521,0.03425705355952689,-1.5228871298568898e-52,-0.5832831244556903,0.01812999461419577,1.7537775471997867e-51,-0.30351718524574767,0,70,255.0,255.0,255.0
133,6.65,3.0293763367625264,-2.244855511591504e-53,-5.502301140032386,0.03520199467957256,-1.8123718066116375e-53,-0.5987713891093345,0.019667650187631048,3.6128222495831354e-51,-0.3160134009000184,0,70,255.0,255.0,255.0
134,6.7,3.0311616617490618,-1.806411124791557e-53,-5.532639932995499,0.03622381857828999,2.0899351197262327e-52,-0.614884464545692,0.021205305761066322,5.471866951966485e-51,-0.3285096165542891,0,70,255.0,255.0,255.0
135,6.75,3.033,0.0,-5.5638,0.03732252525567918,5.290629771305301e-52,-0.6316223507647633,0.022742961334501488,7.330911654349831e-51,-0.34100583220855984,0,70,255.0,255.0,255.0
136,6.800000000000001,3.034894224173607,3.2725934556615787e-53,-5.595804478668918,0.03843982587170536,7.221573277771109e-52,-0.6484988728002918,0.021949063306544947,3.928623715132884e-52,-0.3340550492125712,0,70,255.0,255.0,255.0
137,6.8500000000000005,3.03684332100548,6.643402504201432e-53,-5.628644094960865,0.03951743158633369,5.683492142818653e-52,-0.6650278556860205,0.02115516527858842,-6.545186911323131e-51,-0.3271042662165827,0,70,255.0,255.0,255.0
138,6.9,3.03884530575055,8.377914824910516e-53,-5.662301471918356,0.04055534239956419,6.7638636644800115e-53,-0.68120929942195,0.020361267250631893,-1.348323619415955e-50,-0.32015348322059417,0,70,255.0,255.0,255.0
139,6.95,3.040898193663747,6.741618097079737e-53,-5.696759232583897,0.04155355831139687,-7.799744051340848e-52,-0.6970432040080798,0.019567369222675365,-2.042128547699597e-50,-0.3132027002246056,0,70,255.0,255.0,255.0
140,7.0,3.043,0.0,-5.732,0.042512079321831715,-1.9744899110547892e-51,-0.7125295694444104,0.01877347119471856,-2.7359334759832384e-50,-0.30625191722862066,0,70,255.0,255.0,255.0
141,7.050000000000001,3.045148953278643,-1.2213485049046418e-52,-5.768008471250561,0.04344370129502691,-2.695127838322349e-51,-0.727792838214083,0.018491407733088557,-1.4661823308695968e-51,-0.30427883355827395,0,70,255.0,255.0,255.0
142,7.1000000000000005,3.0473441350766177,-2.4793515680810056e-52,-5.804777639585017,0.04436122009514058,-2.1211081441417727e-51,-0.742957452800238,0.01820934427145856,2.4426970098092725e-50,-0.30230574988792736,0,70,255.0,255.0,255.0
143,7.15,3.0495848402352723,-3.1266803788050564e-52,-5.842302572294193,0.04526463572217276,-2.524308285130857e-52,-0.7580234132028756,0.01792728080982856,5.032012252705505e-50,-0.3003326662175807,0,70,255.0,255.0,255.0
144,7.2,3.0518703635959508,-2.516006126352739e-52,-5.880578336668912,0.04615394817612343,2.9109041085637135e-51,-0.7729907194219959,0.017645217348198558,7.621327495601738e-50,-0.29835958254723405,0,70,255.0,255.0,255.0
145,7.25,3.0542,0.0,-5.9196,0.047029157456992605,7.368896667088626e-51,-0.7878593714575988,0.01736315388656856,1.0210642738497969e-49,-0.2963864988768865,0,70,255.0,255.0,255.0
146,7.300000000000001,3.056573162711822,4.558134674052409e-52,-5.959362436328843,0.04789736894818351,1.0058354025512283e-50,-0.8026177743433782,0.017365305761066752,5.471866951965104e-51,-0.2939496165542838,0,70,255.0,255.0,255.0
147,7.3500000000000005,3.058989738688047,9.25306602190388e-52,-5.9998597466990695,0.04876568803309929,7.916083362285225e-51,-0.8172543331130273,0.017367457635564944,-9.116269348104777e-50,-0.2915127342316811,0,70,255.0,255.0,255.0
148,7.4,3.061449733308361,1.1668930032729172e-51,-6.041085838904876,0.049634114711739986,9.420846774075356e-52,-0.8317690477665463,0.017369609510063132,-1.8779725391406065e-49,-0.2890758519090784,0,70,255.0,255.0,255.0
149,7.45,3.0639531519524494,9.389862695702977e-52,-6.083034620740455,0.0505026489841056,-1.086364202912077e-50,-0.8461619183039351,0.017371761384561323,-2.8443181434707357e-49,-0.2866389695864758,0,70,255.0,255.0,255.0
150,7.5,3.0665,0.0,-6.1257,0.05137129085019611,-2.7501096757299717e-50,-0.8604329447251937,0.01737391325905946,-3.810663747800865e-49,-0.2842020872638713,0,70,255.0,255.0,255.0
151,7.550000000000001,3.0690903958740687,-1.7011190191304997e-51,-6.169075383434074,0.0522468229122396,-3.753828826372679e-50,-0.8745520644124061,0.017647369222679715,-2.0421285476990818e-50,-0.2805627002246143,0,70,255.0,255.0,255.0
152,7.6000000000000005,3.0717249101711936,-3.4532912519534514e-51,-6.213152173618709,0.05313602777246409,-2.954322530499913e-50,-0.8884892147476553,0.017920825186299963,3.4022380382609846e-49,-0.27692331318535746,0,70,255.0,255.0,255.0
153,7.65,3.0744042265312843,-4.354903975211163e-51,-6.257921272086306,0.05403890543086959,-3.515907881117072e-51,-0.9022443957309416,0.01819428114992021,7.008688931291876e-49,-0.2732839261461006,0,70,255.0,255.0,255.0
154,7.7,3.0771290285942503,-3.504344465645918e-51,-6.303373580369269,0.0549554558874561,4.054366400791938e-50,-0.9158176073622653,0.018467737113540463,1.061513982432277e-48,-0.26964453910684366,0,70,255.0,255.0,255.0
155,7.75,3.0799,0.0,-6.3495,0.05588567914222363,1.0263549036211024e-49,-0.929208849641626,0.0187411930771606,1.4221590717353662e-48,-0.266005152067585,0,70,255.0,255.0,255.0
156,7.800000000000001,3.0827172537919036,6.348662609116758e-51,-6.396292029934866,0.05679533940285741,1.400947990293949e-49,-0.9424539680069964,0.017645217348189985,7.621327495599824e-50,-0.2637995825472281,0,70,255.0,255.0,255.0
157,7.8500000000000005,3.085578620627178,1.2887858405623415e-50,-6.4437435588261,0.05765020087704264,1.1025681785771133e-49,-0.9555888078963489,0.01654924161921939,-1.269732521823346e-48,-0.26159401302687113,0,70,255.0,255.0,255.0
158,7.9,3.0884813605665005,1.6252722897571738e-50,-6.4918490727499005,0.05845026356477934,1.3121546847060763e-50,-0.9686133693096834,0.015453265890248794,-2.61567831860269e-48,-0.2593884435065142,0,70,255.0,255.0,255.0
159,7.95,3.091422733670549,1.3078391593013372e-50,-6.540603057782468,0.05919552746606751,-1.5131101400255678e-49,-0.9815276522470003,0.014357290161278197,-3.961624115382034e-48,-0.2571828739861573,0,70,255.0,255.0,255.0
160,8.0,3.0944,0.0,-6.59,0.059885992580907155,-3.8304086469114126e-49,-0.9943316567082991,0.013261314432307492,-5.307569912161378e-48,-0.2549773044657968,0,70,255.0,255.0,255.0
161,8.05,3.0974109889583157,-2.3693531417336527e-50,-6.640034096826464,0.060555819476329105,-5.228409078538528e-49,-1.0070080635596066,0.0135317613845702,-2.84431814347002e-49,-0.2520789695864863,0,70,255.0,255.0,255.0
162,8.1,3.1004558073200927,-4.809814237053986e-50,-6.690698391076894,0.06123916871936417,-4.1148404612585036e-49,-1.0195395536669476,0.013802208336832898,4.7387062834671955e-48,-0.24918063470717586,0,70,255.0,255.0,255.0
163,8.15,3.103535131202712,-6.065598761507578e-50,-6.741985636914094,0.06193604031001239,-4.897027950712579e-50,-1.031926127030324,0.014072655289095605,9.761844381281572e-48,-0.24628229982786534,0,70,255.0,255.0,255.0
164,8.200000000000001,3.1066496367235548,-4.880922190640707e-50,-6.793888588500862,0.06264643424827375,5.6470039200232055e-49,-1.0441677836497345,0.014343102241358313,1.478498247909595e-47,-0.24338396494855483,0,70,255.0,255.0,255.0
165,8.25,3.1098,0.0,-6.8464,0.06337035053414822,1.429527968402455e-48,-1.056264523525179,0.01461354919362079,1.9808120576910152e-47,-0.24048563006924262,0,70,255.0,255.0,255.0
166,8.3,3.1129867903748325,8.842546306022936e-50,-6.899512382759278,0.06410138269182727,1.951268832386016e-48,-1.0682017777545811,0.014627737113540774,1.061513982432013e-48,-0.2370045391068348,0,70,255.0,255.0,255.0
167,8.35,3.116210150092449,1.795047110765361e-49,-6.953217276866322,0.06483312424550229,1.535679366645689e-48,-1.0799649774358626,0.014641925033460757,-1.768509261204546e-47,-0.2335234481444271,0,70,255.0,255.0,255.0
168,8.4,3.11947011462265,2.2637122756273143e-49,-7.007505979593729,0.06556557519517334,1.8275957118144372e-49,-1.0915541225690237,0.01465611295338074,-3.643169920652359e-47,-0.23004235718201932,0,70,255.0,255.0,255.0
169,8.450000000000001,3.1227667194352335,1.821584960326151e-49,-7.062369788214091,0.06629873554084038,-2.1074905540067218e-48,-1.1029692131540647,0.014670300873300724,-5.517830580100173e-47,-0.22656126621961148,0,70,255.0,255.0,255.0
170,8.5,3.1261,0.0,-7.1178,0.0670326052825034,-5.3350710089186784e-48,-1.1142102491909849,0.014684488793221151,-7.392491239547921e-47,-0.2230801752572038,0,70,255.0,255.0,255.0
171,8.55,3.1294698495423536,-3.3000832082358096e-49,-7.173788372136425,0.06775864975636568,-7.282234421690211e-48,-1.125304825422069,0.014357290161269848,-3.961624115381037e-48,-0.22070287398615596,0,70,255.0,255.0,255.0
172,8.6,3.13287559231011,-6.6992070193560465e-49,-7.230328501457814,0.06846833429863039,-5.731233420456903e-48,-1.1362805365896003,0.014030091529318557,6.600166416471466e-47,-0.21832557271510816,0,70,255.0,255.0,255.0
173,8.65,3.13631641030669,-8.448289226358498e-49,-7.287414444710992,0.06916165890929754,-6.820680052186471e-49,-1.1471373826935798,0.013702892897367256,1.3596495244481282e-46,-0.2159482714440603,0,70,255.0,255.0,255.0
174,8.700000000000001,3.1397914855355133,-6.798247622240533e-49,-7.345040258642781,0.06983862358836714,7.865261824024573e-48,-1.157875363734007,0.013375694265415954,2.05928240724911e-46,-0.21357097017301244,0,70,255.0,255.0,255.0
175,8.75,3.1433,0.0,-7.4032,0.07049922833583915,1.991075606727226e-47,-1.1684944797108812,0.013048495633464774,2.7589152900500665e-46,-0.21119366890195934,0,70,255.0,255.0,255.0
176,8.8,3.1468410114557535,1.2316078202340944e-48,-7.461887728695025,0.07113601828270984,2.717766885437483e-47,-1.1789949205571444,0.012423102241362574,1.4784982479092094e-47,-0.2088239649485622,0,70,255.0,255.0,255.0
177,8.85,3.150413080667111,2.5001780966658816e-48,-7.52109751730242,0.0717415385599754,2.138925431518193e-47,-1.1893768762057373,0.011797708849260395,-2.4632156404681313e-46,-0.20645426099516515,0,70,255.0,255.0,255.0
178,8.9,3.154014644150591,3.1529444629806675e-48,-7.580823441562305,0.07231578916763587,2.5455124496931345e-48,-1.1996403466566607,0.011172315457158195,-5.0742811057272764e-46,-0.204084557041768,0,70,255.0,255.0,255.0
179,8.950000000000001,3.157644138422714,2.5371405528635987e-48,-7.641059577214793,0.07285877010569124,-2.935355674209155e-47,-1.2097853319099143,0.010546922065055996,-7.685346570986423e-46,-0.20171485308837087,0,70,255.0,255.0,255.0
180,9.0,3.1613,0.0,-7.7018,0.07337048137414147,-7.430795326017035e-47,-1.2198118319654976,0.009921528672953372,-1.0296412036245474e-45,-0.19934514913497559,0,70,255.0,255.0,255.0
181,9.05,3.1649813046346322,-4.596422960112796e-48,-7.76303831308348,0.07388927711279783,-1.014284409958091e-46,-1.229691492349362,0.010830300873301137,-5.517830580098744e-47,-0.19584126621960068,0,70,255.0,255.0,255.0
182,9.1,3.1686896850214468,-9.330791684727923e-48,-7.824766229332507,0.07445351146147157,-7.982578384027079e-47,-1.2393959585874577,0.01173907307364887,9.19284592022538e-46,-0.19233738330422592,0,70,255.0,255.0,255.0
183,9.15,3.1724274130909462,-1.176694892928682e-47,-7.886974989039796,0.07506318442016273,-9.499981793553888e-48,-1.2489252306797847,0.012647845273996634,1.893747489846098e-45,-0.18883350038885102,0,70,255.0,255.0,255.0
184,9.200000000000001,3.1761967607736303,-9.46873744923034e-48,-7.949655832498057,0.07571829598887125,1.0954896514434162e-46,-1.2582793086263429,0.013556617474344399,2.868210387669658e-45,-0.18532961747347612,0,70,255.0,255.0,255.0
185,9.25,3.18,0.0,-8.0128,0.07641884616759716,2.7732105697340916e-46,-1.2674581924271324,0.014465389674691909,3.8426732854931823e-45,-0.18182573455809958,0,70,255.0,255.0,255.0
186,9.3,3.1838385700057197,1.715408402021709e-47,-8.076399018971061,0.07711487326609966,3.785360951288616e-46,-1.2764791100454103,0.01337569426540753,2.0592824072485746e-46,-0.17901097017300455,0,70,255.0,255.0,255.0
187,9.35,3.1877105792471028,3.482298864224581e-47,-8.140445565367552,0.0777564155941379,2.979138810459013e-46,-1.2853592894444328,0.012285998856123189,-3.430816804043338e-45,-0.1761962057879096,0,70,255.0,255.0,255.0
188,9.4,3.1916133034856258,4.391485125416662e-47,-8.204932602278516,0.07834347315171196,3.545441472452245e-47,-1.294098730624201,0.01119630344683881,-7.067561848811663e-45,-0.17338144140281456,0,70,255.0,255.0,255.0
189,9.450000000000001,3.195544018482766,3.5337809244057775e-47,-8.269853092792989,0.0788760459388218,-4.088423038352749e-46,-1.3026974335847146,0.010106608037554431,-1.0704306893579987e-44,-0.17056667701771952,0,70,255.0,255.0,255.0
190,9.5,3.1995,0.0,-8.3352,0.0793541339554674,-1.0349762746334662e-45,-1.311155398325973,0.009016912628269869,-1.4341051938348184e-44,-0.16775191263262101,0,70,255.0,255.0,255.0
191,9.55,3.2034788153424905,-6.401991312075556e-47,-8.400966411032282,0.07979522982280066,-1.4127159395196373e-45,-1.3194800674689984,0.008626922065060254,-7.685346570984444e-46,-0.16523485308838626,0,70,255.0,255.0,255.0
192,9.600000000000001,3.2074791979901445,-1.2996116288425728e-46,-8.467145909197281,0.08021682616197345,-1.1118297403433117e-45,-1.3276788836348117,0.008236931501850642,1.2803982624151295e-44,-0.16271779354415153,0,70,255.0,255.0,255.0
193,9.65,3.2115001729665518,-1.6389245608737964e-46,-8.53373220184614,0.08061892297298573,-1.3231767710453621e-46,-1.3357518468234133,0.007846940938641042,2.6376499905400554e-44,-0.16020073399991686,0,70,255.0,255.0,255.0
194,9.700000000000001,3.2155407652953065,-1.3188249952700064e-46,-8.60071899633,0.08100152025583755,1.5258202501967583e-45,-1.3436989570348035,0.0074569503754314285,3.9949017186650296e-44,-0.1576836744556821,0,70,255.0,255.0,255.0
195,9.75,3.2196,0.0,-8.6681,0.08136461801052888,3.8625840415604556e-45,-1.3515202142689817,0.007066959812221496,5.352153446789956e-44,-0.15516661491144568,0,70,255.0,255.0,255.0
196,9.8,3.2236773686243176,2.389255684628052e-46,-8.735868936899825,0.08173620744269337,5.2723276629496883e-45,-1.3592166200786042,0.007796617474357569,2.868210387668921e-45,-0.15268961747344922,0,70,255.0,255.0,255.0
197,9.850000000000001,3.227774228792321,4.8502166289478285e-46,-8.804019597843332,0.08214427975796466,4.1494050803273505e-45,-1.3667891760163269,0.008526275136493643,-4.778511369256172e-44,-0.15021262003545274,0,70,255.0,255.0,255.0
198,9.9,3.2318924046481654,6.116549730953521e-46,-8.872545790336925,0.08258883495634271,4.9381629369361945e-46,-1.3742378820821493,0.00925593279862969,-9.843843777279057e-44,-0.14773562259745637,0,70,255.0,255.0,255.0
199,9.950000000000001,3.2360337203360072,4.9219218886394525e-46,-8.941441321887014,0.08306987303782762,-5.694438696951759e-45,-1.3815627382760725,0.009985590460765763,-1.490917618530212e-43,-0.1452586251594599,0,70,255.0,255.0,255.0
200,10.0,3.2402,0.0,-9.0107,0.08358739400241928,-1.4415359891608355e-44,-1.3887637445980952,0.010715248122901477,-1.9974508593324996e-43,-0.14278162772146175,0,70,255.0,255.0,255.0
201,10.05,3.244392510160239,-8.91682360730465e-46,-9.080315441368432,0.08410794040643048,-1.9676594712279108e-44,-1.3958294522165748,0.01010660803754583,-1.0704306893577192e-44,-0.1398466770177222,0,70,255.0,255.0,255.0
202,10.100000000000001,3.2486102868405724,-1.8101254886948738e-45,-9.150280499429407,0.08459805480617387,-1.5485790580966084e-44,-1.4027484122998677,0.009497967952190184,1.7833647214609558e-43,-0.13691172631398266,0,70,255.0,255.0,255.0
203,10.15,3.2528518084407856,-2.282727436294028e-45,-9.220587836806164,0.0850577372016495,-1.8429474976699466e-45,-1.409520624847973,0.008889327866834558,3.6737725118576165e-43,-0.1339767756102432,0,70,255.0,255.0,255.0
204,10.200000000000001,3.2571155533606664,-1.836886255928779e-45,-9.29123011612195,0.08548698759285733,2.125193453761028e-44,-1.4161460898608917,0.008280687781478911,5.564180302254344e-43,-0.13104182490650368,0,70,255.0,255.0,255.0
205,10.25,3.2614,0.0,-9.3622,0.08588580597979738,5.379885552487296e-44,-1.4226248073386232,0.007672047696123285,7.454588092651003e-43,-0.12810687420276246,0,70,255.0,255.0,255.0
206,10.3,3.265703790734727,3.327803874459055e-45,-9.433490097626459,0.08626403093158604,7.343405118616675e-44,-1.4289535710550854,0.0074569503754229076,3.9949017186639876e-44,-0.12504367445572515,0,70,255.0,255.0,255.0
207,10.350000000000001,3.2700262238453917,6.755480291884712e-45,-9.505092804439053,0.08663150101733968,5.7793757243537e-44,-1.4351291747841959,0.00724185305472253,-6.655607748918206e-43,-0.12198047470868785,0,70,255.0,255.0,255.0
208,10.4,3.274366761588693,8.519254772080757e-45,-9.57700046243842,0.08698821623705828,6.877973696986177e-45,-1.441151618525954,0.00702675573402216,-1.371070566970256e-42,-0.11891727496165065,0,70,255.0,255.0,255.0
209,10.450000000000001,3.2787248662213297,6.855352834851175e-45,-9.649205413625193,0.08733417659074189,-7.931329945348931e-44,-1.447020902280361,0.006811658413321781,-2.0765803590487163e-42,-0.11585407521461336,0,70,255.0,255.0,255.0
210,10.5,3.2831,0.0,-9.7217,0.08766938207839046,-2.0078006220788346e-43,-1.4527370260474155,0.006596561092620967,-2.7820901511271522e-42,-0.1127908754675726,0,70,255.0,255.0,255.0
211,10.55,3.2874915269008556,-1.2419533137105755e-44,-9.794476968125746,0.08798793586722535,-2.740596100323879e-43,-1.4583242635630909,0.006145590460774313,-1.4909176185298279e-43,-0.11069862515943531,0,70,255.0,255.0,255.0
212,10.600000000000001,3.2918984177778627,-2.521179567884397e-44,-9.867530682814388,0.08828394112446791,-2.1568923839318196e-43,-1.4638068885633593,0.005694619828927659,2.4839066274211866e-42,-0.10860637485129801,0,70,255.0,255.0,255.0
213,10.65,3.296319545204442,-3.179429165202901e-44,-9.940855913440156,0.08855739785011811,-2.566894729027477e-44,-1.4691849010482205,0.005243649197081021,5.116905016695262e-42,-0.10651412454316078,0,70,255.0,255.0,255.0
214,10.700000000000001,3.3007537817540147,-2.55845250834759e-44,-10.014447429377284,0.088808306044176,2.9600126327634707e-43,-1.4744583010176753,0.004792678565234366,7.749903405969431e-42,-0.1044218742350235,0,70,255.0,255.0,255.0
215,10.75,3.3052,0.0,-10.0883,0.08903666570664157,7.49321393306661e-43,-1.4796270884717229,0.0043417079333878394,1.0382901795243505e-41,-0.10232962392687917,0,70,255.0,255.0,255.0
216,10.8,3.3096573016618525,4.635032867396396e-44,-10.162407629870572,0.08925622559951304,1.0228043889433847e-42,-1.4846453746925568,0.0044406877814708885,5.5641803022529025e-43,-0.09840182490647352,0,70,255.0,255.0,255.0
217,10.850000000000001,3.314125705043158,9.409170242349116e-44,-10.236761264303407,0.08948073448478866,8.049631963291906e-43,-1.4894672709623702,0.004539667629553937,-9.270065734792924e-42,-0.09447402588606787,0,70,255.0,255.0,255.0
218,10.9,3.318605457593538,1.1865791183603527e-43,-10.311351083800957,0.08971019236246842,9.57978154641132e-44,-1.4940927772811636,0.004638647477636982,-1.909654949981079e-41,-0.09054622686566238,0,70,255.0,255.0,255.0
219,10.950000000000001,3.323096806762612,9.548274749905247e-44,-10.386167268865671,0.08994459923255237,-1.1046917536518979e-42,-1.4985218936489366,0.00473762732572003,-2.8923033264829003e-41,-0.08661842784525674,0,70,255.0,255.0,255.0
220,11.0,3.3276,0.0,-10.4612,0.09018395509504043,-2.7965055110187602e-42,-1.5027546200656894,0.00483660717380352,-3.874951702984687e-41,-0.0826906288248459,0,70,255.0,255.0,255.0
221,11.05,3.3321152664517357,-1.7298178155875006e-43,-10.53644051239198,0.09042716173471867,-3.81715794574115e-42,-1.5068542376666763,0.00489165841332624,-2.0765803590481756e-42,-0.08129407521462254,0,70,255.0,255.0,255.0
222,11.100000000000001,3.3366427620495047,-3.5115501401512076e-43,-10.611884259971994,0.09067312093637306,-3.004163546923581e-42,-1.5108840275871518,0.004946709652848959,3.459635631175052e-41,-0.07989752160439917,0,70,255.0,255.0,255.0
223,11.15,3.341182624421406,-4.42837355692112e-43,-10.687527751356017,0.09092183270000358,-3.575223145661763e-43,-1.514843989827116,0.005001760892371677,7.126929298254791e-41,-0.07850096799417584,0,70,255.0,255.0,255.0
224,11.200000000000001,3.345734991195538,-3.563464649127339e-43,-10.76336749516003,0.09117329702561022,4.1227657513312497e-42,-1.5187341243865693,0.005056812131894396,1.079422296533466e-40,-0.07710441438395248,0,70,255.0,255.0,255.0
225,11.25,3.3503,0.0,-10.8394,0.09142751391319301,1.043670065076838e-41,-1.522554431265511,0.0051118633714171136,1.4461516632414398e-40,-0.07570786077372382,0,70,255.0,255.0,255.0
226,11.3,3.3548776325312044,6.455767975610364e-43,-10.915620720561519,0.09167512746160952,1.424582739402122e-41,-1.5262416746407308,0.00479267856524292,7.749903405967401e-42,-0.0717818742350626,0,70,255.0,255.0,255.0
227,11.350000000000001,3.3594672467588227,1.3105283536369917e-42,-10.992020895808626,0.0919067817697173,1.1211690991365134e-41,-1.5297326186890172,0.004473493759068727,-1.2911535951220918e-40,-0.06785588769640138,0,70,255.0,255.0,255.0
228,11.4,3.3640680447208378,1.6526915109324128e-42,-11.06859071077497,0.09212247683751638,1.3342914428005878e-42,-1.5330272634103708,0.004154308952894545,-2.6598062243038084e-40,-0.0639299011577403,0,70,255.0,255.0,255.0
229,11.450000000000001,3.368679228455236,1.329903112151883e-42,-11.145320350494213,0.09232221266500676,-1.5386371251673096e-41,-1.5361256088047914,0.003835124146720352,-4.028458853485574e-40,-0.060003914619079085,0,70,255.0,255.0,255.0
230,11.5,3.3733,0.0,-11.2222,0.09250598925218842,-3.895029709205476e-41,-1.5390276548722788,0.0035159393405461703,-5.3971114826672905e-40,-0.056077928080418005,0,70,255.0,255.0,255.0
231,11.55,3.3779294034234457,-2.4093254086853955e-42,-11.299220605361953,0.09266432841884498,-5.316615163034373e-41,-1.5417790637704192,0.0028176273257161447,-2.892303326482152e-41,-0.053978427845196436,0,70,255.0,255.0,255.0
232,11.600000000000001,3.3825658509152055,-4.890958400532847e-42,-11.376376156793516,0.09278775198476004,-4.184260041853695e-41,-1.5444254976567984,0.0021193153108861186,4.81865081737086e-40,-0.05187892760997486,0,70,255.0,255.0,255.0
233,11.65,3.3872075966952426,-6.167928688037538e-42,-11.4536614055441,0.09287625994993358,-4.979643456636194e-42,-1.5469669565314166,0.0014210032960561177,9.926531967389753e-40,-0.04977942737475337,0,70,255.0,255.0,255.0
234,11.700000000000001,3.39185289498352,-4.963265983694799e-42,-11.531071102863129,0.09292985231436564,5.742271925536113e-41,-1.5494034403942738,0.0007226912812260916,1.5034413117408827e-39,-0.0476799271395318,0,70,255.0,255.0,255.0
235,11.75,3.3965,0.0,-11.6086,0.09294852907805622,1.4536448771745066e-40,-1.5517349492453698,2.437926639597965e-05,2.014229426742773e-39,-0.045580426904303195,0,70,255.0,255.0,255.0
236,11.8,3.4011479537750127,8.991724837180545e-42,-11.686242457990682,0.09297955886301326,1.984187791273537e-40,-1.5539380702775765,0.0012168121318861971,1.0794222965331894e-40,-0.04254441438395875,0,70,255.0,255.0,255.0
237,11.850000000000001,3.4057989495803564,1.8253305248494398e-41,-11.763991277017327,0.09307021029124483,1.5615871068278266e-40,-1.5559893906837656,0.0024092449973764146,-1.798344967436135e-39,-0.03950840186361431,0,70,255.0,255.0,255.0
238,11.9,3.4104559684981925,2.3019023241217755e-41,-11.841838867048624,0.09322048336275092,1.8584282383744214e-41,-1.5578889104639377,0.00360167786286659,-3.704632164525521e-39,-0.036472389343269976,0,70,255.0,255.0,255.0
239,11.950000000000001,3.4151219916106856,1.8523160822627318e-41,-11.919777638053286,0.0934303780775315,-2.1430450576977144e-40,-1.5596366296180928,0.004794110728356807,-5.610919361614975e-39,-0.03343637682292553,0,70,255.0,255.0,255.0
240,12.0,3.4198,0.0,-11.9978,0.09369989443558657,-5.425076537777479e-40,-1.5612325481462304,0.005986543593846427,-7.517206558704362e-39,-0.030400364302577643,0,70,255.0,255.0,255.0
241,12.05,3.4244915814765022,-3.355757394003679e-41,-12.075898362675321,0.09394543612910075,-7.40508964879071e-40,-1.5626766551192728,0.003835124146720195,-4.0284588534845474e-40,-0.02736391461912109,0,70,255.0,255.0,255.0
242,12.100000000000001,3.4291927507633706,-6.812226259344473e-41,-12.154065135137193,0.0940834068502586,-5.82792242312594e-40,-1.5639689396081426,0.001683704699593963,6.711514788007452e-39,-0.024327464935664535,0,70,255.0,255.0,255.0
243,12.15,3.4338981293119883,-8.590816427683345e-41,-12.232292726261399,0.09411380659906014,-6.935748607834097e-41,-1.5651094016128393,-0.00046771474753219255,1.3825875461363107e-38,-0.02129101525220809,0,70,255.0,255.0,255.0
244,12.200000000000001,3.4386023385737374,-6.912937730681447e-41,-12.310573544923741,0.09403663537550537,7.997953038237244e-40,-1.5660980411333632,-0.002619134194658425,2.0940236134719016e-38,-0.01825456556875154,0,70,255.0,255.0,255.0
245,12.25,3.4433,0.0,-12.3889,0.0938518931795943,2.024666127393541e-39,-1.5669348581697147,-0.004770553641784359,2.805459680807467e-38,-0.015218115885289762,0,70,255.0,255.0,255.0
246,12.3,3.447987320318979,1.2523857092296658e-40,-12.467264891308032,0.09365469662058057,2.7636170803889304e-39,-1.5676433092453346,-0.0031173087187646984,1.5034413117404955e-39,-0.01311992713950471,0,70,255.0,255.0,255.0
247,12.350000000000001,3.45266684736616,2.5423574512528457e-40,-12.545662582433913,0.09354016230771783,2.175010258567593e-39,-1.5682468508836651,-0.0014640637957450383,-2.504771418459368e-38,-0.011021738393719656,0,70,255.0,255.0,255.0
248,12.4,3.4573427142538526,3.2061363386611596e-40,-12.624087827905777,0.09350829024100606,2.5884566192961738e-40,-1.5687454830847065,0.00018918112727456336,-5.159886968092692e-38,-0.008923549647934678,0,70,255.0,255.0,255.0
249,12.450000000000001,3.462019054094364,2.5799434840463064e-40,-12.702535382251762,0.09355908042044528,-2.984876709525128e-39,-1.5691392058484586,0.001842426050294223,-7.815002517726109e-38,-0.006825360902149623,0,70,255.0,255.0,255.0
250,12.5,3.4667,0.0,-12.781,0.09369253284603549,-7.556156855796416e-39,-1.5694280191749213,0.0034956709733136027,-1.047011806735943e-37,-0.004727172156359316,0,70,255.0,255.0,255.0
251,12.55,3.4713887372475827,-4.673967097518296e-40,-12.859475672092556,0.09385177738857735,-1.031395935667665e-38,-1.5695661078994028,0.0028741107283608257,-5.610919361613531e-39,-0.0007963768228978702,0,70,255.0,255.0,255.0
252,12.600000000000001,3.4760846597719866,-9.488207179076935e-40,-12.937953335127165,0.09397994391887157,-8.117248791957775e-39,-1.569507656857211,0.002252550483408049,9.347934195036724e-38,0.0031344185105635757,0,70,255.0,255.0,255.0
253,12.65,3.480786213672599,-1.1965463711876307e-39,-13.016423162115498,0.09407703243691816,-9.660251616401347e-40,-1.5692526660483463,0.0016309902384552943,1.9256960326234453e-37,0.007065213844024882,0,70,255.0,255.0,255.0
254,12.700000000000001,3.485491845048808,-9.628480163117073e-40,-13.094875326069223,0.0941430429427171,1.1139711534276778e-38,-1.5688011354728084,0.0010094299935025177,2.916598645743253e-37,0.010996009177486329,0,70,255.0,255.0,255.0
255,12.75,3.4902,0.0,-13.1733,0.0941779754362684,2.819996129579212e-38,-1.5681530651305975,0.0003878697485494298,3.907501258863026e-37,0.014926804510956515,0,70,255.0,255.0,255.0
256,12.8,3.4949089306906895,1.744348268084352e-39,-13.25168842032176,0.09417019382511534,3.849222034631767e-38,-1.5673722591570425,-0.0006991341946713291,2.0940236134713608e-38,0.016305434431238573,0,70,255.0,255.0,255.0
257,12.850000000000001,3.4996161135458927,3.541047126505489e-39,-13.33003607705744,0.09410806201680126,3.0293984909263504e-38,-1.5665225216874736,-0.001786138137892088,-3.4886965361687536e-37,0.017684064351520628,0,70,255.0,255.0,255.0
258,12.9,3.504318831055751,4.4655718508844065e-39,-13.408339523632238,0.09399158001132614,3.605254984630923e-39,-1.5656038527218907,-0.0028731420811128083,-7.186795433684512e-37,0.019062694271802638,0,70,255.0,255.0,255.0
259,12.950000000000001,3.5090143657104056,3.593397716842199e-39,-13.48659531347136,0.09382074780868999,-4.157396942758199e-38,-1.5646162522602933,-0.003960146024333568,-1.0884894331200401e-36,0.020441324192084692,0,70,255.0,255.0,255.0
260,13.0,3.5137,0.0,-13.5648,0.09359556540889277,-1.0524368832737207e-37,-1.5635597203026819,-0.0050471499675543985,-1.4582993228716162e-36,0.021819954112379136,0,70,255.0,255.0,255.0
261,13.05,3.5183739399896594,-6.509996362585578e-39,-13.642949046620418,0.09337144731096117,-1.4365492202859404e-37,-1.5623688554724269,-0.0039175739497094245,-7.8150025177241e-38,0.025814639097813754,0,70,255.0,255.0,255.0
262,13.100000000000001,3.523038086044444,-1.3215367788114262e-38,-13.721033556643091,0.09320380801392182,-1.1305869084509627e-37,-1.5609782563929004,-0.002787997931864451,1.3019992725171342e-36,0.02980932408324837,0,70,255.0,255.0,255.0
263,13.15,3.5276952621043995,-1.6665741032349996e-38,-13.799043543355552,0.09309264751777473,-1.3454994776883533e-38,-1.5593879230641021,-0.0016584219140195174,2.6821485702114607e-36,0.03380400906868285,0,70,255.0,255.0,255.0
264,13.200000000000001,3.5323482921095697,-1.341074285105709e-38,-13.876969020045346,0.09303796582251987,1.5515616617605124e-37,-1.5575978554860321,-0.0005288458961745434,4.062297867905836e-36,0.03779869405411746,0,70,255.0,255.0,255.0
265,13.25,3.537,0.0,-13.9548,0.09303976292815729,3.9277479201369615e-37,-1.5556080536586903,0.0006007301216702787,5.4424471656001606e-36,0.04179337903955371,0,70,255.0,255.0,255.0
266,13.3,3.541652109350673,2.429563718225796e-38,-14.032527393196577,0.09303201693103692,5.361274677680584e-37,-1.5534723189532627,-0.0009105700064847781,2.916598645742492e-37,0.0436360091775484,0,70,255.0,255.0,255.0
267,13.350000000000001,3.5463019422763304,4.932042402595156e-38,-14.110145696370214,0.0929487059275088,4.219407784711215e-37,-1.5512444527409355,-0.002421870134639835,-4.859127436451662e-36,0.045478639315543086,0,70,255.0,255.0,255.0
268,13.4,3.550945720526651,6.219739227851557e-38,-14.187650302945556,0.09278982991757294,5.021472412290307e-38,-1.5489244550217085,-0.003933170262794838,-1.000991473747739e-35,0.047321269453537707,0,70,255.0,255.0,255.0
269,13.450000000000001,3.555579665851314,5.004957368738616e-38,-14.265036606347268,0.09255538890122932,-5.7905069527662305e-37,-1.5465123257955815,-0.005444470390949895,-1.51607020385033e-35,0.049163899591532396,0,70,255.0,255.0,255.0
270,13.5,3.5602,0.0,-14.3423,0.09224538287847796,-1.4658554797274124e-36,-1.544008065062555,-0.006955770519104676,-2.0311489339529023e-35,0.051006529729532346,0,70,255.0,255.0,255.0
271,13.55,3.564804022607648,-9.067255236644623e-38,-14.419434980593273,0.09192448496489189,-2.0008549490436395e-36,-1.5413578687145146,-0.005880146024337581,-1.0884894331197563e-36,0.05500132419207914,0,70,255.0,255.0,255.0
272,13.600000000000001,3.569393344850235,-1.8406632831569196e-37,-14.496432457876068,0.09165736827604419,-1.57470442303939e-36,-1.5385079326433468,-0.0048045215295704855,1.813451047328951e-35,0.05899611865462593,0,70,255.0,255.0,255.0
273,13.65,3.573970655788998,-2.321238280817122e-37,-14.573282444862222,0.09144403281193485,-1.8740390171472856e-37,-1.535458256849052,-0.003728897034803428,3.7357510379698096e-35,0.06299091311717259,0,70,255.0,255.0,255.0
274,13.700000000000001,3.578538644485174,-1.8678755189848753e-37,-14.649974954565588,0.09128447857256385,2.1610466149304392e-36,-1.5322088413316297,-0.0026532725400363324,5.658051028610736e-35,0.06698570757971938,0,70,255.0,255.0,255.0
275,13.75,3.5831,0.0,-14.7265,0.09117870555793123,5.470647126895953e-36,-1.5287596860910801,-0.0015776480452691644,7.580351019251595e-35,0.07098050204226958,0,70,255.0,255.0,255.0
276,13.8,3.5876566002187356,3.3839457228352698e-37,-14.80284868443033,0.09107804320939503,7.4672923284065e-36,-1.5251762061886716,-0.0024488458961786762,4.06229786790478e-36,0.0723586940540731,0,70,255.0,255.0,255.0
277,13.850000000000001,3.5922070783227302,6.869448892368162e-37,-14.879016472125526,0.09093382096831336,5.876876913686435e-36,-1.5215238166856728,-0.0033200437470881886,-6.767891445670639e-35,0.0737368860658766,0,70,255.0,255.0,255.0
278,13.9,3.5967492563173575,8.662979200483334e-37,-14.954999917605553,0.09074603883468622,6.99400882736014e-37,-1.5178025175820837,-0.00419124159799767,-1.3942012678131498e-34,0.07511507807768006,0,70,255.0,255.0,255.0
279,13.950000000000001,3.60128095620799,6.971006339065636e-37,-15.030795575390393,0.0905146968085136,-8.065135764445139e-36,-1.5140123088779047,-0.0050624394489071824,-2.1116133910592618e-34,0.07649327008948358,0,70,255.0,255.0,255.0
280,14.0,3.6058,0.0,-15.1064,0.0902397948897955,-2.04167330278564e-35,-1.5101531905731356,-0.005933637299816663,-2.8290255143053483e-34,0.07787146210129059,0,70,255.0,255.0,255.0
281,14.05,3.61030477651741,-1.2629057367676617e-36,-15.18180868168541,0.08995534219752654,-2.786831436458236e-35,-1.5061613065308133,-0.005444470390941263,-1.516070203849943e-35,0.08180389959159667,0,70,255.0,255.0,255.0
282,14.100000000000001,3.6147959418588433,-2.563713228631573e-36,-15.257012853621841,0.08969534785070137,-2.1932803231706357e-35,-1.5019728006139759,-0.004955303482065862,2.5258114735353597e-34,0.08573633708190276,0,70,255.0,255.0,255.0
283,14.15,3.619274718941571,-3.233067852111622e-36,-15.332002684715565,0.08945981184931996,-2.6101996292293234e-36,-1.4975876728226232,-0.0044661365731904785,5.20322996745562e-34,0.0896687745722087,0,70,255.0,255.0,255.0
284,14.200000000000001,3.6237423306828664,-2.6016149837277686e-36,-15.406768343872862,0.08924873419338232,3.009949644285011e-35,-1.493005923156755,-0.003976969664315078,7.880648461375973e-34,0.09360121206251479,0,70,255.0,255.0,255.0
285,14.25,3.6282,0.0,-15.4813,0.08906211488288844,7.619628498452965e-35,-1.4882275516163717,-0.003487802755440028,1.055806695529623e-33,0.09753364955282073,0,70,255.0,255.0,255.0
286,14.3,3.632648293711623,4.7132283747871195e-36,-15.555588588828034,0.08886058800050144,1.0400596512992293e-34,-1.4832985676880581,-0.0045732725400403785,5.658051028609272e-35,0.09962570757971217,0,70,255.0,255.0,255.0
287,14.350000000000001,3.637085154241897,9.567908025289476e-36,-15.629628113387117,0.0886047876288844,8.185433601313897e-35,-1.4782649808584003,-0.005658742324640729,-9.426456749574375e-34,0.10171776560660362,0,70,255.0,255.0,255.0
288,14.4,3.6415078679163577,1.2065973488398154e-35,-15.703413343532183,0.08829471376803735,9.741397634181272e-36,-1.473126791127398,-0.00674421210924104,-1.9418718602009325e-33,0.10380982363349497,0,70,255.0,255.0,255.0
289,14.450000000000001,3.6459137210605466,9.709359301004506e-36,-15.77693904911817,0.08793036641796029,-1.1233285000695528e-34,-1.467883998495051,-0.007829681893841391,-2.9410980454444623e-33,0.10590188166038642,0,70,255.0,255.0,255.0
290,14.5,3.6503,0.0,-15.8502,0.08751174557865322,-2.843684069102622e-34,-1.4625366029613593,-0.008915151678441702,-3.9403242306879566e-33,0.10799393968727777,0,70,255.0,255.0,255.0
291,14.55,3.6546644486360966,-1.759000776238082e-35,-15.923190563002459,0.08706630580046928,-3.881555461551094e-34,-1.4570604227169415,-0.0089024394489152,-2.1116133910587135e-34,0.11105327008943858,0,70,255.0,255.0,255.0
292,14.600000000000001,3.6590066411735718,-3.570791887252633e-35,-15.995903492829692,0.0866215016337617,-3.054845408208496e-34,-1.4514312759524155,-0.008889727219388698,3.518001552476214e-33,0.11411260049159937,0,70,255.0,255.0,255.0
293,14.65,3.6633266093929975,-4.5030826101480983e-35,-16.068331141155696,0.08617733307853043,-3.635539090749571e-35,-1.4456491626677814,-0.008877014989862198,7.247164444058168e-33,0.11717193089376006,0,70,255.0,255.0,255.0
294,14.700000000000001,3.6676243850749493,-3.6235822220290274e-35,-16.14046585965447,0.08573380013477548,4.192319035849711e-34,-1.4397140828630393,-0.008864302760335696,1.0976327335640252e-32,0.12023126129592085,0,70,255.0,255.0,255.0
295,14.75,3.6719,0.0,-16.2123,0.08529090280249686,1.061277342656519e-33,-1.4336260365381897,-0.008851590530809195,1.4705490227222208e-32,0.12329059169808332,0,70,255.0,255.0,255.0
296,14.8,3.6761539117439894,6.564680267473616e-35,-16.283825959162133,0.08487418879761897,1.4486162194905146e-33,-1.427387741444175,-0.007816969664306325,7.880648461373944e-34,0.12624121206250866,0,70,255.0,255.0,255.0
297,14.850000000000001,3.6803882810638173,1.3326376746481586e-34,-16.355036315294115,0.0845092058360662,1.1400838272702595e-33,-1.4210019153319386,-0.006782348797803454,-1.312936053494742e-32,0.12919183242693402,0,70,255.0,255.0,255.0
298,14.9,3.6846056945116508,1.680573309175258e-34,-16.425923691845025,0.08419595391783861,1.3568016599580178e-34,-1.4144685582014813,-0.005747727931300621,-2.7046785916031734e-32,0.13214245279135925,0,70,255.0,255.0,255.0
299,14.950000000000001,3.6888087386396564,1.3523392958015659e-34,-16.49648071226396,0.08393443304293616,-1.5645947643329284e-33,-1.4077876700528027,-0.004713107064797751,-4.096421129711655e-32,0.1350930731557846,0,70,255.0,255.0,255.0
300,15.0,3.693,0.0,-16.5667,0.08372464321135886,-3.9607409637158137e-33,-1.400959250885903,-0.003678486198294806,-5.488163667820087e-32,0.1380436935202134,0,70,255.0,255.0,255.0
301,15.05,3.697180704387947,-2.449972029365638e-34,-16.63657440034901,0.08348493900905533,-5.4063093318069485e-33,-1.3939966115063875,-0.005909681893845896,-2.9410980454437124e-33,0.14046188166040924,0,70,255.0,255.0,255.0
302,15.100000000000001,3.701346634571159,-4.973471509867371e-34,-16.706097645993857,0.08313367502197427,-4.254850768260188e-33,-1.3869130627198618,-0.008140877589396986,4.8999440587313443e-32,0.14288006980060508,0,70,255.0,255.0,255.0
303,15.15,3.7054922125603977,-6.2719849756862225e-34,-16.775263691464207,0.08267085125011565,-5.063652730757128e-34,-1.379708604526327,-0.010372073284947995,1.0093997922006877e-31,0.14529825794080084,0,70,255.0,255.0,255.0
304,15.200000000000001,3.709611860366425,-5.046998961003357e-34,-16.84406649128971,0.08209646769347946,5.839147153746744e-33,-1.3723832369257818,-0.012603268980499086,1.5288051785282591e-31,0.14771644608099668,0,70,255.0,255.0,255.0
305,15.25,3.7137,0.0,-16.9125,0.08141052435206576,1.4781686512206736e-32,-1.3649369599182273,-0.014834464676049763,2.048210564855812e-31,0.15013463422119244,0,70,255.0,255.0,255.0
306,15.3,3.717752870704223,9.143420090715188e-34,-16.980558039441853,0.08072205516615612,2.0176621107737275e-32,-1.357361812530297,-0.012704302760335198,1.0976327335637406e-32,0.15287126129601422,0,70,255.0,255.0,255.0
307,15.350000000000001,3.721773980651545,1.856124836482132e-33,-17.04823390073047,0.08014009407603223,1.5879319245770494e-32,-1.3496498337886256,-0.010574140844620633,-1.828684018143064e-31,0.155607888370836,0,70,255.0,255.0,255.0
308,15.4,3.7257686552467555,2.340736659356963e-33,-17.11552074229816,0.07966464108169406,1.8897809263070446e-33,-1.3418010236932136,-0.008443978928906144,-3.7671313096424332e-31,0.1583445154456577,0,70,255.0,255.0,255.0
309,15.450000000000001,3.729742219894644,1.883565654821187e-33,-17.182411722577232,0.07929569618314163,-2.1791993850654057e-32,-1.33381538224406,-0.006313817013191579,-5.705578601141871e-31,0.16108114252047945,0,70,255.0,255.0,255.0
310,15.5,3.7337,0.0,-17.2489,0.0790332593803749,-5.516600508511113e-32,-1.3256929094411654,-0.004183655097476424,-7.644025892641241e-31,0.16381776959530647,0,70,255.0,255.0,255.0
311,15.55,3.7376454127951604,-3.412370833349512e-33,-17.31497824188358,0.07876284032631839,-7.530017509914217e-32,-1.3174041383723898,-0.006633107064784495,-4.096421129710603e-32,0.167733073155711,0,70,255.0,255.0,255.0
312,15.600000000000001,3.7415742428226593,-6.927152194941791e-33,-17.380637151084272,0.07836994867389645,-5.926242621482179e-32,-1.308919602125594,-0.009082559032092565,6.82474166669912e-31,0.17164837671611555,0,70,255.0,255.0,255.0
313,15.65,3.7454803664525773,-8.735748139859229e-33,-17.445866939343173,0.07785458442310912,-7.052758432152476e-33,-1.3002393007007784,-0.01153201099940055,1.4059125446369047e-30,0.17556368027651995,0,70,255.0,255.0,255.0
314,15.700000000000001,3.749357660054997,-7.02956272318441e-33,-17.51065781840138,0.0772167475739564,8.132882824886943e-32,-1.2913632340979422,-0.013981462966708621,2.1293509226039226e-30,0.17947898383692448,0,70,255.0,255.0,255.0
315,15.75,3.7532,0.0,-17.575,0.07645643812643829,2.058823338282378e-31,-1.2822914023170857,-0.016430914934016494,2.852789300570915e-30,0.18339428739733776,0,70,255.0,255.0,255.0
316,15.8,3.7570030781151353,1.2735141324326528e-32,-17.638884993023822,0.07568258352857508,2.8102407928883142e-31,-1.2731016339801293,-0.014523268980511546,1.5288051785278626e-31,0.18419644608091304,0,70,255.0,255.0,255.0
317,15.850000000000001,3.760769848057819,2.5852483943285027e-32,-17.702309494932443,0.07500411122838713,2.2117038561351665e-31,-1.2638717577089942,-0.012615623027006596,-2.5470282648653425e-30,0.18499860476448832,0,70,255.0,255.0,255.0
318,15.9,3.764505078942935,3.2602255900079955e-32,-17.765271500329153,0.07442102122587442,2.632125280230292e-32,-1.2546017735036805,-0.010707977073501716,-5.246937047583374e-30,0.1858007634480636,0,70,255.0,255.0,255.0
319,15.950000000000001,3.7682135398853673,2.623468523791646e-32,-17.82776900381724,0.07393331352103695,-3.0352331914482365e-31,-1.2452916813641879,-0.008800331119996768,-7.946845830301503e-30,0.18660292213163887,0,70,255.0,255.0,255.0
320,16.0,3.7719,0.0,-17.8898,0.07354098811387473,-7.683633302278399e-31,-1.2359414812905165,-0.0068926851664924405,-1.0646754613019536e-29,0.18740508081521234,0,70,255.0,255.0,255.0
321,16.05,3.7755678747443,-4.752819446395659e-32,-17.951360986021133,0.07316282555938253,-1.0487961420561833e-30,-1.2264613257071209,-0.008233817013195607,-5.705578601140404e-31,0.19180114252061214,0,70,255.0,255.0,255.0
322,16.1,3.7792151649460664,-9.648278357819832e-32,-18.01244246918596,0.07271760641255516,-8.254191162392447e-31,-1.216761367038455,-0.009574948859898774,9.505638892791455e-30,0.19619720422601195,0,70,255.0,255.0,255.0
323,16.150000000000002,3.7828385177756827,-1.2167327546046074e-31,-18.073033459340223,0.07220533067339263,-9.823225277702391e-32,-1.2068416052845192,-0.01091608070660194,1.958183564569695e-29,0.20059326593141177,0,70,255.0,255.0,255.0
324,16.2,3.7864345804035326,-9.790917822848342e-32,-18.133122966329655,0.07162599834189498,1.1327644483303727e-30,-1.1967020404453144,-0.012257212553305011,2.965803239860173e-29,0.20498932763681127,0,70,255.0,255.0,255.0
325,16.25,3.79,0.0,-18.1927,0.07097960941806215,2.8675709870831218e-30,-1.1863426725208386,-0.0135983444000084,3.9734229151507224e-29,0.20938538934221462,0,70,255.0,255.0,255.0
326,16.3,3.793531822907667,1.7737763653149984e-31,-18.251754262891655,0.07029011423389445,3.9141604889359006e-30,-1.1758050631913617,-0.013981462966699915,2.129350922603371e-30,0.21211898383685476,0,70,255.0,255.0,255.0
327,16.35,3.7970286921579173,3.6007865036950826e-31,-18.310278228323728,0.06958146312139214,3.0805060793434615e-30,-1.1651307741371528,-0.01436458153339143,-3.547552730630048e-29,0.2148525783314949,0,70,255.0,255.0,255.0
328,16.400000000000002,3.800489649954334,4.54090845941763e-31,-18.368265062309963,0.06885365608055527,3.6660775830580193e-31,-1.1543198053582118,-0.014747700100082944,-7.308040553520435e-29,0.21758617282613504,0,70,255.0,255.0,255.0
329,16.45,3.803913738500501,3.654020276760166e-31,-18.42570793086413,0.06810669311138387,-4.227534474176684e-30,-1.1433721568545399,-0.015130818666774432,-1.1068528376410553e-28,0.220319767320775,0,70,255.0,255.0,255.0
330,16.5,3.8073,0.0,-18.4826,0.06734057421387786,-1.0701920618104647e-29,-1.1322878286261349,-0.01551393723346639,-1.4829016199300937e-28,0.22305336181541868,0,70,255.0,255.0,255.0
331,16.55,3.8106480336250326,-6.6198235166204285e-31,-18.53893476241224,0.06658871750504117,-1.460784581368742e-29,-1.1210864215274587,-0.014560331120000844,-7.946845830299425e-30,0.22500292213161865,0,70,255.0,255.0,255.0
332,16.6,3.8139596664222655,-1.3438318178998349e-30,-18.594707017519156,0.06588454110187776,-1.14966052011346e-29,-1.1097875364129728,-0.013606725006535298,1.3239647033241052e-28,0.22695248244781863,0,70,255.0,255.0,255.0
333,16.650000000000002,3.817237282406982,-1.694690108306592e-30,-18.649911891419944,0.06522804500438761,-1.3681987804461866e-30,-1.0983911732826765,-0.012653118893069751,2.727397864951204e-28,0.22890204276401863,0,70,255.0,255.0,255.0
334,16.7,3.820483265594465,-1.3636989324755834e-30,-18.704544510213818,0.06461922921257081,1.577737344837637e-29,-1.0868973321365711,-0.011699512779604272,4.1308310265782045e-28,0.23085160308021846,0,70,255.0,255.0,255.0
335,16.75,3.8237,0.0,-18.7586,0.0640580937264272,3.994011148533547e-29,-1.0753060129746554,-0.01074590666613906,5.534264188205303e-28,0.2328011633964131,0,70,255.0,255.0,255.0
336,16.8,3.8268888425922025,2.4705517701166716e-30,-18.81207308745939,0.06348301574594109,5.45172227658138e-29,-1.0635932506988213,-0.012257212553305119,2.965803239859441e-29,0.23570932763694405,0,70,255.0,255.0,255.0
337,16.85,3.830047042153022,5.015248621229832e-30,-18.864956901599683,0.06283237247109669,4.2905914725194944e-29,-1.0517350802109606,-0.013768518440471177,-4.941103540233414e-28,0.238617491877475,0,70,255.0,255.0,255.0
338,16.900000000000002,3.8331708204177395,6.324669587284602e-30,-18.917244172010285,0.062106163901893954,5.106187363478953e-30,-1.0397315015110735,-0.015279824327637234,-1.0178787404452773e-27,0.24152565611800594,0,70,255.0,255.0,255.0
339,16.95,3.836256399121638,5.089393702226313e-30,-18.968927628280593,0.06130439003833299,-5.888195931932875e-29,-1.0275825145991606,-0.016791130214803184,-1.541647126867176e-27,0.2444338203585367,0,70,255.0,255.0,255.0
340,17.0,3.8393,0.0,-19.02,0.06042705088041367,-1.4905852532323723e-28,-1.0152881194752204,-0.018302436101969244,-2.0654155132891115e-27,0.2473419845990712,0,70,255.0,255.0,255.0
341,17.05,3.8422989960061575,-9.220224728804642e-30,-19.070453687750213,0.05954321951119496,-2.0346104524956776e-28,-1.0028285756772257,-0.017050818666778583,-1.1068528376407827e-28,0.2510397673207074,0,70,255.0,255.0,255.0
342,17.1,3.845255364965649,-1.871716266701949e-29,-19.12027977608212,0.05872196901373579,-1.6012705369964518e-28,-0.9901841427431493,-0.01579920123158792,1.844044945760955e-27,0.2547375500423436,0,70,255.0,255.0,255.0
343,17.150000000000002,3.848172235922061,-2.360398824083182e-29,-19.16946902053893,0.05796329938803615,-1.9056550673469659e-29,-0.977354820672991,-0.014547583796397258,3.7987751752859886e-27,0.2584353327639798,0,70,255.0,255.0,255.0
344,17.2,3.851052737918982,-1.8993875876429677e-29,-19.218012176663816,0.05726721063409609,2.197504638289387e-28,-0.9643406094667518,-0.013295966361206685,5.753505404810884e-27,0.26213311548561574,0,70,255.0,255.0,255.0
345,17.25,3.8539,0.0,-19.2659,0.05663370275191551,5.562939898076134e-28,-0.9511415091244299,-0.012044348926016024,7.708235634335917e-27,0.2658308982072546,0,70,255.0,255.0,255.0
346,17.3,3.8567159733831664,3.44103471451019e-29,-19.313124161539765,0.0559921062092751,7.593269582324572e-28,-0.937812446592245,-0.013619512779600006,4.130831026577188e-28,0.2673316030801301,0,70,255.0,255.0,255.0
347,17.35,3.8594978979843826,6.985340204684812e-29,-19.359679994071833,0.05527175147395549,5.976023000733859e-28,-0.9244083488164164,-0.01519467663318399,-6.88206942902048e-27,0.2688323079530056,0,70,255.0,255.0,255.0
348,17.400000000000002,3.862241835894017,8.809128337604268e-29,-19.405563745834012,0.054472638545956686,7.112001533039955e-29,-0.9109292157969441,-0.016769840486767974,-1.4177221960698677e-26,0.2703330128258812,0,70,255.0,255.0,255.0
349,17.45,3.864943849202434,7.088610980349244e-29,-19.450771665064128,0.05359476742527874,-8.201198959964255e-28,-0.8973750475338289,-0.018345004340351845,-2.1472374492376354e-26,0.2718337176987566,0,70,255.0,255.0,255.0
350,17.5,3.8676,0.0,-19.4953,0.05263813811192153,-2.0761174339072163e-27,-0.8837458440270689,-0.01992016819393605,-2.876752702405456e-26,0.27333442257163654,0,70,255.0,255.0,255.0
351,17.55,3.870207510461178,-1.2842116385160295e-28,-19.53914406609073,0.05167235565170314,-2.8338467876802612e-27,-0.8699856379538128,-0.018711130214798803,-1.5416471268668018e-27,0.2770738203585993,0,70,255.0,255.0,255.0
352,17.6,3.8727682430968198,-2.6069644552037303e-28,-19.58229544763056,0.05076702509044162,-2.2302821465938986e-27,-0.8560384619912086,-0.017502092235661557,2.568423277032096e-26,0.28081321814556204,0,70,255.0,255.0,255.0
353,17.650000000000002,3.875285220501872,-3.2876114526333887e-28,-19.62474479612503,0.049922146428136964,-2.6542351064812844e-28,-0.8419043161392562,-0.016293054256524313,5.291011266750871e-26,0.28455261593252473,0,70,255.0,255.0,255.0
354,17.7,3.8777614652712824,-2.6455056333753997e-28,-19.66648276307966,0.04913771966478922,3.0607291201567627e-27,-0.8275832003979567,-0.015084016277387154,8.013599256469453e-26,0.2882920137194872,0,70,255.0,255.0,255.0
355,17.75,3.8802,0.0,-19.7075,0.04841374480039829,7.748175745821252e-27,-0.8130751147673082,-0.013874978298249963,1.073618724618823e-25,0.29203141150644907,0,70,255.0,255.0,255.0
356,17.8,3.8826027847721205,4.7927430826131e-28,-19.747787574097323,0.04768647118391176,1.0576060192488587e-26,-0.7984050015925048,-0.01521596636121075,5.753505404809475e-27,0.2947731154856771,0,70,255.0,255.0,255.0
357,17.85,3.8849675296283386,9.729323800346439e-28,-19.787338215405935,0.0468921481642772,8.323526286302207e-27,-0.7835978032187401,-0.016556954424171537,-9.585486165226336e-26,0.29751481946490504,0,70,255.0,255.0,255.0
358,17.900000000000002,3.8872908820984966,1.226953297677313e-27,-19.826145069665884,0.046030775741494584,9.905740272621164e-28,-0.7686535196460139,-0.017897942487132324,-1.974632287093362e-25,0.300256523444133,0,70,255.0,255.0,255.0
359,17.95,3.8895694897124353,9.873161435466676e-28,-19.86420128261722,0.045102353915564004,-1.1422796584630632e-26,-0.7535721508743274,-0.019238930550093018,-2.990715957664018e-25,0.3029982274233608,0,70,255.0,255.0,255.0
360,18.0,3.8918,0.0,-19.9015,0.04410688268648532,-2.891658554937779e-26,-0.7383536969036785,-0.020579918613053805,-4.0067996282347473e-25,0.3057399314025959,0,70,255.0,255.0,255.0
361,18.05,3.893979750450338,-1.7886760691936368e-27,-19.938034437519974,0.04308575961265027,-3.9470393982274084e-26,-0.7230023556761465,-0.020265004340347465,-2.1472374492371117e-26,0.30831371769867694,0,70,255.0,255.0,255.0
362,18.1,3.8961088383898255,-3.631033074618203e-27,-19.973798090745703,0.042080382252450546,-3.106382299861493e-26,-0.7075223251338104,-0.019950090067641126,3.577352138387325e-25,0.31088750399475795,0,70,255.0,255.0,255.0
363,18.150000000000002,3.898188051104144,-4.579052045445913e-27,-20.008784525211443,0.04109075060588613,-3.696872598400318e-27,-0.6919136052766702,-0.019635175794934786,7.3694280216983615e-25,0.31346129029083897,0,70,255.0,255.0,255.0
364,18.2,3.9002181758789747,-3.684714010849128e-27,-20.042987306451455,0.04011686467295711,4.2630457218365775e-26,-0.6761761961047271,-0.01932026152222847,1.1161503905009127e-24,0.3160350765869198,0,70,255.0,255.0,255.0
365,18.25,3.9022,0.0,-20.0764,0.03915872445366333,1.0791816645168992e-25,-0.6603100976179788,-0.019005347249522353,1.495357978832016e-24,0.3186088628830053,0,70,255.0,255.0,255.0
366,18.3,3.9041342134265267,6.675429968513237e-27,-20.109016275822782,0.038210490365490374,1.4730551573660774e-25,-0.6443215757029165,-0.018924016277395317,8.013599256467475e-26,0.3209320137194784,0,70,255.0,255.0,255.0
367,18.35,3.9060211168123593,1.3551199918438164e-26,-20.14083022161126,0.03726632282592377,1.159317657081575e-25,-0.6282168962460305,-0.018842685305268277,-1.3350859937026665e-24,0.3232551645559515,0,70,255.0,255.0,255.0
368,18.400000000000002,3.9078609134849294,1.7089254884106336e-26,-20.171836029488354,0.03632622183496352,1.3796916366339166e-26,-0.6119960592473208,-0.01876135433314124,-2.7503079799700077e-24,0.3255783153924246,0,70,255.0,255.0,255.0
369,18.45,3.9096538067716655,1.3751539899849852e-26,-20.20202789157696,0.035390187392609684,-1.590990322888324e-25,-0.5956590647067888,-0.01868002336101421,-4.165529966237248e-24,0.32790146622889754,0,70,255.0,255.0,255.0
370,18.5,3.9114,0.0,-20.2314,0.03445821949886213,-4.0275608025738183e-25,-0.5792059126244317,-0.018598692388887228,-5.580751952504589e-24,0.3302246170653733,0,70,255.0,255.0,255.0
371,18.55,3.9130993958435565,-2.491304380485931e-26,-20.25994605918891,0.033512278925387606,-5.497516689641568e-25,-0.5626073415122114,-0.01923893055009299,-2.990715957663274e-25,0.3337182274234282,0,70,255.0,255.0,255.0
372,18.6,3.914750694360738,-5.057376659913446e-26,-20.28765782280926,0.032534326443852804,-4.32663239834015e-25,-0.5458340898820884,-0.01987916871129875,4.982608760971934e-24,0.33721183778148317,0,70,255.0,255.0,255.0
373,18.650000000000002,3.916352294956141,-6.377796749097942e-26,-20.314526556835155,0.03152436205425771,-5.1490792866956183e-26,-0.5288861577340627,-0.020519406872504514,1.0264289117710194e-23,0.34070544813953807,0,70,255.0,255.0,255.0
374,18.7,3.9179025970343626,-5.132144558855026e-26,-20.340543527240698,0.0304823857566024,5.937656719369638e-25,-0.5117635450681353,-0.02115964503371023,1.5545969474448082e-23,0.34419905849759275,0,70,255.0,255.0,255.0
375,18.75,3.9194,0.0,-20.3657,0.02940839755088672,1.5031061545778374e-24,-0.49446625188430415,-0.021799883194916214,2.082764983118634e-23,0.34769266885564676,0,70,255.0,255.0,255.0
376,18.8,3.9208434031992474,9.297674525092399e-26,-20.38998748742159,0.028332393932958198,2.0517011601200196e-24,-0.47700905824824,-0.021240261522224115,1.1161503905006355e-24,0.3505950765869095,0,70,255.0,255.0,255.0
377,18.85,3.92223370574469,1.8874386647809967e-25,-20.413398487151714,0.02728437139866428,1.6147211936279025e-24,-0.45940674422561273,-0.02068063984953202,-1.8595349050185068e-23,0.35349748431817224,0,70,255.0,255.0,255.0
378,18.900000000000002,3.9235723066905077,2.3802261507981127e-25,-20.435925743171044,0.02626432994800497,1.9216625510148667e-25,-0.44165930981642226,-0.020121018176839922,-3.8306848490870766e-23,0.356399892049435,0,70,255.0,255.0,255.0
379,18.95,3.9248606050908843,1.9153424245435122e-25,-20.45756199946025,0.025272269580980326,-2.2159636554590228e-24,-0.42376675502066996,-0.019561396504147864,-5.801834793155508e-23,0.35930229978069755,0,70,255.0,255.0,255.0
380,19.0,3.9261,0.0,-20.4783,0.024308190297590224,-5.609668538053967e-24,-0.4057290798383533,-0.01900177483145582,-7.772984737224075e-23,0.362204707511959,0,70,255.0,255.0,255.0
381,19.05,3.927290991359453,-3.469939371988366e-25,-20.498132791124732,0.023318145342778568,-7.65705297151592e-24,-0.38756442549483205,-0.02060002336100979,-4.165529966236215e-24,0.3643814662288823,0,70,255.0,255.0,255.0
382,19.1,3.928430482660503,-7.044016993132639e-25,-20.51705462858389,0.022248187961489214,-6.026221534677596e-24,-0.3692909332154645,-0.02219827189056376,6.939878743976832e-23,0.36655822494580564,0,70,255.0,255.0,255.0
383,19.150000000000002,3.929514478281827,-8.883124928282661e-25,-20.535060070480682,0.02109831815372216,-7.171742275389865e-25,-0.35090860300025095,-0.02379652042011773,1.4296310484577285e-22,0.36873498366272894,0,70,255.0,255.0,255.0
384,19.200000000000003,3.930538982602101,-7.148155242288246e-25,-20.55214367491832,0.019868535919477407,8.270088949899899e-24,-0.3324174348491912,-0.0253947689496717,2.165274222517774e-22,0.37091174237965224,0,70,255.0,255.0,255.0
385,19.25,3.9315,0.0,-20.5683,0.018558841258755048,2.093556799763803e-23,-0.3138174287622866,-0.026993017479225584,2.900917396577768e-22,0.373088501096575,0,70,255.0,255.0,255.0
386,19.3,3.932395031362941,1.2949990035444227e-24,-20.583523748079497,0.017259024695931432,2.8576510725943666e-23,-0.2951172397724322,-0.02499964503371842,1.5545969474444288e-23,0.3749190584975889,0,70,255.0,255.0,255.0
387,19.35,3.933227563613298,2.6288629307749568e-24,-20.597810198512743,0.016058876755383172,2.2490164945082473e-23,-0.27632552291252716,-0.023006272588211255,-2.589998007088882e-22,0.3767496158986028,0,70,255.0,255.0,255.0
388,19.400000000000002,3.9340025801821845,3.315227356233253e-24,-20.61115477490625,0.014958397437110272,2.6765306550544672e-24,-0.25744227818257137,-0.021012900142704093,-5.335455708922207e-22,0.3785801732996167,0,70,255.0,255.0,255.0
389,19.450000000000003,3.934725064500714,2.6677278544609576e-24,-20.623552900866503,0.013957586741112731,-3.086439214414037e-23,-0.23846750558256494,-0.019019527697196927,-8.080913410755532e-22,0.3804107307006306,0,70,255.0,255.0,255.0
390,19.5,3.9354,0.0,-20.635,0.013056444667390612,-7.813260345249815e-23,-0.21940120511250913,-0.017026155251689906,-1.0826371112588659e-21,0.38224128810164504,0,70,255.0,255.0,255.0
391,19.55,3.9360304831887833,-4.833002076978854e-24,-20.6454882165573,0.012141755873494654,-1.0664898993225873e-22,-0.20004661541544877,-0.019561396504147906,-5.801834793154069e-23,0.3919422997807575,0,70,255.0,255.0,255.0
392,19.6,3.9366120628863057,-9.811050023786562e-24,-20.654996577365146,0.011100305016975794,-8.39344382456523e-23,-0.18020697513443282,-0.02209663775660591,9.666004153957845e-22,0.40164331145987003,0,70,255.0,255.0,255.0
393,19.650000000000002,3.937138400989437,-1.237259693210474e-23,-20.663500829894346,0.00993209209783403,-9.988948392678877e-24,-0.15988228426946122,-0.024631879009063908,1.9912191787231095e-21,0.4113443231389825,0,70,255.0,255.0,255.0
394,19.700000000000003,3.937603159395045,-9.956095893615005e-24,-20.670976721615695,0.008637117116069366,1.1518747962666148e-22,-0.13907254282053397,-0.02716712026152191,3.015837942050435e-21,0.421045334818095,0,70,255.0,255.0,255.0
395,19.75,3.938,0.0,-20.6774,0.007215380071681906,2.9159484581235456e-22,-0.11777775078765268,-0.029702361513979744,4.0404567053776876e-21,0.43074634649720633,0,70,255.0,255.0,255.0
396,19.8,3.938324635881927,1.803700930437099e-23,-20.682760185691308,0.005789951810090714,3.9801944900309124e-22,-0.09682429856573306,-0.027314768949667126,2.165274222517185e-22,0.40739174237956616,0,70,255.0,255.0,255.0
397,19.85,3.9385809848414794,3.661533716437129e-23,-20.687101892026668,0.004483903176715154,3.1324758803752667e-22,-0.07703857654969548,-0.024927176385354508,-3.6074018608742506e-21,0.384037138261926,0,70,255.0,255.0,255.0
398,19.900000000000002,3.9387750158600685,4.617516037218571e-23,-20.690483505516376,0.0032972341715552275,3.727926291566099e-23,-0.05842058473953992,-0.02253958382104189,-7.43133114400022e-21,0.36068253414428586,0,70,255.0,255.0,255.0
399,19.950000000000003,3.938912697919105,3.715665571999905e-23,-20.692963412670725,0.0022299447946109332,-4.298855263625058e-22,-0.04097032313526639,-0.02015199125672927,-1.1255260427126189e-20,0.3373279300266457,0,70,255.0,255.0,255.0
400,20.0,3.939,0.0,-20.6946,0.0012820350458823354,-1.08824677979692e-21,-0.02468779173687599,-0.017764398692416812,-1.507918971025188e-20,0.3139733259090072,0,70,255.0,255.0,255.0
401,20.05,3.9390437732835104,-6.73150351405051e-23,-20.695474240677463,0.0005064368861418573,-1.4854288060801058e-21,-0.010928190321635008,-0.01325952769720187,-8.080913410753317e-22,0.2364107307006244,0,70,255.0,255.0,255.0
402,20.1,3.939054397747777,-1.3665029863369857e-22,-20.69575745452817,-4.391772383787043e-05,-1.1690559139044543e-21,-0.0010467186668132152,-0.008754656701986928,1.3463007028101216e-20,0.15884813549224167,0,70,255.0,255.0,255.0
403,20.150000000000002,3.939043135570289,-1.7232804455663808e-22,-20.69564354804015,-0.00036902878405684764,-1.3912810326996472e-22,0.004956623227589382,-0.004249785706771985,2.773410539727776e-20,0.08128554028385893,0,70,255.0,255.0,255.0
404,20.200000000000003,3.939021248928534,-1.3867052698638124e-22,-20.69532642770142,-0.00046889629451507477,1.604354625823362e-21,0.007081835361572791,0.00025508528844295567,4.200520376645431e-20,0.0037229450754761584,0,70,255.0,255.0,255.0
405,20.25,3.939,0.0,-20.695,-0.00034352025521256917,4.0613922733753255e-21,0.005328917735137275,0.004759956283657577,5.627630213562984e-20,-0.07383965013290103,0,70,255.0,255.0,255.0
406,20.3,3.9389882709840336,2.5122313125764937e-22,-20.694818051598844,-0.00013569935465904316,5.543695775317333e-21,0.002105059852269227,0.0035528797384833453,3.0158379420496127e-21,-0.05511466518181907,0,70,255.0,255.0,255.0
407,20.35,3.9389854241674134,5.099858573704231e-22,-20.694773889860645,1.176771863577041e-05,4.36297606758029e-21,-0.0001825487830447094,0.002345803193309114,-5.0244626251530614e-20,-0.0363896802307371,0,70,255.0,255.0,255.0
408,20.400000000000002,3.938988441858776,6.431370178543667e-22,-20.694820702323025,9.888096467187155e-05,5.192331501642001e-22,-0.001533908170804535,0.001138726648134883,-1.0350509044511085e-19,-0.017664695279655127,0,70,255.0,255.0,255.0
409,20.450000000000003,3.9389943063667596,5.175254522255255e-22,-20.694911676523603,0.00012564038344926024,-5.98753297693094e-21,-0.0019490183110102465,-6.834989703934872e-05,-1.5676555463869107e-19,0.0010602896714268367,0,70,255.0,255.0,255.0
410,20.5,3.939,0.0,-20.695,9.204597496794125e-05,-1.5157322313704382e-20,-0.00142787920366192,-0.0012754264422134933,-2.100260188322675e-19,0.019785274622507468,0,70,255.0,255.0,255.0
411,20.55,3.9390031427803565,-9.375774898900926e-22,-20.695048752927153,3.636053249431536e-05,-2.0689354295189226e-20,-0.0005640490874347177,-0.0009519912567315107,-1.1255260427123146e-20,0.01476793002658013,0,70,255.0,255.0,255.0
412,20.6,3.9390039055825703,-1.903293130847994e-21,-20.695060586029243,-3.1531507052111703e-06,-1.628284835641671e-20,4.891379899611399e-05,-0.0006285560712495281,1.8751549797802121e-19,0.009750585430652794,0,70,255.0,255.0,255.0
413,20.650000000000002,3.9390030969946066,-2.400220026860829e-21,-20.695048042667747,-2.649507463063835e-05,-1.9378044973868388e-21,0.0004110094556305753,-0.00030512088576754555,3.8628625638316565e-19,0.004733240834725457,0,70,255.0,255.0,255.0
414,20.700000000000003,3.939001525604429,-1.9314312819157228e-21,-20.69502366620417,-3.3665239281966146e-05,2.234577728190039e-20,0.0005222378824686663,1.831429971443704e-05,5.8505701478831e-19,-0.00028410376120188013,0,70,255.0,255.0,255.0
415,20.75,3.939,0.0,-20.695,-2.466364465919584e-05,5.656789698144221e-20,0.00038259907951040625,0.00034174948519639654,7.838277731934402e-19,-0.0053014483571288615,0,70,255.0,255.0,255.0
416,20.8,3.938999157894542,3.499086828302721e-21,-20.69498693669254,-9.74277531821828e-06,7.721372140543958e-20,0.00015113649746964454,0.0002550852884426974,4.2005203766442846e-20,-0.003957054924501475,0,70,255.0,255.0,255.0
417,20.85,3.938998953502304,7.103186666021553e-21,-20.694983766022393,8.448841850742618e-07,6.076841735808653e-20,-1.3106412939746937e-05,0.00016842109168899828,-6.998173656605545e-19,-0.0026126614918740893,0,70,255.0,255.0,255.0
418,20.900000000000002,3.938999170162796,8.957743089588947e-21,-20.694987127005977,7.099333850681784e-06,7.231984839383125e-21,-0.00011012965171776812,8.175689493529915e-05,-1.441639935087552e-18,-0.0012682680592467034,0,70,255.0,255.0,255.0
419,20.950000000000003,3.9389995912155253,7.20819967543736e-21,-20.694993658659705,9.020573678604294e-06,-8.339557615067071e-20,-0.00013993321886441906,-4.907301818399983e-06,-2.183462504514549e-18,7.612537338068295e-05,0,70,255.0,255.0,255.0
420,21.0,3.939,0.0,-20.695,6.608603668842112e-06,-2.1111426561206444e-19,-0.00010251711437970479,-9.15714985720929e-05,-2.925285073941493e-18,0.001420518806007973,0,70,255.0,255.0,255.0
421,21.05,3.939000225641478,-1.3058769823320793e-20,-20.695003500302686,2.610568778557759e-06,-2.8816553132656906e-19,-4.04969024438604e-05,-6.834989703927896e-05,-1.567655546386484e-19,0.001060289671425767,0,70,255.0,255.0,255.0
422,21.1,3.9390002804082127,-2.6509453533238217e-20,-20.69500434988119,-2.2638603508588143e-07,-2.2679082107592947e-19,3.5118527628734186e-06,-4.512829550646504e-05,2.6117539646641964e-18,0.0007000605368435611,0,70,255.0,255.0,255.0
423,21.150000000000002,3.939000222354209,-3.343075233149496e-20,-20.695003449308352,-1.9022607720888088e-06,-2.6990134860145727e-20,2.9509151240496694e-05,-2.1906693973651117e-05,5.380273483967041e-18,0.00033983140226135516,0,70,255.0,255.0,255.0
424,21.200000000000003,3.93900010953347,-2.6901367419833725e-20,-20.695001699157007,-2.417055432451024e-06,3.112365273207823e-19,3.749499298900941e-05,1.3149075591628123e-06,8.148793003269887e-18,-2.0397732320850785e-05,0,70,255.0,255.0,255.0
425,21.25,3.939,0.0,-20.695,-1.7707700161726127e-06,7.878891654668156e-19,2.7469378008412946e-05,2.4536509091975092e-05,1.0917312522572531e-17,-0.00038062686690303114,0,70,255.0,255.0,255.0
426,21.3,3.9389999395395483,4.8735992464980446e-20,-20.69499906209672,-6.994997960127579e-07,1.0754484039008367e-18,1.08511123057971e-05,1.831429971441849e-05,5.850570147881509e-19,-0.00028410376120159325,0,70,255.0,255.0,255.0
427,21.35,3.938999924864846,9.893462746693131e-20,-20.694998834452846,6.065995526926236e-08,8.463948669456313e-19,-9.409981117467811e-07,1.2092090336861888e-05,-9.74719849299623e-18,-0.00018758065550015537,0,70,255.0,255.0,255.0
428,21.400000000000002,3.938999940420369,1.2476526623639088e-19,-20.694999075760613,5.097092376734479e-07,1.0072855460119988e-19,-7.906953244218703e-06,5.8698809593052855e-06,-2.007945400078061e-17,-9.105754979871748e-05,0,70,255.0,255.0,255.0
429,21.450000000000003,3.9389999706505954,1.0039727000389752e-19,-20.694999544712253,6.476480511997993e-07,-1.161550533132458e-18,-1.0046753091618653e-05,-3.5232841825131675e-07,-3.041170950856499e-17,5.465555902720411e-06,0,70,255.0,255.0,255.0
430,21.5,3.939,0.0,-20.695,4.7447639584833886e-07,-2.9404423962551977e-18,-7.360397653947002e-06,-6.574537795807479e-06,-4.074396501634864e-17,0.00010198866160415155,0,70,255.0,255.0,255.0
431,21.55,3.939000016200329,-1.8188520003660098e-19,-20.69500025131043,1.8743040549327296e-07,-4.013628084276778e-18,-2.9075467793280034e-06,-4.907301818394994e-06,-2.183462504513959e-18,7.612537338060586e-05,0,70,255.0,255.0,255.0
432,21.6,3.939000020132404,-3.69229056334487e-19,-20.695000312307418,-1.625378599116751e-08,-3.158788646706597e-18,2.521396841136922e-07,-3.24006584098251e-06,3.6377040007320724e-17,5.026208515706018e-05,0,70,255.0,255.0,255.0
433,21.650000000000002,3.939000015964314,-4.656303126140686e-19,-20.695000247649197,-1.3657617860498272e-07,-3.759240835446534e-19,2.1186617363780857e-06,-1.5728298635700252e-06,7.49375425191554e-17,2.4398796933514493e-05,0,70,255.0,255.0,255.0
434,21.700000000000003,3.9390000078641494,-3.7468771259575634e-19,-20.695000121993985,-1.7353677234817215e-07,4.334965605209052e-18,2.6920193774651754e-06,9.440611384245975e-08,1.1349804503099008e-16,-1.464491290031184e-06,0,70,255.0,255.0,255.0
435,21.75,3.939,0.0,-20.695,-1.2713556722074277e-07,1.0973880419553975e-17,1.9722126073750607e-06,1.7616420912548266e-06,1.5205854754282202e-16,-2.732777951357504e-05,0,70,255.0,255.0,255.0
436,21.8,3.938999995659135,6.788048076814235e-19,-20.694999932661574,-5.0221825960333773e-08,1.4979063933206275e-17,7.790748115149126e-07,1.3149075591614897e-06,8.148793003267683e-18,-2.039773232083021e-05,0,70,255.0,255.0,255.0
437,21.85,3.9389999946055387,1.3779815978710169e-18,-20.69499991631748,4.355188695408056e-09,1.1788759719880754e-17,-6.756062470798909e-08,8.681730270681526e-07,-1.3576096153628666e-16,-1.3467685128085378e-05,0,70,255.0,255.0,255.0
438,21.900000000000002,3.938999995722375,1.7377559842198838e-18,-20.6949999336426,3.659547674648271e-08,1.4029677795774115e-18,-5.676937012936443e-07,4.214384949748157e-07,-2.7967071607584095e-16,-6.5376379353405445e-06,0,70,255.0,255.0,255.0
439,21.950000000000003,3.938999997892808,1.3983535803791274e-18,-20.69499996731181,4.649903819289021e-08,-1.617831188770375e-17,-7.213244182420528e-07,-2.529603711852142e-08,-4.235804706153953e-16,3.9240925740428444e-07,0,70,255.0,255.0,255.0
440,22.0,3.939,0.0,-20.695,3.406587303463222e-08,-4.09550792819607e-17,-5.284527755532412e-07,-4.7203056921182666e-07,-5.674902251549393e-16,7.322456450148624e-06,0,70,255.0,255.0,255.0
441,22.05,3.9390000011631314,-2.5333340306890926e-18,-20.69500001804328,1.3456898348062166e-08,-5.590262764854832e-17,-2.0875246673164653e-07,-3.5232841825096364e-07,-3.041170950855674e-17,5.465555902714981e-06,0,70,255.0,255.0,255.0
442,22.1,3.9390000014454416,-5.142697335149578e-18,-20.695000022422665,-1.1669687904646455e-09,-4.399625023281641e-17,1.8102814718264643e-08,-2.3262626729010058e-07,5.066668061378258e-16,3.608655355281337e-06,0,70,255.0,255.0,255.0
443,22.150000000000002,3.9390000011461863,-6.485393624265465e-18,-20.695000017780412,-9.805728380948215e-09,-5.235947034764994e-18,1.5211306879649225e-07,-1.1292411632923751e-07,1.0437453217842086e-15,1.7517548078476944e-06,0,70,255.0,255.0,255.0
444,22.200000000000003,3.9390000005646204,-5.218726608920754e-18,-20.695000008758775,-1.2459380423388553e-08,6.037828194560591e-17,1.932782955030365e-07,6.778034631625508e-09,1.580823837430591e-15,-1.0514573958594951e-07,0,70,255.0,255.0,255.0
445,22.25,3.939,0.0,-20.695,-9.127924917786105e-09,1.5284643670828883e-16,1.415984948379043e-07,1.2648018559248008e-07,2.1179023530769357e-15,-1.96204628701946e-06,0,70,255.0,255.0,255.0
446,22.3,3.93899999968834,9.454531315074949e-18,-20.69499999516532,-3.6057674319149032e-09,2.0863144666098695e-16,5.593505541167364e-08,9.440611384236489e-08,1.1349804503095956e-16,-1.4644912900297174e-06,0,70,255.0,255.0,255.0
447,22.35,3.9389999996126948,1.9192807742727302e-17,-20.694999993991868,3.126864664505166e-10,1.6419624121138489e-16,-4.85063416506954e-09,6.233204209224968e-08,-1.8909062630150166e-15,-9.66936293039975e-07,0,70,255.0,255.0,255.0
448,22.400000000000002,3.9389999996928804,2.420381851284198e-17,-20.694999995235754,2.627436777310155e-09,1.95408203594826e-17,-4.07585738923252e-08,3.025797034213449e-08,-3.895310571060993e-15,-4.6938129605023247e-07,0,70,255.0,255.0,255.0
449,22.450000000000003,3.93899999984871,1.9476552855303903e-17,-20.694999997653095,3.3384835006640078e-09,-2.2533481589472e-16,-5.178876377009345e-08,-1.816101407980715e-09,-5.899714879106969e-15,2.81737009395102e-08,0,70,255.0,255.0,255.0
450,22.5,3.939,0.0,-20.695,2.445826636512201e-09,-5.704306675511946e-16,-3.794120379837608e-08,-3.389017315809362e-08,-7.9041191871528e-15,5.257286979292171e-07,0,70,255.0,255.0,255.0
451,22.55,3.9390000000835097,-3.528479122961069e-17,-20.69500000129545,9.661713795974423e-10,-7.786231589953995e-16,-1.4987754915048078e-08,-2.529603711849589e-08,-4.2358047061528033e-16,3.9240925740389015e-07,0,70,255.0,255.0,255.0
452,22.6,3.9390000001037793,-7.162853363575961e-17,-20.695000001609877,-8.377707533742392e-11,-6.127887146127233e-16,1.2997219420134867e-09,-1.6701901078898165e-08,7.05695824592224e-15,2.5908981687856316e-07,0,70,255.0,255.0,255.0
453,22.650000000000002,3.939000000082294,-9.032988042710244e-17,-20.695000001276576,-7.040187282923974e-10,-7.292733440316526e-17,1.092122677280861e-08,-8.10776503930044e-09,1.453749696245976e-14,1.2577037635323617e-07,0,70,255.0,255.0,255.0
454,22.700000000000003,3.9390000000405387,-7.268748481229478e-17,-20.695000000628855,-8.945535792674788e-10,8.409609816332734e-16,1.3876759577337285e-08,4.863710002972864e-10,2.201803567899728e-14,-7.549064172090762e-09,0,70,255.0,255.0,255.0
455,22.75,3.939,0.0,-20.695,-6.553816282627002e-10,2.1288762334964894e-15,1.0166320355600026e-08,9.080507039894404e-09,2.949857439553427e-14,-1.4086850469740822e-07,0,70,255.0,255.0,255.0
456,22.8,3.9389999999776224,1.3168463360336782e-16,-20.694999999652886,-2.589180864748672e-10,2.905861189320611e-15,4.0159642485186605e-09,6.77803463161869e-09,1.5808238374301606e-15,-1.0514573958584291e-07,0,70,255.0,255.0,255.0
457,22.85,3.9389999999721894,2.6732132680031117e-16,-20.694999999568637,2.2421834899178436e-11,2.2869586172395077e-15,-3.4825360298441453e-10,4.4755622233429766e-09,-2.6336926720673948e-14,-6.94229744742776e-08,0,70,255.0,255.0,255.0
458,22.900000000000002,3.9389999999779457,3.371157031955678e-16,-20.69499999965794,1.8863813585943688e-10,2.7216851725317855e-16,-2.926333198909198e-09,2.173089815067263e-09,-5.425467727877806e-14,-3.370020936271229e-08,0,70,255.0,255.0,255.0
459,22.950000000000003,3.9389999999891345,2.7127338639387536e-16,-20.6949999998315,2.397308164059078e-10,-3.138509110638376e-15,-3.7182745392556894e-09,-1.2938259320845036e-10,-8.217242783688217e-14,2.022555748853032e-09,0,70,255.0,255.0,255.0
460,23.0,3.939,0.0,-20.695,1.7569987653859997e-10,-7.945074266434762e-15,-2.7240776240240245e-09,-2.4318550014840017e-09,-1.1009017839498425e-13,3.7745320860415824e-08,0,70,255.0,255.0,255.0
461,23.05,3.939000000006002,-4.914537431838606e-16,-20.695000000093014,6.950096630202663e-11,-1.0844821598287043e-14,-1.0761020790265676e-09,-1.8161014079788717e-09,-5.899714879105375e-15,2.8173700939481513e-08,0,70,255.0,255.0,255.0
462,23.1,3.9390000000074634,-9.97656773565485e-16,-20.695000000115588,-5.9102642592897855e-12,-8.535045754345307e-15,9.329246992416701e-11,-1.2003478144737419e-09,9.82907486367735e-14,1.8602081018547202e-08,0,70,255.0,255.0,255.0
463,23.150000000000002,3.9390000000059238,-1.2581329323551687e-15,-20.695000000091657,-5.053381514534925e-11,-1.01574673460955e-15,7.841060228281786e-10,-5.845942209686119e-10,2.024812121526524e-13,9.030461097612891e-09,0,70,255.0,255.0,255.0
464,23.200000000000003,3.939000000002923,-1.0124060607632065e-15,-20.695000000045155,-6.436968635615181e-11,1.1713075460920222e-14,9.963385796854689e-10,3.1159372536517926e-11,3.0667167566853127e-13,-5.4115882332142e-10,0,70,255.0,255.0,255.0
465,23.25,3.939,0.0,-20.695,-4.7417877891699717e-11,2.965142083224256e-14,7.299901404960713e-10,6.469129660416042e-10,4.1086213918440277e-13,-1.0112778744255058e-08,0,70,255.0,255.0,255.0
466,23.3,3.9389999999983707,1.8341303391320744e-15,-20.69499999997507,-1.9085778733239256e-11,4.0473425203827564e-14,2.8844406758761033e-10,4.86371000296798e-10,2.2018035678991284e-14,-7.549064172083128e-09,0,70,255.0,255.0,255.0
467,23.35,3.9389999999979577,3.723305767461628e-15,-20.69499999996902,1.21922213798078e-12,3.1853224400141715e-14,-2.4916276712252344e-11,3.258290345519919e-10,-3.668260678264202e-13,-4.9853495999112e-09,0,70,255.0,255.0,255.0
468,23.400000000000002,3.938999999998359,4.695416026225107e-15,-20.69499999997543,1.3497124721960388e-11,3.7908184211850235e-15,-2.1009089240351676e-10,1.6528706880718574e-10,-7.556701713318315e-13,-2.4216350277392715e-09,0,70,255.0,255.0,255.0
469,23.450000000000003,3.9389999999991736,3.7783508566589494e-15,-20.694999999987893,1.7747929018699584e-11,-4.371379273304252e-14,-2.6707977948618283e-10,4.745103062379584e-12,-1.1445142748372431e-12,1.4207954443265784e-10,0,70,255.0,255.0,255.0
470,23.5,3.939,0.0,-20.695,1.3971635028198912e-11,-1.1066060906253547e-13,-1.9588293796026036e-10,-1.557968626824151e-10,-1.5333583783426273e-12,2.7057941166044035e-09,0,70,255.0,255.0,255.0
471,23.55,3.9390000000005148,-6.845067613344436e-15,-20.695000000006697,6.8421486309304224e-12,-1.510488792170232e-13,-7.767419132387357e-11,-1.2938259320832044e-10,-8.217242783686017e-14,2.0225557488510014e-09,0,70,255.0,255.0,255.0
472,23.6,3.939000000000706,-1.389556629628103e-14,-20.69500000000834,1.033375707366684e-12,-1.188778518462216e-13,6.372636924842631e-12,-1.0296832373422578e-10,1.369013522668907e-12,1.3393173810975994e-09,0,70,255.0,255.0,255.0
473,23.650000000000002,3.93900000000064,-1.7523531172545264e-14,-20.69500000000663,-3.4546837424923013e-12,-1.4147526950130528e-14,5.6257546785888286e-11,-7.655405426013112e-11,2.8201994731746743e-12,6.560790133441973e-10,0,70,255.0,255.0,255.0
474,23.700000000000003,3.939000000000383,-1.4100997365872598e-14,-20.69500000000328,-6.622029718646537e-12,1.6314209547124986e-13,7.198053825926325e-11,-5.013978478603648e-11,4.271385423680441e-12,-2.7159354409204713e-11,0,70,255.0,255.0,255.0
475,23.75,3.939,0.0,-20.695,-8.468662221095937e-12,4.129910154178993e-13,5.354161134497028e-11,-2.372551531194367e-11,5.722571374186106e-12,-7.103977221625584e-10,0,70,255.0,255.0,255.0
476,23.8,3.9389999999995697,2.5546140114245676e-14,-20.69499999999814,-8.28281579048243e-12,5.637220916642653e-13,2.2252697707883917e-11,3.115937253648381e-11,3.066716756684489e-13,-5.411588233208783e-10,0,70,255.0,255.0,255.0
477,23.85,3.9389999999992176,5.185895941766249e-14,-20.694999999997634,-5.352724967447512e-12,4.4365818298474457e-13,-5.742709871183207e-13,8.604426038491129e-11,-5.1092280228492085e-12,-3.719199244791982e-10,0,70,255.0,255.0,255.0
478,23.900000000000002,3.9389999999990803,6.539870866395592e-14,-20.694999999998057,3.21610248008822e-13,5.2799289379337115e-14,-1.4939294740036432e-11,1.4092914823333878e-10,-1.0525127721366867e-11,-2.026810256375181e-10,0,70,255.0,255.0,255.0
479,23.950000000000003,3.9389999999992953,5.262563860683143e-14,-20.694999999998988,8.740189855886565e-12,-6.088545891519572e-13,-2.0842373550870424e-11,1.9581403608176626e-10,-1.5941027419884524e-11,-3.3442126795838056e-11,0,70,255.0,255.0,255.0
480,24.0,3.939,0.0,-20.695,1.9903013856184833e-11,-1.5413034526090618e-12,-1.8283507419620762e-11,2.506989239301898e-10,-2.1356927118401794e-11,1.357967720458301e-10,0,70,255.0,255.0,255.0
481,24.05,3.939000000001206,-9.533949284363826e-14,-20.69500000000074,2.6289114530999298e-11,-2.103839487440038e-12,-1.1336599507662117e-11,4.745103062385219e-12,-1.1445142748369368e-12,1.420795444325118e-10,0,70,255.0,255.0,255.0
482,24.1,3.9390000000024243,-1.9354027137436893e-13,-20.69500000000113,2.0377524162423363e-11,-1.6557548800927572e-12,-4.075552976369381e-12,-2.4120871780541934e-10,1.906789856872792e-11,1.4836231681919347e-10,0,70,255.0,255.0,255.0
483,24.150000000000002,3.939000000003039,-2.4407130348327844e-13,-20.695000000001144,2.16824275045701e-12,-1.9704963056721839e-13,3.499632174257443e-12,-4.87162538673224e-10,3.9280311412292774e-11,1.5464508920587515e-10,0,70,255.0,255.0,255.0
484,24.200000000000003,3.939000000002436,-1.9640155706145322e-13,-20.695000000000775,-2.833872970489973e-11,2.272276261136577e-12,1.1388955944218354e-11,-7.331163595410285e-10,5.949272425585763e-11,1.6092786159255684e-10,0,70,255.0,255.0,255.0
485,24.25,3.939,0.0,-20.695,-7.114339320364339e-11,5.7522227950183475e-12,1.959241833351276e-11,-9.790701804088154e-10,7.970513709942107e-11,1.6721063397923805e-10,0,70,255.0,255.0,255.0
486,24.3,3.9389999999956062,3.558118312603073e-13,-20.694999999998892,-9.687364233351474e-11,7.851635858095886e-12,2.3093700322764542e-11,-5.013978478602468e-11,4.2713854236792925e-12,-2.7159354409168782e-11,0,70,255.0,255.0,255.0
487,24.35,3.938999999991087,7.223021260798131e-13,-20.694999999997854,-7.615737168224594e-11,6.179361337386284e-12,1.6876482892595845e-11,8.78790610836766e-10,-7.116236625206248e-11,-2.2152934279757562e-10,0,70,255.0,255.0,255.0
488,24.400000000000002,3.938999999988764,9.108865052691578e-13,-20.694999999997368,-8.99458124983689e-12,7.353992328895338e-13,9.407660430066661e-13,1.8077210064595567e-09,-1.4659611792780426e-10,-4.158993311859825e-10,0,70,255.0,255.0,255.0
489,24.450000000000003,3.9389999999909615,7.329805896389815e-13,-20.694999999997922,1.0461472896371231e-10,-8.480250455394352e-12,-2.471345022600299e-11,2.7366514020823475e-09,-2.2202986960354603e-10,-6.102693195743893e-10,0,70,255.0,255.0,255.0
490,24.5,3.939,0.0,-20.695,2.6467055895838873e-10,-2.1467587727464327e-11,-6.008616591443028e-11,3.665581797705072e-09,-2.974636212792824e-10,-8.046393079627822e-10,0,70,255.0,255.0,255.0
491,24.55,3.9390000000163696,-1.327907832197591e-12,-20.69500000000369,3.6120545480305973e-10,-2.93027039449435e-11,-8.103820178339603e-11,1.9581403608171386e-10,-1.594102741988019e-11,-3.3442126795836506e-11,0,70,255.0,255.0,255.0
492,24.6,3.9390000000332295,-2.6956682329448833e-12,-20.695000000007457,2.842519625665604e-10,-2.306169046945237e-11,-6.343037859401399e-11,-3.2739537255416443e-09,2.65581566439522e-10,7.377550543711092e-10,0,70,255.0,255.0,255.0
493,24.650000000000002,3.9390000000419034,-3.399474717593352e-12,-20.69500000000939,3.3810082248890626e-11,-2.744547300990917e-12,-7.262696346284082e-12,-6.743721487165002e-09,5.471041602989242e-10,1.508952235538055e-09,0,70,255.0,255.0,255.0
494,24.700000000000003,3.9390000000337184,-2.7355208014944707e-12,-20.695000000007546,-3.901201861499496e-10,3.164872556044083e-11,8.746484495979365e-11,-1.021348924878836e-08,8.286267541583264e-10,2.2801494167050006e-09,0,70,255.0,255.0,255.0
495,24.75,3.939,0.0,-20.695,-9.875388426299115e-10,8.011812811483895e-11,2.2075224532420833e-10,-1.3683257010411471e-08,1.1101493480177085e-09,3.051346597871891e-09,0,70,255.0,255.0,255.0
496,24.8,3.9389999999389147,4.955819497530057e-12,-20.69499999998635,-1.347948176878724e-09,1.0935917992167811e-10,3.010591068108196e-10,-7.331163595408308e-10,5.949272425584145e-11,1.6092786159251517e-10,0,70,255.0,255.0,255.0
497,24.85,3.938999999875997,1.0060370805699721e-11,-20.694999999972303,-1.0608504785839952e-09,8.606740054042318e-11,2.3684503148346e-10,1.221702429132981e-08,-9.911638995060256e-10,-2.7294908746868606e-09,0,70,255.0,255.0,255.0
498,24.900000000000002,3.9389999998436216,1.2687012365104251e-11,-20.69499999996508,-1.2624574774572556e-10,1.0242789971074092e-11,2.8110019342129616e-11,2.5167164942200453e-08,-2.041820523267893e-09,-5.6199096109662355e-09,0,70,255.0,255.0,255.0
499,24.950000000000003,3.9389999998741643,1.02091026163389e-11,-20.6949999999719,1.4558660156360858e-09,-1.1811465178636902e-10,-3.251459296131715e-10,3.8117305593071086e-08,-3.09247714702976e-09,-8.510328347245612e-09,0,70,255.0,255.0,255.0
500,25.0,3.939,0.0,-20.695,3.6854848115612568e-09,-2.990049247318915e-10,-8.22922815382403e-10,5.106744624394081e-08,-4.143133770791552e-09,-1.1400747083524782e-08,0,70,255.0,255.0,255.0
501,25.05,3.939000000227971,-1.8495370157922634e-11,-20.6950000000509,5.030587252711837e-09,-4.0813401574176896e-10,-1.1231982254598825e-09,2.736651402081608e-09,-2.2202986960348554e-10,-6.10269319574225e-10,0,70,255.0,255.0,255.0
502,25.1,3.9390000004627828,-3.7545814989854e-11,-20.695000000103327,3.959149951769422e-09,-3.212079116922404e-10,-8.83949747339826e-10,-4.5594143439777594e-08,3.6990740315845808e-09,1.0180208444376332e-08,0,70,255.0,255.0,255.0
503,25.150000000000002,3.93900000058361,-4.734857474282365e-11,-20.695000000130307,4.711729087340117e-10,-3.822661258330571e-11,-1.0517738102223492e-10,-9.39249382816368e-08,7.620177932772646e-09,2.097068620832689e-08,0,70,255.0,255.0,255.0
504,25.200000000000003,3.939000000469625,-3.810088966386112e-11,-20.695000000104855,-5.433343876394391e-09,4.4080988158503515e-10,1.2131188734928927e-09,-1.42255733123496e-07,1.1541281833960713e-08,3.176116397227745e-08,0,70,255.0,255.0,255.0
505,25.25,3.939,0.0,-20.695,-1.3754400403615116e-08,1.115901570812727e-09,3.0709390162054036e-09,-1.9058652796535177e-07,1.54623857351485e-08,4.255164173622724e-08,0,70,255.0,255.0,255.0
506,25.3,3.9389999991492024,6.902566113416048e-11,-20.69499999981004,-1.877440083396862e-08,1.5231768830453978e-09,4.191733795028711e-09,-1.0213489248785581e-08,8.286267541581026e-10,2.2801494167043856e-09,0,70,255.0,255.0,255.0
507,25.35,3.9389999982728705,1.4012288915371628e-10,-20.69499999961439,-1.4775749328493686e-08,1.1987642462285385e-09,3.298953957875846e-09,1.701595494677806e-07,-1.3805132226832296e-08,-3.799134290281847e-08,0,70,255.0,255.0,255.0
508,25.400000000000002,3.9389999978219388,1.7670728660619037e-10,-20.694999999513705,-1.7584458871903172e-09,1.4266366036214895e-10,3.9259950474680936e-10,3.505325881843468e-07,-2.8438891207822693e-08,-7.82628352223413e-08,0,70,255.0,255.0,255.0
509,25.450000000000003,3.938999998247337,1.4219445603910563e-10,-20.69499999960869,2.027750948994149e-08,-1.6451248745537713e-09,-4.527329564358398e-09,5.30905626900913e-07,-4.307265018881309e-08,-1.1853432754186417e-07,0,70,255.0,255.0,255.0
510,25.5,3.939,0.0,-20.695,5.1332116802899205e-08,-4.164601358519016e-09,-1.1460833249439211e-08,7.112786656174662e-07,-5.770640916980245e-08,-1.5880581986138415e-07,0,70,255.0,255.0,255.0
511,25.55,3.93900000317522,-2.5760727437871923e-10,-20.695000000708927,7.006701608316264e-08,-5.6845735164398216e-09,-1.5643736954654958e-08,3.81173055930607e-08,-3.0924771470289273e-09,-8.510328347243314e-09,0,70,255.0,255.0,255.0
512,25.6,3.939000006445734,-5.229457416250111e-10,-20.695000001439126,5.514384736220531e-08,-4.473849073221913e-09,-1.2311866084163554e-08,-6.350440544313448e-07,5.152145487574459e-08,1.4178516316689752e-07,0,70,255.0,255.0,255.0
513,25.650000000000002,3.9390000081286374,-6.594805716819377e-10,-20.695000001814865,6.562610640027272e-09,-5.324280288652899e-10,-1.4652206379650037e-09,-1.3082054144557503e-06,1.0613538689851811e-07,2.9208065468103836e-07,0,70,255.0,255.0,255.0
514,25.700000000000003,3.939000006541027,-5.306769344925615e-10,-20.695000001460404,-7.567669408337157e-08,6.13968961663005e-09,1.68961993839407e-08,-1.981366774480156e-06,1.6074931892129163e-07,4.423761461951792e-07,0,70,255.0,255.0,255.0
515,25.75,3.939,0.0,-20.695,-1.915740668079817e-07,1.554250386326334e-08,4.277239398155144e-08,-2.6545281345045135e-06,2.1536325094406126e-07,5.926716377093092e-07,0,70,255.0,255.0,255.0
516,25.8,3.938999988149917,9.614034363807168e-10,-20.69499999735425,-2.61493663498682e-07,2.121511718271389e-08,5.838321402359111e-08,-1.4225573312345774e-07,1.1541281833957615e-08,3.176116397226878e-08,0,70,255.0,255.0,255.0
517,25.85,3.938999975944194,1.9516600773463283e-09,-20.694999994629104,-2.0579964012032762e-07,1.669663204665911e-08,4.5948510378778357e-08,2.370016668257598e-06,-1.9228068727614603e-07,-5.291493097647716e-07,0,70,255.0,255.0,255.0
518,25.900000000000002,3.938999969663513,2.4612150001215608e-09,-20.694999993226826,-2.4491996672918778e-08,1.9870484550990023e-09,5.468283047113191e-09,4.882289069638654e-06,-3.961026563862497e-07,-1.090059783501812e-06,0,70,255.0,255.0,255.0
519,25.950000000000003,3.9389999755885547,1.9805132819311404e-09,-20.6949999945497,2.8242926684354487e-07,-2.2913633591966427e-08,-6.305746797140442e-08,7.39456147101971e-06,-5.999246254963533e-07,-1.6509702572388524e-06,0,70,255.0,255.0,255.0
520,26.0,3.939,0.0,-20.695,7.149641504290276e-07,-5.800541409453434e-08,-1.5962874267676654e-07,9.906833872400585e-06,-8.037465946064426e-07,-2.2118807309758532e-06,0,70,255.0,255.0,255.0
521,26.05,3.939000044225113,-3.5880064711441464e-09,-20.69500000987406,9.759076379115651e-07,-7.917589521441575e-08,-2.178891191397095e-07,5.309056269007689e-07,-4.307265018880137e-08,-1.1853432754183249e-07,0,70,255.0,255.0,255.0
522,26.1,3.93900008977749,-7.2836945677603e-09,-20.695000020044457,7.680547131191051e-07,-6.231267911341453e-08,-1.7148217543094993e-07,-8.845022618599047e-06,7.176012942288399e-07,1.9748120758921883e-06,0,70,255.0,255.0,255.0
523,26.150000000000002,3.9390001132173107,-9.185379428804301e-09,-20.69500002527782,9.140537605164794e-08,-7.415765791530729e-09,-2.0407911550487825e-08,-1.8220950864098862e-05,1.4782752386464812e-06,4.0681584793262094e-06,0,70,255.0,255.0,255.0
524,26.200000000000003,3.939000091104754,-7.391376193231996e-09,-20.695000020340792,-1.0540403732908074e-06,8.551484475123572e-08,2.3533367250167682e-07,-2.759687910959868e-05,2.238949183064122e-06,6.16150488276023e-06,0,70,255.0,255.0,255.0
525,26.25,3.939,0.0,-20.695,-2.6682825349081285e-06,2.1647915251487402e-07,5.957425767255147e-07,-3.6972807355097826e-05,2.99962312748171e-06,8.254851286194104e-06,0,70,255.0,255.0,255.0
526,26.3,3.9389998349496307,1.3390622448195873e-08,-20.694999963149506,-3.6421368881475788e-06,2.954884636749491e-07,8.131732625352469e-07,-1.9813667744796165e-06,1.6074931892124867e-07,4.423761461950597e-07,0,70,255.0,255.0,255.0
527,26.35,3.938999664945845,2.718311819369488e-08,-20.69499992519307,-2.866419212356093e-06,2.3255408440699906e-07,6.399801913450214e-07,3.3010073806138593e-05,-2.6781244896392126e-06,-7.370098993803984e-06,0,70,255.0,255.0,255.0
528,26.400000000000002,3.9389995774672437,3.428030271509567e-08,-20.694999905661884,-3.4112950753367183e-07,2.76760147110239e-08,7.616336315483803e-08,6.80015143867568e-05,-5.516998298199675e-06,-1.5182574133803025e-05,0,70,255.0,255.0,255.0
529,26.450000000000003,3.938999659992428,2.758499149099686e-08,-20.69499992408713,3.933732226319684e-06,-3.191457454129763e-07,-8.782772220353029e-07,0.00010299295496737501,-8.355872106760135e-06,-2.2995049273802072e-05,0,70,255.0,255.0,255.0
530,26.5,3.939,0.0,-20.695,9.958165989203485e-06,-8.079111959649617e-07,-2.223341564225292e-06,0.00013798439554799075,-1.1194745915320396e-05,-3.080752441380054e-05,0,70,255.0,255.0,255.0
531,26.55,3.939000615976363,-4.997448332163934e-08,-20.69500013752792,1.359263991467875e-05,-1.1027779594853806e-06,-3.0348039310012774e-06,7.394561471017714e-06,-5.999246254961909e-07,-1.6509702572384033e-06,0,70,255.0,255.0,255.0
532,26.6,3.93900125043913,-1.014487782070192e-07,-20.695000279183265,1.0697622136305266e-05,-8.67903658514582e-07,-2.388438589949135e-06,-0.00012319527260595532,9.994896664328014e-06,2.7505583899323737e-05,0,70,255.0,255.0,255.0
533,26.650000000000002,3.939001576913715,-1.2793583143157833e-07,-20.695000352074647,1.273112654083039e-06,-1.0328829305256488e-07,-2.842455410688643e-07,-0.00025378510668292836,2.0589717954152214e-05,5.666213805588588e-05,0,70,255.0,255.0,255.0
534,26.700000000000003,3.9390012689255336,-1.0294858977075543e-07,-20.69500028331069,-1.468088853198793e-05,1.1910681369006696e-06,3.277775215639534e-06,-0.0003843749407599014,3.118453924397642e-05,8.581869221244802e-05,0,70,255.0,255.0,255.0
535,26.75,3.939,0.0,-20.695,-3.716438142190581e-05,3.0151656313449727e-06,8.297623680175652e-06,-0.0005149647748368649,4.177936053379987e-05,0.00011497524636900811,0,70,255.0,255.0,255.0
536,26.8,3.938997701144917,1.865073108383615e-07,-20.69499948673882,-5.072842277056741e-05,4.115623374266573e-06,1.1326042461469863e-05,-2.759687910959118e-05,2.2389491830635157e-06,6.161504882758564e-06,0,70,255.0,255.0,255.0
537,26.85,3.9389953332976364,3.7861199463438194e-07,-20.694998958073874,-3.992406933286496e-05,3.239060549651327e-06,8.913774168451517e-06,0.0004597710166176826,-3.730146216767284e-05,-0.00010265223660349098,0,70,255.0,255.0,255.0
538,26.900000000000002,3.938994114877897,4.774630230112176e-07,-20.69499868603952,-4.751321108798496e-06,3.8547715749923613e-07,1.0608188011206183e-06,0.0009471389123449565,-7.68418735184092e-05,-0.00021146597808974053,0,70,255.0,255.0,255.0
539,26.950000000000003,3.9389952643054382,3.8420936759202463e-07,-20.69499894267011,5.4789821901632006e-05,-4.445126802189704e-06,-1.2232823640522837e-05,0.0014345068080722301,-0.00011638228486914555,-0.0003202797195759901,0,70,255.0,255.0,255.0
540,27.0,3.939,0.0,-20.695,0.00013869935969841975,-1.125275132941493e-05,-3.096715315647732e-05,0.0019218747037994697,-0.00015592269621987907,-0.00042909346106223187,0,70,255.0,255.0,255.0
541,27.05,3.939008579443969,-6.960547600318065e-07,-20.695001915516816,0.0001893210511675909,-1.535971553758091e-05,-4.2269365914878175e-05,0.00010299295496734727,-8.35587210675786e-06,-2.2995049273795865e-05,0,70,255.0,255.0,255.0
542,27.1,3.9390174163703264,-1.4129992003305084e-06,-20.69500388852125,0.0001489986551951546,-1.2088338540090728e-05,-3.326665808385694e-05,-0.0017158887938647752,0.00013921095200636335,0.00038310336251464014,0,70,255.0,255.0,255.0
543,27.150000000000002,3.939021963574698,-1.7819162606132922e-06,-20.69500490376728,1.773217178111094e-05,-1.4386203369443784e-06,-3.959029663413606e-06,-0.0035347705426968974,0.00028677777611948454,0.0007892017743030762,0,70,255.0,255.0,255.0
544,27.200000000000003,3.9390176738527134,-1.433888880597344e-06,-20.69500394600887,-0.00020447839907454025,1.6589439071858136e-05,4.565351934645181e-05,-0.00535365229152902,0.0004343446002326058,0.0011953001860915123,0,70,255.0,255.0,255.0
545,27.25,3.939,0.0,-20.695,-0.0005176330573717732,4.199583968631474e-05,0.00011557098894573362,-0.0071725340403610074,0.0005819114243457164,0.0016013985978799196,0,70,255.0,255.0,255.0
