idx,t,px,py,pz,vx,vy,vz,ax,ay,az,yaw,mode,ledr,ledg,ledb
0,0.0,4.5,-3.0,0.0,-1.9588449409199512e-19,2.694014491255803e-19,0.019030436778708193,2.3506139291039416e-18,-3.2328173895069633e-18,-0.5155652413444983,0,70,255.0,255.0,255.0
1,0.05,4.5,-3.0,0.00030909572403349495,-9.010686728231773e-20,1.2392466659776693e-19,-0.006625999081794231,1.8804911432831534e-18,-2.5862539116055706e-18,-0.5106921930755987,0,70,255.0,255.0,255.0
2,0.1,4.5,-3.0,-0.000658539034622007,-7.835379763679779e-21,1.0776057965023204e-20,-0.03203878252885167,1.4103683574623649e-18,-1.939690433704178e-18,-0.505819144806699,0,70,255.0,255.0,255.0
3,0.15000000000000002,4.5,-3.0,-0.002890721655294257,5.0929968463918754e-20,-7.004437677265088e-20,-0.05720791356246414,9.402455716415765e-19,-1.2931269558027851e-18,-0.5009460965377992,0,70,255.0,255.0,255.0
4,0.2,4.5,-3.0,-0.006375269517311004,8.618917740047788e-20,-1.1853663761525532e-19,-0.08213339218263159,4.701227858207882e-19,-6.465634779013924e-19,-0.49607304826889953,0,70,255.0,255.0,255.0
5,0.25,4.5,-3.0,-0.0111,9.794224704599756e-20,-1.3470072456279015e-19,-0.1068152183893541,0.0,0.0,-0.4912000000000001,0,70,255.0,255.0,255.0
6,0.30000000000000004,4.5,-3.0,-0.017052730482689002,8.618917740047783e-20,-1.185366376152553e-19,-0.13125339218263163,-4.701227858207887e-19,6.465634779013932e-19,-0.48632695173110047,0,70,255.0,255.0,255.0
7,0.35000000000000003,4.5,-3.0,-0.02422127834470575,5.0929968463918694e-20,-7.004437677265083e-20,-0.15544791356246415,-9.40245571641577e-19,1.2931269558027857e-18,-0.48145390346220085,0,70,255.0,255.0,255.0
8,0.4,4.5,-3.0,-0.032593460965378,-7.835379763679839e-21,1.077605796502324e-20,-0.1793987825288517,-1.410368357462365e-18,1.9396904337041782e-18,-0.4765808551933012,0,70,255.0,255.0,255.0
9,0.45,4.5,-3.0,-0.042157095724033505,-9.01068672823178e-20,1.2392466659776698e-19,-0.20310599908179428,-1.8804911432831534e-18,2.586253911605571e-18,-0.47170780692440156,0,70,255.0,255.0,255.0
10,0.5,4.5,-3.0,-0.0529,-1.9588449409199512e-19,2.694014491255803e-19,-0.22656956322129185,-2.350613929103942e-18,3.2328173895069637e-18,-0.4668347586555024,0,70,255.0,255.0,255.0
11,0.55,4.5,-3.0,-0.06480937379327753,-2.546498423195937e-19,3.502218838632544e-19,-0.24975243218767942,1.925929944387236e-33,-2.6963019221421302e-33,-0.4604799999999999,0,70,255.0,255.0,255.0
12,0.6000000000000001,4.5,-3.0,-0.07786994758655505,-1.9588449409199497e-19,2.6940144912557996e-19,-0.2726175632212919,2.350613929103946e-18,-3.232817389506969e-18,-0.45412524134449744,0,70,255.0,255.0,255.0
13,0.65,4.5,-3.0,-0.09206583448319379,-1.958844940919941e-20,2.6940144912558015e-20,-0.2951649563221292,4.701227858207883e-18,-6.46563477901393e-18,-0.44777048268899494,0,70,255.0,255.0,255.0
14,0.7000000000000001,4.5,-3.0,-0.10738114758655504,2.7423829172879367e-19,-3.7716202877581317e-19,-0.3173946114901913,7.051841787311827e-18,-9.698452168520896e-18,-0.44141572403349244,0,70,255.0,255.0,255.0
15,0.75,4.5,-3.0,-0.1238,6.855957293219829e-19,-9.429050719395311e-19,-0.33930652872547834,9.402455716415766e-18,-1.2931269558027855e-17,-0.4350609653779922,0,70,255.0,255.0,255.0
16,0.8,4.5,-3.0,-0.14130657434420096,9.32410191877897e-19,-1.2823508978377623e-18,-0.3609048790666507,4.701227858207805e-19,-6.465634779013831e-19,-0.4288730482689007,0,70,255.0,255.0,255.0
17,0.8500000000000001,4.5,-3.0,-0.1598853313090742,7.32608007904061e-19,-1.0075614197296693e-18,-0.3821938335523684,-8.462210144774205e-18,1.1638142602225089e-17,-0.4226851311598092,0,70,255.0,255.0,255.0
18,0.9,4.5,-3.0,-0.1795208011018469,8.618917740047706e-20,-1.1853663761525542e-19,-0.4031733921826316,-1.739454307536917e-17,2.3922848682351536e-17,-0.4164972140507177,0,70,255.0,255.0,255.0
19,0.9500000000000001,4.5,-3.0,-0.2001975139297464,-1.0068462996328572e-18,1.3847234485054852e-18,-0.42384355495744025,-2.632687600596416e-17,3.620755476247801e-17,-0.4103092969416262,0,70,255.0,255.0,255.0
20,1.0,4.5,-3.0,-0.2219,-2.5464984231959367e-18,3.502218838632544e-18,-0.44420432187679426,-3.525920893655913e-17,4.8492260842604476e-17,-0.40412137983253693,0,70,255.0,255.0,255.0
21,1.05,4.5,-3.0,-0.24461232882991865,-3.474990925191995e-18,4.779181707487796e-18,-0.4642280515457178,-1.880491143283128e-18,2.5862539116055386e-18,-0.3968278069244027,0,70,255.0,255.0,255.0
22,1.1,4.5,-3.0,-0.26831672717714833,-2.7345475375242496e-18,3.760844229793097e-18,-0.48388710256923456,3.1498226649992876e-17,-4.33197530193934e-17,-0.38953423401626847,0,70,255.0,255.0,255.0
23,1.1500000000000001,4.5,-3.0,-0.29299496110941875,-3.2516826019270315e-19,4.472064055484506e-19,-0.5031814749473447,6.487694444326887e-17,-8.922575995039233e-17,-0.38224066110813426,0,70,255.0,255.0,255.0
24,1.2000000000000002,4.5,-3.0,-0.3186287966944594,3.753146906802644e-18,-5.1617317652461456e-18,-0.522111168680048,9.825566223654489e-17,-1.3513176688139127e-16,-0.37494708820000006,0,70,255.0,255.0,255.0
25,1.25,4.5,-3.0,-0.3452,9.500397963461764e-18,-1.3065970282590647e-17,-0.5406761837673446,1.3163438002982075e-16,-1.8103777381239e-16,-0.36765351529187207,0,70,255.0,255.0,255.0
26,1.3,4.5,-3.0,-0.37269131033612446,1.2967553508890078e-17,-1.783437593211342e-17,-0.5589349147504787,7.05184178731175e-18,-9.698452168520744e-18,-0.3626957240334942,0,70,255.0,255.0,255.0
27,1.35,4.5,-3.0,-0.40108935998233264,1.0205582142192938e-17,-1.403581549944272e-17,-0.5769457561706941,-1.1753069645519725e-16,1.6164086947534852e-16,-0.35773793277511634,0,70,255.0,255.0,255.0
28,1.4000000000000001,4.5,-3.0,-0.43038175446047855,1.2144838633703429e-18,-1.670288984578546e-18,-0.5947087080279905,-2.421132346977063e-16,3.329801911192178e-16,-0.3527801415167385,0,70,255.0,255.0,255.0
29,1.4500000000000002,4.5,-3.0,-0.46055609929241637,-1.400574132757771e-17,1.9262203612479094e-17,-0.612223770322368,-3.6669577294021524e-16,5.043195127630871e-16,-0.3478223502583606,0,70,255.0,255.0,255.0
30,1.5,4.5,-3.0,-0.4916,-3.545509343065112e-17,4.8761662291730046e-17,-0.6294909430538266,-4.912783111827238e-16,6.756588344069555e-16,-0.34286455899998725,0,70,255.0,255.0,255.0
31,1.55,4.5,-3.0,-0.5235000298255836,-4.839522311036832e-17,6.655832202096589e-17,-0.6464482894523669,-2.6326876005963755e-17,3.620755476247743e-17,-0.3354292969416276,0,70,255.0,255.0,255.0
32,1.6,4.5,-3.0,-0.5562386328935214,-3.8087781031247495e-17,5.2382417767977796e-17,-0.6630338727479894,4.3862455917079634e-16,-6.032437248820006e-16,-0.327994034883268,0,70,255.0,255.0,255.0
33,1.6500000000000001,4.5,-3.0,-0.5897972210486674,-4.532767193288653e-18,6.233949532765755e-18,-0.6792476929406938,9.035759943475563e-16,-1.2426950045264787e-15,-0.32055877282490836,0,70,255.0,255.0,255.0
34,1.7000000000000002,4.5,-3.0,-0.6241572061358757,5.22698184035082e-17,-7.188708268467017e-17,-0.6950897500304802,1.3685274295243165e-15,-1.8821462841709568e-15,-0.3131235107665487,0,70,255.0,255.0,255.0
35,1.75,4.5,-3.0,-0.6593,1.3231997575914272e-16,-1.8198067888432953e-16,-0.7105600440173487,1.8334788647010747e-15,-2.5215975638154317e-15,-0.3056882487081918,0,70,255.0,255.0,255.0
36,1.8,4.5,-3.0,-0.6952077703615409,1.8061333893258322e-16,-2.4839891215175006e-16,-0.7257039274400535,9.825566223654347e-17,-1.3513176688138866e-16,-0.30006708820000194,0,70,255.0,255.0,255.0
37,1.85,4.5,-3.0,-0.731865708443582,1.421455419827971e-16,-1.9549385557246841e-16,-0.740566752837349,-1.6369675402279878e-15,2.2513340300526544e-15,-0.29444592769181205,0,70,255.0,255.0,255.0
38,1.9000000000000001,4.5,-3.0,-0.7692597613448523,1.69165849097843e-17,-2.326550914648445e-17,-0.7551485202092348,-3.3721907426925195e-15,4.637799826986697e-15,-0.28882476718362216,0,70,255.0,255.0,255.0
39,1.9500000000000002,4.5,-3.0,-0.8073758761640819,-1.9507353228645504e-16,2.682861271262017e-16,-0.7694492295557112,-5.10741394515705e-15,7.0242656239207405e-15,-0.2832036066754323,0,70,255.0,255.0,255.0
40,2.0,4.5,-3.0,-0.8462,-4.938248096059197e-16,6.79161053245588e-16,-0.7834688808767781,-6.842637147621574e-15,9.410731420854774e-15,-0.2775824461672469,0,70,255.0,255.0,255.0
41,2.0500000000000003,4.5,-3.0,-0.8857176887282528,-6.740581326199646e-16,9.270373265860347e-16,-0.7971840007874185,-3.6669577294018103e-16,5.043195127630401e-16,-0.27102235025836463,0,70,255.0,255.0,255.0
42,2.1,4.5,-3.0,-0.9259129333321511,-5.304943868999409e-16,7.295930045218962e-16,-0.8105711159026147,6.109245601741155e-15,-8.402092395328615e-15,-0.2644622543494824,0,70,255.0,255.0,255.0
43,2.15,4.5,-3.0,-0.9667693335719233,-6.313357244585126e-17,8.682808705317639e-17,-0.8236302262223666,1.2585186976422492e-14,-1.7308504303420266e-14,-0.2579021584406002,0,70,255.0,255.0,255.0
44,2.2,4.5,-3.0000000000000004,-1.0082704892077972,7.280243107423122e-16,-1.0012574258201362e-15,-0.8363613317466747,1.9061128351103885e-14,-2.6214916211512003e-14,-0.2513420625317179,0,70,255.0,255.0,255.0
45,2.25,4.5,-3.0,-1.0504,1.8429792626645362e-15,-2.5346635340980226e-15,-0.8487644324755385,2.5537069725785223e-14,-3.512132811960365e-14,-0.24478196662283924,0,70,255.0,255.0,255.0
46,2.3000000000000003,4.5,-3.0,-1.0931414747254489,2.5156191915472755e-15,-3.459750394192388e-15,-0.8608400694102732,1.3685274295241905e-15,-1.882146284170776e-15,-0.23824351076655162,0,70,255.0,255.0,255.0
47,2.35,4.5,-3.0000000000000004,-1.1364785582278139,1.979832005616966e-15,-2.7228781625151155e-15,-0.8725887835521936,-2.2800014866736628e-14,3.135703555126181e-14,-0.23170505491026405,0,70,255.0,255.0,255.0
48,2.4000000000000004,4.5,-3.0000000000000004,-1.1803949043674546,2.3561770487359933e-16,-3.2404683906618983e-16,-0.8840105749012998,-4.696855716299767e-14,6.459621738669468e-14,-0.22516659905397646,0,70,255.0,255.0,255.0
49,2.45,4.5,-3.0000000000000004,-1.2248741670047305,-2.7170237106827933e-15,3.7367435761543435e-15,-0.8951054434575914,-7.113709945925847e-14,9.783539922212727e-14,-0.2186281431976889,0,70,255.0,255.0,255.0
50,2.5,4.5,-3.0,-1.2699,-6.878092241052225e-15,9.459493083146502e-15,-0.9058733892210686,-9.530564175551932e-14,1.3107458105755988e-13,-0.21208968734140576,0,70,255.0,255.0,255.0
51,2.5500000000000003,4.5,-2.9999999999999996,-1.315456412369953,-9.388418633569137e-15,1.291196425018352e-14,-0.9163357215714897,-5.107413945156574e-15,7.024265623920074e-15,-0.2064036066754308,0,70,255.0,255.0,255.0
52,2.6,4.499999999999998,-2.999999999999999,-1.361528833756594,-7.388833635567925e-15,1.0161919645538567e-14,-0.9265137498886117,8.509081386520539e-14,-1.1702604980971862e-13,-0.20071752600945592,0,70,255.0,255.0,255.0
53,2.6500000000000004,4.499999999999999,-2.9999999999999987,-1.4081030489582593,-8.79337247048549e-16,1.2093592692115924e-15,-0.9364074741724353,1.7528904167556813e-13,-2.410763652433584e-13,-0.195031445343481,0,70,255.0,255.0,255.0
54,2.7,4.499999999999999,-2.9999999999999987,-1.4551648427732826,1.0140070531988863e-14,-1.394571687879724e-14,-0.9460168944229598,2.654872694859301e-13,-3.651266806769971e-13,-0.1893453646775061,0,70,255.0,255.0,255.0
55,2.75,4.5,-3.0,-1.5027,2.5669389701544364e-14,-3.530330879848799e-14,-0.9553420106401856,3.556854972962921e-13,-4.89176996110636e-13,-0.18365928401152853,0,70,255.0,255.0,255.0
56,2.8000000000000003,4.500000000000002,-3.000000000000002,-1.5506936757947407,3.503805534272928e-14,-4.81881066065417e-14,-0.964345044303767,1.9061128351102143e-14,-2.6214916211509583e-14,-0.17646206253171975,0,70,255.0,255.0,255.0
57,2.85,4.5000000000000036,-3.000000000000005,-1.59912850674581,2.757550253665473e-14,-3.792480041963916e-14,-0.9729882168933577,-3.175632405940849e-13,4.3674716368761256e-13,-0.16926484105191103,0,70,255.0,255.0,255.0
58,2.9000000000000004,4.500000000000004,-3.0000000000000053,-1.64798649979951,3.281731283320603e-15,-4.513390237780189e-15,-0.981271528408958,-6.541876095392748e-13,8.99709243586739e-13,-0.16206761957210225,0,70,255.0,255.0,255.0
59,2.95,4.5000000000000036,-3.0000000000000044,-1.6972496619021396,-3.784325841727267e-14,5.2046123939034614e-14,-0.9891949788505678,-9.908119784844618e-13,1.362671323485861e-12,-0.15487039809229353,0,70,255.0,255.0,255.0
60,3.0,4.5,-3.0,-1.7469,-9.579946656512524e-14,1.3175374211080546e-13,-0.9967585682181872,-1.3274363474296487e-12,1.8256334033849835e-12,-0.14767317661248391,0,70,255.0,255.0,255.0
61,3.0500000000000003,4.499999999999995,-2.999999999999992,-1.7969200844510858,-1.3076380273734793e-13,1.7984046217598328e-13,-1.0039961012134417,-7.113709945925166e-14,9.78353992221179e-14,-0.1418281431976961,0,70,255.0,255.0,255.0
62,3.1,4.4999999999999885,-2.999999999999983,-1.847294739260165,-1.0291317651105098e-13,1.4153728203301805e-13,-1.0109413825379567,1.1851621485111345e-12,-1.6299626049407324e-12,-0.1359831097829083,0,70,255.0,255.0,255.0
63,3.1500000000000004,4.499999999999985,-2.999999999999979,-1.8980093518437025,-1.2247587886233816e-14,1.6844201681909114e-14,-1.0175944121917326,2.441461396481531e-12,-3.3577606091035976e-12,-0.1301380763681205,0,70,255.0,255.0,255.0
64,3.2,4.499999999999988,-2.9999999999999836,-1.9490493096181594,1.4123296313710183e-13,-1.9423877887734136e-13,-1.0239551901747688,3.697760644451918e-12,-5.085558613266448e-12,-0.12429304295333272,0,70,255.0,255.0,255.0
65,3.25,4.5,-3.0,-2.0004,3.575284765589566e-13,-4.917116596447339e-13,-1.030023716487066,4.954059892422303e-12,-6.8133566174292965e-12,-0.11844800953854673,0,70,255.0,255.0,255.0
66,3.3000000000000003,4.500000000000022,-3.00000000000003,-2.052046786400918,4.880171556066625e-13,-6.711737420973913e-13,-1.0357985508424672,2.6548726948590454e-13,-3.6512668067696213e-13,-0.11254536467749997,0,70,255.0,255.0,255.0
67,3.35,4.500000000000044,-3.000000000000062,-2.103974936213529,3.8407720350754924e-13,-5.28224327712433e-13,-1.0412782529548161,-4.423085353450452e-12,6.083103256075314e-12,-0.10664271981645326,0,70,255.0,255.0,255.0
68,3.4000000000000004,4.500000000000057,-3.000000000000078,-2.1561696928256824,4.570862026161484e-14,-6.286341648985615e-14,-1.0464628228241126,-9.111657976386852e-12,1.2531333192827651e-11,-0.10074007495540652,0,70,255.0,255.0,255.0
69,3.45,4.500000000000046,-3.0000000000000626,-2.2086162996252234,-5.270885941311345e-13,7.249089915703302e-13,-1.0513522604503567,-1.3800230599323209e-11,1.8979563129579926e-11,-0.09483743009435981,0,70,255.0,255.0,255.0
70,3.5,4.5,-3.0,-2.2613,-1.3343144396707012e-12,1.83509289646813e-12,-1.0559465658335485,-1.8488803222259566e-11,2.542779306633221e-11,-0.08893478523331311,0,70,255.0,255.0,255.0
71,3.5500000000000003,4.499999999999917,-2.9999999999998863,-2.3142055699452437,-1.8213048196893024e-12,2.504854506213582e-12,-1.0602176954166886,-9.908119784843649e-13,1.3626713234857318e-12,-0.08191039809229178,0,70,255.0,255.0,255.0
72,3.6,4.499999999999833,-2.99999999999977,-2.367315915885718,-1.4333956375191456e-12,1.9713600288167145e-12,-1.0641376056427776,1.650717926529068e-11,-2.2702450419360533e-11,-0.07488601095127051,0,70,255.0,255.0,255.0
73,3.6500000000000004,4.4999999999997895,-2.9999999999997096,-2.4206134768535708,-1.7058689316022508e-13,2.3460946427751666e-13,-1.0677062965118158,3.4005170509065875e-11,-4.6767572162207014e-11,-0.06786162381024918,0,70,255.0,255.0,255.0
74,3.7,4.49999999999983,-2.9999999999997664,-2.474080691880949,1.9671214133874374e-12,-2.7053971874039798e-12,-1.0709237680238026,5.150316175284093e-11,-7.083269390505328e-11,-0.06083723666922791,0,70,255.0,255.0,255.0
75,3.75,4.5,-3.0,-2.5277,4.979729282123848e-12,-6.848659926227786e-12,-1.0737900201787385,6.900115299661593e-11,-9.489781564789952e-11,-0.05381284952820664,0,70,255.0,255.0,255.0
76,3.8000000000000003,4.500000000000307,-3.0000000000004237,-2.581454133818108,6.797202123150544e-12,-9.348244282756937e-12,-1.076322667490777,3.6977606444515525e-12,-5.085558613265955e-12,-0.047493042953338685,0,70,255.0,255.0,255.0
77,3.85,4.500000000000625,-3.0000000000008598,-2.6353270002435982,5.349505346569032e-12,-7.357215787554421e-12,-1.0785393244740724,-6.160563170771226e-11,8.472669842136681e-11,-0.04117323637847078,0,70,255.0,255.0,255.0
78,3.9000000000000004,4.500000000000789,-3.0000000000010845,-2.689302799760036,6.366389523792855e-13,-8.755744406202087e-13,-1.080439991128624,-1.2690902405987664e-10,1.745389554560004e-10,-0.034853429803602815,0,70,255.0,255.0,255.0
79,3.95,4.500000000000634,-3.0000000000008726,-2.7433657328509824,-7.341397059418612e-12,1.0096679758045595e-11,-1.0820246674544325,-1.9221241641204045e-10,2.643512124906331e-10,-0.028533623228734917,0,70,255.0,255.0,255.0
80,4.0,4.5,-3.0,-2.7975,-1.858460268882469e-11,2.5559546808443013e-11,-1.083293353451498,-2.5751580876420427e-10,3.5416346952526584e-10,-0.02221381665386879,0,70,255.0,255.0,255.0
81,4.05,4.499999999998851,-2.9999999999984186,-2.8516898947823255,-2.5367503672912874e-11,3.4888122624814155e-11,-1.0842516346202038,-1.3800230599324081e-11,1.8979563129581056e-11,-0.016117430094363904,0,70,255.0,255.0,255.0
82,4.1000000000000005,4.499999999997667,-2.9999999999967906,-2.905920083139888,-1.9964625748756888e-11,2.7457503121400834e-11,-1.0849050964609344,2.2991534756556045e-10,-3.162043432661096e-10,-0.010021043534858911,0,70,255.0,255.0,255.0
83,4.15,4.499999999997057,-2.9999999999959526,-2.9601753241062863,-2.3759689163569265e-12,3.2676882982033173e-12,-1.0852537389736896,4.736309257304406e-10,-6.513882496617944e-10,-0.003924656975354025,0,70,255.0,255.0,255.0
84,4.2,4.499999999997631,-2.999999999996743,-3.0144403767151235,2.7398466824287002e-11,-3.7681321844778375e-11,-1.0852975621584697,7.173465038953208e-10,-9.865721560574793e-10,0.0021717295841508603,0,70,255.0,255.0,255.0
85,4.25,4.5,-3.0,-3.0687,6.93586814731749e-11,-9.538952730754426e-11,-1.0850365660152745,9.61062082060201e-10,-1.3217560624531642e-09,0.008268116143659299,0,70,255.0,255.0,255.0
86,4.3,4.500000000004291,-3.0000000000059,-3.1229390870525893,9.467281256850093e-11,-1.302042462164997e-10,-1.0844787940284133,5.1503161752843997e-11,-7.083269390505747e-11,0.01404276333078689,0,70,255.0,255.0,255.0
87,4.3500000000000005,4.500000000008709,-3.0000000000119784,-3.177143067196853,7.450899764845853e-11,-1.0247279669804895e-10,-1.083632289682196,-8.580557585545291e-10,1.1800906746430712e-09,0.019817410517914587,0,70,255.0,255.0,255.0
88,4.4,4.500000000010983,-3.0000000000151057,-3.23129750381482,8.867236713048401e-12,-1.2195178752192983e-11,-1.082497052976622,-1.767614678861886e-09,2.431014043191178e-09,0.02559205770504218,0,70,255.0,255.0,255.0
89,4.45,4.500000000008837,-3.0000000000121556,-3.2853879602885256,-1.0225247023772946e-10,1.4062860762106797e-10,-1.0810730839116915,-2.677173599169243e-09,3.681937411739284e-09,0.03136670489216977,0,70,255.0,255.0,255.0
90,4.5,4.5,-3.0,-3.3394,-2.5885012320387494e-10,3.5599856242173405e-10,-1.079360382487405,-3.5867325194765995e-09,4.9328607802873915e-09,0.03714135207930447,0,70,255.0,255.0,255.0
91,4.55,4.499999999983988,-2.999999999977979,-3.3933185570073157,-3.533237466010909e-10,4.859288622411846e-10,-1.0773211892661405,-1.9221241641205253e-10,2.6435121249064996e-10,0.04442637677126588,0,70,255.0,255.0,255.0
92,4.6000000000000005,4.499999999967496,-2.9999999999552975,-3.4471260480727044,-2.7807136484507727e-10,3.8243368367079517e-10,-1.0749177448102785,3.202307686652555e-09,-4.404158355306174e-09,0.051711401463227426,0,70,255.0,255.0,255.0
93,4.65,4.49999999995901,-2.999999999943626,-3.500804260634434,-3.3092977935836723e-11,4.551302671056909e-11,-1.072150049119818,6.596827789717102e-09,-9.072667923102914e-09,0.05899642615518884,0,70,255.0,255.0,255.0
94,4.7,4.499999999967016,-2.999999999954637,-3.554334982130776,3.8161141412663054e-10,-5.248331086394934e-10,-1.0690181021947596,9.991347892781648e-09,-1.3741177490899657e-08,0.06628145084715026,0,70,255.0,255.0,255.0
95,4.75,4.5,-3.0,-3.6077,9.660418113423248e-10,-1.328604722379392e-09,-1.0655219040351027,1.33858679958462e-08,-1.84096870586964e-08,0.07356647553911344,0,70,255.0,255.0,255.0
96,4.800000000000001,4.500000000059756,-3.000000000082183,-3.660881884918146,1.3186221738358632e-09,-1.8135112027482396e-09,-1.0617084489070214,7.173465038951426e-10,-9.865721560572345e-10,0.07897172958413358,0,70,255.0,255.0,255.0
97,4.8500000000000005,4.500000000121306,-3.000000000166832,-3.713866340512332,1.0377764617318505e-09,-1.4272619379851316e-09,-1.0576247310766893,-1.1951174988055689e-08,1.6436542746581626e-08,0.0843769836291536,0,70,255.0,255.0,255.0
98,4.9,4.500000000152976,-3.00000000021039,-3.7666398536474444,1.2350467503029847e-10,-1.6985692809008323e-10,-1.0532707505441061,-2.4619696480006524e-08,3.385965764922048e-08,0.08978223767417365,0,70,255.0,255.0,255.0
99,4.95,4.500000000123098,-3.0000000001692984,-3.819188911188371,-1.4241931862687923e-09,1.9587038269369053e-09,-1.0486465073092721,-3.728821797195735e-08,5.128277255185933e-08,0.09518749171919369,0,70,255.0,255.0,255.0
100,5.0,4.5,-3.0,-3.8715,-3.6053171221654245e-09,4.958420327095833e-09,-1.043752001372187,-4.995673946390819e-08,6.87058874544982e-08,0.1005927457642084,0,70,255.0,255.0,255.0
101,5.050000000000001,4.499999999776988,-2.9999999996932902,-3.9235587033201016,-4.921164948742362e-09,6.768115948751772e-09,-1.038533015105777,-2.677173599168565e-09,3.6819374117383507e-09,0.1081667048921884,0,70,255.0,255.0,255.0
102,5.1000000000000005,4.499999999547283,-2.999999999377375,-3.9753469898779716,-3.873034482082325e-09,5.3266140682697295e-09,-1.032935330882968,4.460239226557021e-08,-6.134201263102034e-08,0.11574066402016826,0,70,255.0,255.0,255.0
103,5.15,4.499999999429084,-2.999999999214815,-4.026845924775792,-4.6092572218535735e-10,6.339146856497583e-10,-1.0269589487037603,9.1881958130309e-08,-1.2636596267377903e-07,0.12331462314814813,0,70,255.0,255.0,255.0
104,5.2,4.499999999540591,-2.9999999993681703,-4.0780365731157415,5.3151613309485425e-09,-7.309982199108129e-09,-1.0206038685681533,1.3916152399504778e-07,-1.9138991271653772e-07,0.13088858227612798,0,70,255.0,255.0,255.0
105,5.25,4.5,-3.0,-4.1289,1.3455226677319373e-08,-1.8505076586003942e-08,-1.0138700904761473,1.8644108985978656e-07,-2.564138627592963e-07,0.13846254140410963,0,70,255.0,255.0,255.0
106,5.300000000000001,4.5000000008322925,-3.0000000011446573,-4.179418501801452,1.8366037621133584e-08,-2.525895259225885e-08,-1.0068314906698657,9.991347892779147e-09,-1.3741177490896142e-08,0.14308145084715285,0,70,255.0,255.0,255.0
107,5.3500000000000005,4.500000001689562,-3.000000002323668,-4.229579299975785,1.4454361466597447e-08,-1.9879194335093782e-08,-0.9995619453914321,-1.6645839407422515e-07,2.2893150777749968e-07,0.14770036029019598,0,70,255.0,255.0,255.0
108,5.4,4.500000002130688,-3.0000000029303497,-4.279370847249392,1.720198213711126e-09,-2.365801814508962e-09,-0.9920614546408462,-3.429081360412294e-07,4.7160419304589556e-07,0.15231926973323912,0,70,255.0,255.0,255.0
109,5.45,4.5000000017145405,-3.0000000023580213,-4.328781596348666,-1.9836452137525366e-08,2.7281224969495604e-08,-0.9843300184181081,-5.193578780082337e-07,7.142768783142914e-07,0.15693817917628225,0,70,255.0,255.0,255.0
110,5.5,4.5,-3.0,-4.3778,-5.021558958711206e-08,6.906188601691993e-08,-0.9763676367232178,-6.958076199752379e-07,9.56949563582687e-07,0.16155708861932805,0,70,255.0,255.0,255.0
111,5.550000000000001,4.499999996893845,-2.99999999572808,-4.426412889474095,-6.854298553579198e-08,9.426769442028362e-08,-0.968077022214755,-3.728821797194794e-08,5.128277255184632e-08,0.17006749171917826,0,70,255.0,255.0,255.0
112,5.6000000000000005,4.499999993694467,-2.999999991327953,-4.474600610218893,-5.3944411384307456e-08,7.419016327210539e-08,-0.9593608875512999,6.212311840313304e-07,-8.543840184789784e-07,0.17857789481902833,0,70,255.0,255.0,255.0
113,5.65,4.499999992048169,-2.9999999890637863,-4.522341886226641,-6.419867132659171e-09,8.829292572386094e-09,-0.9502192327328522,1.2797505860346088e-06,-1.760050809509803e-06,0.1870882979188784,0,70,255.0,255.0,255.0
114,5.7,4.4999999936012465,-2.999999991199746,-4.569615441489595,7.403064721915297e-08,-1.0181491767887428e-07,-0.9406520577594122,1.9382699880378866e-06,-2.6657176005406277e-06,0.19559870101872845,0,70,255.0,255.0,255.0
115,5.75,4.5,-3.0,-4.6164,1.8740713167112888e-07,-2.5774246748167575e-07,-0.9306593626309796,2.596789390041165e-06,-3.5713843915714517e-06,0.2041091041185794,0,70,255.0,255.0,255.0
116,5.800000000000001,4.5000000115923315,-3.0000000159430225,-4.662676340302169,2.5580590452203427e-07,-3.5181182508887554e-07,-0.920364420471112,1.391615239950123e-07,-1.9138991271648888e-07,0.2076885822761217,0,70,255.0,255.0,255.0
117,5.8500000000000005,4.500000023532567,-3.000000032364521,-4.7084334591486465,2.0132328407063234e-07,-2.768814587533278e-07,-0.9098905044033673,-2.3184663420510964e-06,3.1886045661384138e-06,0.2112680604336639,0,70,255.0,255.0,255.0
118,5.9,4.500000029676636,-3.0000000408145064,-4.7536624078440415,2.3959270316925487e-08,-3.295136847503537e-08,-0.8992376144277455,-4.7760942080972056e-06,6.568599044993317e-06,0.21484753859120612,0,70,255.0,255.0,255.0
119,5.95,4.500000023880471,-3.000000032842995,-4.798354237692956,-2.7628613673908644e-07,3.799784457460014e-07,-0.8884057505442469,-7.2337220741433156e-06,9.948593523848218e-06,0.21842701674874831,0,70,255.0,255.0,255.0
120,6.0,4.5,-3.0,-4.8425,-6.994129370974034e-07,9.61907983909783e-07,-0.8773949127528708,-9.691349940189421e-06,1.3328588002703118e-05,0.22200649490629232,0,70,255.0,255.0,255.0
121,6.050000000000001,4.499999956736829,-2.9999999404998285,-4.886088149317232,-9.54680632552345e-07,1.3129796059352188e-06,-0.8660492959008059,-5.193578780081014e-07,7.142768783141097e-07,0.23181817917629757,0,70,255.0,255.0,255.0
122,6.1000000000000005,4.499999912175263,-2.999999879213965,-4.929096753186522,-7.51348724898222e-07,1.0333356717412055e-06,-0.854213094835241,8.652634184173056e-06,-1.1900034246074675e-05,0.24162986344630266,0,70,255.0,255.0,255.0
123,6.15,4.4999998892452835,-2.9999998476781875,-4.971501282397198,-8.94172141350428e-08,1.2297618132775582e-07,-0.8418863095561758,1.782462624635421e-05,-2.451434537046346e-05,0.2514415477163077,0,70,255.0,255.0,255.0
124,6.2,4.499999910876869,-2.999999877428273,-5.013277207738582,1.0311138997371926e-06,-1.4180988653051314e-06,-0.8290689400636102,2.699661830853537e-05,-3.712865649485224e-05,0.26125323198631284,0,70,255.0,255.0,255.0
125,6.25,4.5,-3.0,-5.0544,2.6102446167184848e-06,-3.589889468157456e-06,-0.8157609863575447,3.616861037071653e-05,-4.974296761924104e-05,0.27106491625631524,0,70,255.0,255.0,255.0
126,6.300000000000001,4.500000161460353,-3.0000002220576625,-5.094849462428907,3.5629166256873463e-06,-4.900106598651999e-06,-0.8022223959256681,1.9382699880374004e-06,-2.66571760053996e-06,0.27047870101874044,0,70,255.0,255.0,255.0
127,6.3500000000000005,4.5000003277663785,-3.0000004507796185,-5.134622728105266,2.804071615522257e-06,-3.8564612282114955e-06,-0.7887131162556704,-3.229207039464112e-05,4.441153241816028e-05,0.2698924857811656,0,70,255.0,255.0,255.0
128,6.4,4.50000041334223,-3.000000568472743,-5.17372126256717,3.337095862232454e-07,-4.5895335683598675e-07,-0.7752331473475516,-6.652241077731964e-05,9.148878243686052e-05,0.2693062705435908,0,70,255.0,255.0,255.0
129,6.45,4.5000003326120535,-3.000000457443912,-5.212146531352718,-3.848169462209684e-06,5.292417015474523e-06,-0.7617824892013115,-0.00010075275115999815,0.00013856603245556077,0.268720055306016,0,70,255.0,255.0,255.0
130,6.5,4.5,-3.0,-5.2499,-9.741565529776536e-06,1.339764988872004e-05,-0.7483611418169502,-0.00013498309154267668,0.00018564328247426098,0.2681338400684403,0,70,255.0,255.0,255.0
131,6.550000000000001,4.499999397421763,-2.999999171269523,-5.286971600967146,-1.3296985870197039e-05,1.8287446788672777e-05,-0.7342771203965205,-7.23372207414149e-06,9.948593523845679e-06,0.2952270167487417,0,70,255.0,255.0,255.0
132,6.6000000000000005,4.499998776759221,-2.999998317667562,-5.323305134392419,-1.0464937737190802e-05,1.439250924110477e-05,-0.7188384401420759,0.00012051564739439143,-0.00016574609542656648,0.3223201934290425,0,70,255.0,255.0,255.0
133,6.65,4.499998457385797,-2.9999978784308396,-5.35883286733412,-1.2454211307579405e-06,1.712837246016189e-06,-0.7020451010536164,0.00024826501686292437,-0.00034144078437697866,0.34941337010934337,0,70,255.0,255.0,255.0
134,6.7,4.499998758674916,-2.9999982927960778,-5.393487066850547,1.4361563949101543e-05,-1.9751569196592977e-05,-0.6838971031311417,0.00037601438633145726,-0.0005171354733273909,0.37650654678964424,0,70,255.0,255.0,255.0
135,6.75,4.5,-3.0,-5.4272,3.635601750238766e-05,-5.000071008672271e-05,-0.664394446374652,0.0005037637557999903,-0.0006928301622778034,0.4035997234699513,0,70,255.0,255.0,255.0
136,6.800000000000001,4.500002248852596,-3.0000038928642465,-5.459900933702513,4.9625026855100805e-05,-0.00011624968055614179,-0.6433571224882452,2.699661830852856e-05,-0.001957128656498922,0.4378932319863114,0,70,255.0,255.0,255.0
137,6.8500000000000005,4.500004565196738,-3.000012678550134,-5.491507134325061,3.905567933324095e-05,-0.0002457135757366148,-0.6206051231760206,-0.0004497705191829247,-0.0032214271507200183,0.47218674050267084,0,70,255.0,255.0,255.0
138,6.9,4.5000057571145815,-3.0000295178038985,-5.521932868096352,4.647974936808515e-06,-0.00043839239562814246,-0.5961384484379781,-0.0009265376566743779,-0.004485725644941114,0.5064802490190303,0,70,255.0,255.0,255.0
139,6.95,4.500004632688284,-3.000057571371775,-5.5510924012450955,-5.359808633419652e-05,-0.0006942861402307247,-0.5699570982741178,-0.0014033047941658312,-0.005750024139162211,0.5407737575353898,0,70,255.0,255.0,255.0
140,7.0,4.5,-3.0001,-5.5789,-0.0001356825044797741,-0.0010133948095443616,-0.5420610726844393,-0.0018800719316572848,-0.007014322633383304,0.5750672660517546,0,70,255.0,255.0,255.0
141,7.050000000000001,4.499990807167853,-3.0001588572734916,-5.605295864222802,-0.00023320312155009575,-0.0013292887245674367,-0.5140063896504946,-0.0020207527511555256,-0.00562143396753952,0.5471200553060143,0,70,255.0,255.0,255.0
142,7.1000000000000005,4.499976562453829,-3.000231768131902,-5.630323928307337,-0.00033775777959532764,-0.0015755382062983179,-0.4873490671538375,-0.002161433570653764,-0.0042285453016957615,0.5191728445602743,0,70,255.0,255.0,255.0
143,7.15,4.499956914155877,-3.000315250353567,-5.654054060280473,-0.00044934647861547136,-0.001752143254737011,-0.4620891051944674,-0.0023021143901520024,-0.0028356566358520028,0.49122563381453455,0,70,255.0,255.0,255.0
144,7.2,4.499931510571951,-3.000405821716821,-5.676556128169073,-0.000567969218610527,-0.0018591038698835172,-0.4382265037723842,-0.002442795209650241,-0.0014427679700082432,0.4632784230687947,0,70,255.0,255.0,255.0
145,7.25,4.4999,-3.0005,-5.6979,-0.0006936259995804946,-0.001896420051737835,-0.4157612628875881,-0.00258347602914848,-4.9879304164472324e-05,0.4353312123230575,0,70,255.0,255.0,255.0
146,7.300000000000001,4.499862522475991,-3.000595078041788,-5.718150009406282,-0.0007968125406512357,-0.0019105954211749185,-0.39436131890977016,-0.001543985613681107,-0.0005171354733188673,0.4206665467896464,0,70,255.0,255.0,255.0
147,7.3500000000000005,4.4998211849879475,-3.0006914489222583,-5.737348352445588,-0.000848024560948607,-0.0019481335990697217,-0.3736946082086232,-0.0005044951982137525,-0.0009843916424732541,0.4060018812562355,0,70,255.0,255.0,255.0
148,7.4,4.499778586261909,-3.000790280781836,-5.755531690781755,-0.0008472620604726107,-0.002009034585422244,-0.3537611307841467,0.0005349952172536022,-0.0014516478116276407,0.3913372157228246,0,70,255.0,255.0,255.0
149,7.45,4.499737325023914,-3.0008927417609415,-5.7727366860786145,-0.0007945250392232469,-0.002093298380232485,-0.33456088663634087,0.0015744856327209568,-0.0019189039807820272,0.37667255018941376,0,70,255.0,255.0,255.0
150,7.5,4.4997,-3.001,-5.789,-0.0006898134972005155,-0.002200924983500446,-0.3160938757652055,0.0026139760481883123,-0.0023861601499364053,0.362007884656006,0,70,255.0,255.0,255.0
151,7.550000000000001,4.499668702928182,-3.0011120305593577,-5.804360098152074,-0.0005635467158497491,-0.002260329590728247,-0.29846833471042067,0.0024366952058422716,9.975860824406723e-06,0.34301375753537594,0,70,255.0,255.0,255.0
152,7.6000000000000005,4.49964349759438,-3.0012240361790634,-5.81886266191031,-0.0004461439766162869,-0.0021999273974180073,-0.2817925000116677,0.002259414363496234,0.0024061118715851754,0.32401963041474624,0,70,255.0,255.0,255.0
153,7.65,4.499623940796485,-3.0013300265190908,-5.832555176592507,-0.00033760527950012654,-0.00201971840356973,-0.2660663716689462,0.0020821335211501967,0.004802247882345945,0.3050255032941166,0,70,255.0,255.0,255.0
154,7.7,4.499609589332395,-3.0014240112394117,-5.845485127516471,-0.00023793062450126794,-0.0017197026091834147,-0.25128994968225615,0.001904852678804159,0.0071983838931067145,0.2860313761734869,0,70,255.0,255.0,255.0
155,7.75,4.4996,-3.0015,-5.8577,-0.00014712001161971137,-0.0012998800142590612,-0.23746323405159758,0.0017275718364581204,0.00959451990386749,0.2670372490528572,0,70,255.0,255.0,255.0
156,7.800000000000001,4.499594665811278,-3.0015535997207805,-5.869245597985424,-6.900059594931078e-05,-0.000856086215912494,-0.2244853422485557,0.0013972047903578581,0.008157232029994944,0.25207842306880973,0,70,255.0,255.0,255.0
157,7.8500000000000005,4.499592824634534,-3.001586806361486,-5.880160999913175,-7.3995325839245206e-06,-0.00048415681125956107,-0.21225539174471647,0.0010668377442576015,0.0067199441561224225,0.23711959708476257,0,70,255.0,255.0,255.0
158,7.9,4.499593650552148,-3.0016032131418013,-5.890483602848216,3.7683178476448964e-05,-0.00018409180030025396,-0.20077338254007954,0.000736470698157345,0.005282656282249902,0.2221607711007154,0,70,255.0,255.0,255.0
159,7.95,4.49959631764651,-3.0016064132814106,-5.900250803855504,6.624753723180973e-05,4.4108816965427225e-05,-0.190039314634645,0.00040610365205708833,0.0038453684083773814,0.20720194511666823,0,70,255.0,255.0,255.0
160,8.0,4.4996,-3.0016,-5.9095,7.829354368215768e-05,0.0002004450405374828,-0.1800531880284128,7.573660595683231e-05,0.0024080805345048613,0.19224311913262015,0,70,255.0,255.0,255.0
161,8.05,4.499604633826703,-3.0015863705575194,-5.918270309906232,0.00011954909964867713,0.00035667445438064717,-0.17091829629536104,0.0015744856327039227,0.0038410960192216247,0.17315255018944561,0,70,255.0,255.0,255.0
162,8.1,4.499613203867487,-3.001563138374991,-5.9266077384369895,0.00023574210695254675,0.0005845546424596414,-0.16273793300946826,0.0030732346594509598,0.005274111503938337,0.15406198124627174,0,70,255.0,255.0,255.0
163,8.15,4.499629456994921,-3.001526720913703,-5.9345600120146305,0.0004268725655937747,0.0008840856047744815,-0.15551209817073394,0.00457198368619805,0.0067071269886550995,0.13497141230309723,0,70,255.0,255.0,255.0
164,8.200000000000001,4.4996571400815695,-3.0014735356349433,-5.942174857061516,0.0006929404755723583,0.0012552673413251609,-0.14924079177915833,0.00607073271294514,0.008140142473371862,0.11588084335992267,0,70,255.0,255.0,255.0
165,8.25,4.4997,-3.0014,-5.9495,0.001033945836888284,0.0016980998521116625,-0.14392401383474168,0.007569481739692182,0.009573157958088578,0.09679027441674881,0,70,255.0,255.0,255.0
166,8.3,4.499760398881911,-3.0013025180491404,-5.956581962389651,0.0013668041973508994,0.0022133883983913288,-0.13948947256998653,0.005744852678812237,0.01103838389309778,0.0805913761734541,0,70,255.0,255.0,255.0
167,8.35,4.499835159895517,-3.0011774401385485,-5.963462446338868,0.001608431104769509,0.0028019382414214344,-0.13586487621739626,0.0039202236179323585,0.01250360982810693,0.06439247793015997,0,70,255.0,255.0,255.0
168,8.4,4.49991972146817,-3.0010211032033856,-5.97018194909326,0.0017588265591441307,0.00346374938120202,-0.1330502247769706,0.002095594557052414,0.013968835763116133,0.04819357968686526,0,70,255.0,255.0,255.0
169,8.450000000000001,4.500009522027215,-3.0008298441788153,-5.976780967898434,0.0018179905604747532,0.004198821817733067,-0.1310455182487097,0.00027096549617247005,0.015434061698125336,0.03199468144357055,0,70,255.0,255.0,255.0
170,8.5,4.5001,-3.0006,-5.9833,0.0017859231087613806,0.005007155551014546,-0.12985075663261356,-0.001553663564707413,0.016899287633134502,0.015795783200276636,0,70,255.0,255.0,255.0
171,8.55,4.500188170645656,-3.0003291572459183,-5.989780240535165,0.001757234110945549,0.005813771952052536,-0.12950781342469053,0.0004061036520741682,0.015365368408384627,-0.0020780548833559606,0,70,255.0,255.0,255.0
172,8.6,4.500277356550441,-3.000019901070815,-5.996265676207539,0.0018265334739687937,0.006543692391853005,-0.1300585621209491,0.00236587086885568,0.013831449183634808,-0.01995189296698792,0,70,255.0,255.0,255.0
173,8.65,4.5003724571324,-2.9996760662727535,-6.00280099161233,0.0019938211978311198,0.007196916870416009,-0.13150300272138937,0.004325638085637262,0.012297529958884935,-0.03782573105062052,0,70,255.0,255.0,255.0
174,8.700000000000001,4.500478371809573,-2.9993014876497943,-6.0094308713447475,0.002259097282532526,0.007773445387741517,-0.13384113522601124,0.0062854053024188426,0.01076361073413506,-0.05569956913425311,0,70,255.0,255.0,255.0
175,8.75,4.5006,-2.9989,-6.0162,0.0026223617280729983,0.008273277943829514,-0.13707295963481458,0.008245172519200327,0.009229691509385213,-0.07357340721788486,0,70,255.0,255.0,255.0
176,8.8,4.500741318535467,-2.9984736529671867,-6.023152275469689,0.0030282593588761013,0.008803523793398438,-0.1411512737312628,0.00799073271292357,0.011980142473371435,-0.08955915664004183,0,70,255.0,255.0,255.0
177,8.85,4.500902613902716,-2.99801735557819,-6.0303284488309785,0.0034214349993653527,0.009471292191166648,-0.1460288752988187,0.00773629290664682,0.01473059343735756,-0.10554490606219821,0,70,255.0,255.0,255.0
178,8.9,4.501083250002232,-2.9975242317056,-6.037768484457423,0.0038018886495407803,0.010276583137134193,-0.15170576433748262,0.007481853100370062,0.017481044401343786,-0.12153065548435518,0,70,255.0,255.0,255.0
179,8.950000000000001,4.5012825907344975,-2.996987405222007,-6.045512346722578,0.00416962030940237,0.011219396631301053,-0.1581819408472544,0.007227413294093304,0.020231495365330008,-0.13751640490651212,0,70,255.0,255.0,255.0
180,9.0,4.5015,-2.9964,-6.0536,0.004524629978950108,0.012299732673667182,-0.16545740482813376,0.0069729734878165375,0.022981946329316105,-0.1535021543286681,0,70,255.0,255.0,255.0
181,9.05,4.501734555212477,-2.9957570308853345,-6.062072257586079,0.004849728453549504,0.01340413287435311,-0.17358309165026095,0.0060309654961590705,0.021194061698120385,-0.1715253185564154,0,70,255.0,255.0,255.0
182,9.1,4.501984187838696,-2.995061076616424,-6.07097332846855,0.005127726528566015,0.014419138843479217,-0.1826099366837752,0.0050889575045016365,0.019406177066924726,-0.18954848278416203,0,70,255.0,255.0,255.0
183,9.15,4.502246542858675,-2.994316606904846,-6.08034827055798,0.005358624203999663,0.015344750581045572,-0.19253793992867715,0.00414694951284417,0.017618292435729002,-0.20757164701190933,0,70,255.0,255.0,255.0
184,9.200000000000001,4.5025192652524355,-2.9935280914621787,-6.090242141764941,0.005542421479850438,0.01618096808705214,-0.20336710138496644,0.003204941521186703,0.01583040780453328,-0.22559481123965663,0,70,255.0,255.0,255.0
185,9.25,4.5028,-2.9927,-6.1007,0.005679118356118334,0.016927791361498898,-0.21509742105264268,0.0022629335295292555,0.014042523173337651,-0.2436179754674037,0,70,255.0,255.0,255.0
186,9.3,4.503087660614623,-2.991835823491475,-6.1117578941859945,0.005844826826918002,0.01764394470918593,-0.22718835966768502,0.004365405302457399,0.01460361073414321,-0.2400195691342836,0,70,255.0,255.0,255.0
187,9.35,4.503386234742502,-2.990935137956114,-6.123415837294824,0.0061156588863640685,0.018388152434913214,-0.23909937796607095,0.006467877075385467,0.015164698294948748,-0.2364211628011636,0,70,255.0,255.0,255.0
188,9.4,4.503700978563069,-2.989996540675016,-6.135664833310657,0.006491614534456551,0.019160414538680802,-0.2508304759478013,0.00857034884831361,0.015725785855754307,-0.23282275646804346,0,70,255.0,255.0,255.0
189,9.450000000000001,4.504037148255758,-2.9890186289292786,-6.148495886217661,0.006972693771195441,0.019960731020488665,-0.26238165361287563,0.010672820621241754,0.016286873416559867,-0.22922435013492334,0,70,255.0,255.0,255.0
190,9.5,4.5044,-2.988,-6.1619,0.007558896596580719,0.020789101880336777,-0.27375291096129356,0.01277529239416985,0.016847960977365267,-0.22562594380180334,0,70,255.0,255.0,255.0
191,9.55,4.50479320232903,-2.9869396751487667,-6.175868965669944,0.008154964238786656,0.021620088288904177,-0.2849914696790017,0.011067413294067288,0.01639149536533031,-0.2239164049065148,0,70,255.0,255.0,255.0
192,9.600000000000001,4.505214073191295,-2.9858383715591192,-6.190397722352155,0.008665637925987464,0.02242825141686983,-0.29614455145194535,0.009359534193964725,0.015935029753295353,-0.22220686601122622,0,70,255.0,255.0,255.0
193,9.65,4.505658342889045,-2.98469723039509,-6.205481996199393,0.009090917658183126,0.02321359126423371,-0.3072121562801242,0.007651655093862223,0.015478564141260412,-0.22049732711593772,0,70,255.0,255.0,255.0
194,9.700000000000001,4.506121741724531,-2.9835173928207066,-6.221117513364422,0.009430803435373681,0.023976107830995866,-0.31819428416353907,0.00594377599375966,0.015022098529225454,-0.21878778822064918,0,70,255.0,255.0,255.0
195,9.75,4.5066,-2.9823,-6.2373,0.009685295257559096,0.02471580111715625,-0.32909093510218906,0.004235896893657165,0.014565632917190513,-0.21707824932536068,0,70,255.0,255.0,255.0
196,9.8,4.507089930069255,-2.9810462759134593,-6.2540262431342315,0.009919316217930085,0.025427702135199255,-0.3399657616163138,0.0051249415211822484,0.013910407804529297,-0.21791481123962317,0,70,255.0,255.0,255.0
197,9.850000000000001,4.507592672492316,-2.9797577758074074,-6.27129727329656,0.010197789409677327,0.0261068418976092,-0.3508824162261517,0.006013986148707332,0.013255182691868081,-0.21875137315388565,0,70,255.0,255.0,255.0
198,9.9,4.508110449880746,-2.9784361377446253,-6.289115181891774,0.010520714832800813,0.02675322040438606,-0.3618408989317023,0.006903030776232383,0.01259995757920689,-0.21958793506814808,0,70,255.0,255.0,255.0
199,9.950000000000001,4.508645484846118,-2.977082999787896,-6.30748206032466,0.010888092487300565,0.027366837655529882,-0.3728412097329664,0.007792075403757467,0.011944732466545673,-0.22042449698241057,0,70,255.0,255.0,255.0
200,10.0,4.5092,-2.9757,-6.3264,0.011299922373176556,0.02794769365104062,-0.3838833486299433,0.008681120031282519,0.011289507353884454,-0.2212610588966739,0,70,255.0,255.0,255.0
201,10.05,4.509775877393943,-2.9742880211973963,-6.345870061793135,0.011735770889490207,0.02854110317030153,-0.39490548385573393,0.008752820621263247,0.012446873416551702,-0.21962435013494613,0,70,255.0,255.0,255.0
202,10.100000000000001,4.510373636839441,-2.9728449252112505,-6.365889184461604,0.012175204435302893,0.029192380992695808,-0.40584578364343815,0.008824521211243976,0.013604239479218948,-0.21798764137321833,0,70,255.0,255.0,255.0
203,10.15,4.510993457587965,-2.9713678186264074,-6.3864532762335084,0.0126182230106146,0.02990152711822342,-0.4167042479930557,0.008896221801224702,0.014761605541886155,-0.2163509326114906,0,70,255.0,255.0,255.0
204,10.200000000000001,4.511635518890993,-2.9698538080277093,-6.407558245336943,0.01306482661542536,0.03066854154688442,-0.4274808769045872,0.00896792239120543,0.015918971604553404,-0.2147142238497628,0,70,255.0,255.0,255.0
205,10.25,4.5123,-2.9683,-6.4292,0.013515015249735142,0.03149342427867875,-0.4381756703780319,0.009039622981186143,0.017076337667220498,-0.21307751508803507,0,70,255.0,255.0,255.0
206,10.3,4.512986560354969,-2.9667040392969564,-6.451375109693234,0.013937600224108683,0.032343885183590014,-0.4488283029607495,0.007863775993755198,0.016942098529229475,-0.21302778822066246,0,70,255.0,255.0,255.0
207,10.350000000000001,4.5136927801499205,-2.9650657233475894,-6.474082788857019,0.014301392849110672,0.03318763413160172,-0.45947844920009845,0.006687929006324252,0.016807859391238453,-0.21297806135328984,0,70,255.0,255.0,255.0
208,10.4,4.51441571976739,-2.9633853877497445,-6.497322913174187,0.014606393124741107,0.03402467112271385,-0.4701261090960784,0.005512082018893349,0.016673620253247434,-0.21292833448591725,0,70,255.0,255.0,255.0
209,10.450000000000001,4.515152439589905,-2.9616633681012665,-6.521095358327572,0.014852601051000003,0.03485499615692646,-0.4807712826486901,0.004336235031462405,0.01653938111525641,-0.21287860761854463,0,70,255.0,255.0,255.0
210,10.5,4.5159,-2.9599,-6.5454,0.01504001662788735,0.03567860923423949,-0.4914139698579328,0.003160388044031459,0.016405141977265503,-0.21282888075117112,0,70,255.0,255.0,255.0
211,10.55,4.516656281186183,-2.958095821614779,-6.570235899433932,0.015217828214081871,0.03648335609533519,-0.5020053043012721,0.003952075403749334,0.015784732466562347,-0.2108244969823988,0,70,255.0,255.0,255.0
212,10.600000000000001,4.517422442560875,-2.9562521813983924,-6.595598860110321,0.015435224168262289,0.037257082480895744,-0.512496419556173,0.004743762763467208,0.015164322955859193,-0.20882011321362648,0,70,255.0,255.0,255.0
213,10.65,4.518200463342475,-2.9543706303746156,-6.621483871069742,0.01569220449042859,0.03799978839092111,-0.5228873156226347,0.005535450123185054,0.01454391344515606,-0.2068157294448542,0,70,255.0,255.0,255.0
214,10.700000000000001,4.518992322749384,-2.9524527195672254,-6.647885921352777,0.015988769180580793,0.03871147382541135,-0.5331779925006583,0.006327137482902928,0.013923503934452906,-0.2048113456760819,0,70,255.0,255.0,255.0
215,10.75,4.5198,-2.9505,-6.6748,0.016324918238718875,0.0393921387843664,-0.5433684501902428,0.007118824842620691,0.013303094423749773,-0.2028069619073074,0,70,255.0,255.0,255.0
216,10.8,4.520625114900301,-2.9485134742439265,-6.70222209257104,0.01667908691956422,0.040074690435073675,-0.5535184798341696,0.0070479223911928445,0.013998971604540743,-0.20319422384975513,0,70,255.0,255.0,255.0
217,10.850000000000001,4.521467849606581,-2.946491951058842,-6.730152170701703,0.01702971047783817,0.0407920359448205,-0.5636878725752186,0.006977019939764998,0.014694848785331713,-0.2035814857922029,0,70,255.0,255.0,255.0
218,10.9,4.522328026862708,-2.944433690751794,-6.758591202546847,0.017376788913540716,0.04154417531360684,-0.5738766284133897,0.006906117488337154,0.015390725966122659,-0.20396874773465062,0,70,255.0,255.0,255.0
219,10.950000000000001,4.523205469412558,-2.9423369536298303,-6.787540156261328,0.017720322226671883,0.04233110854143276,-0.5840847473486837,0.006835215036909308,0.01608660314691363,-0.20435600967709835,0,70,255.0,255.0,255.0
220,11.0,4.5241,-2.9402,-6.817,0.018060310417231645,0.04315283562829819,-0.5943122293810995,0.006764312585481519,0.016782480327704574,-0.20474327161954609,0,70,255.0,255.0,255.0
221,11.05,4.525011259212612,-2.9380214814095136,-6.846970930281913,0.01838582410765599,0.04398588216437202,-0.6045127763620517,0.006256235031492084,0.016539381115247928,-0.20327860761853295,0,70,255.0,255.0,255.0
222,11.100000000000001,4.525938159012804,-2.9358016143662398,-6.877450057082872,0.01868593392038086,0.04480677373982301,-0.6146400901429531,0.005748157477502649,0.016296281902791282,-0.20181394361751984,0,70,255.0,255.0,255.0
223,11.15,4.52687942920669,-2.9335410066182086,-6.908433718742874,0.018960639855406254,0.04561551035465114,-0.6246941707238035,0.005240079923513232,0.016053182690334643,-0.20034927961650675,0,70,255.0,255.0,255.0
224,11.200000000000001,4.527833799600383,-2.9312402659134515,-6.939918253601918,0.019209941912732183,0.046412092008856466,-0.6346750181046037,0.004732002369523797,0.015810083477877997,-0.19888461561549364,0,70,255.0,255.0,255.0
225,11.25,4.5288,-2.9289,-6.9719,0.019433840092358635,0.04719651870243894,-0.6445826322853528,0.004223924815534297,0.015566984265421191,-0.19741995161447878,0,70,255.0,255.0,255.0
226,11.3,4.529777048249248,-2.9265206001180175,-7.004375786301312,0.019649616649819252,0.04798178090743612,-0.6544464147176174,0.0044071374828902245,0.015843503934465403,-0.19713134567609794,0,70,255.0,255.0,255.0
227,11.350000000000001,4.530765114342206,-2.9241015914761985,-7.037344400966814,0.019874553840647666,0.048780869095885505,-0.6642957668529629,0.004590350150246152,0.01612002360350961,-0.19684273973771713,0,70,255.0,255.0,255.0
228,11.4,4.5317646563105365,-2.9216422827753714,-7.0708051224816595,0.020108651664843862,0.049593783267787066,-0.674130688691389,0.004773562817602074,0.016396543272553812,-0.1965541337993363,0,70,255.0,255.0,255.0
229,11.450000000000001,4.532776132185912,-2.9191419827163627,-7.104757229331003,0.02035191012240787,0.05042052342314088,-0.6839511802328965,0.004956775484958002,0.01667306294159802,-0.19626552786095547,0,70,255.0,255.0,255.0
230,11.5,4.5338,-2.9166,-7.1392,0.02060432921333966,0.05126108956194687,-0.6937572414774845,0.00513998815231384,0.016949582610642222,-0.19597692192257465,0,70,255.0,255.0,255.0
231,11.55,4.534836547790393,-2.9140161181184157,-7.174132324512842,0.020855709293069926,0.05208699420588556,-0.7035255647674766,0.00491521503689675,0.016086603146905108,-0.19475600967710402,0,70,255.0,255.0,255.0
232,11.600000000000001,4.5358853836183775,-2.9113920197289644,-7.209551539049878,0.02109585071702934,0.052869749876637395,-0.7132328424451951,0.004690441921479659,0.015223623683167995,-0.19353509743163336,0,70,255.0,255.0,255.0
233,11.65,4.5369459455511665,-2.908729862280305,-7.24545459133049,0.021324753485217895,0.053609356574202356,-0.7228790745106399,0.004465668806062577,0.014360644219430911,-0.19231418518616275,0,70,255.0,255.0,255.0
234,11.700000000000001,4.53801767165597,-2.906031803221097,-7.28183842907407,0.0215424175976356,0.05430581429858049,-0.7324642609638113,0.004240895690645486,0.013497664755693799,-0.19109327294069212,0,70,255.0,255.0,255.0
235,11.75,4.5391,-2.9033,-7.3187,0.02174884305428244,0.05495912304977174,-0.7419884018047092,0.004016122575228348,0.012634685291956771,-0.1898723606952224,0,70,255.0,255.0,255.0
236,11.8,4.540192760589182,-2.9005357274083194,-7.356036515647321,0.021967546177901247,0.05562224226901773,-0.7514673262124772,0.004732002369523796,0.01389008347788245,-0.1892846156154981,0,70,255.0,255.0,255.0
237,11.850000000000001,4.541297351184286,-2.8977367296079435,-7.393846242833682,0.022222043291234825,0.05634813139756001,-0.7609168633662592,0.005447882163819244,0.015145481663808127,-0.18869687053577378,0,70,255.0,255.0,255.0
238,11.9,4.5424155614848,-2.8948998681034084,-7.432127712196381,0.02251233439428317,0.057136790435398536,-0.7703370132660546,0.006163761958114666,0.01640087984973376,-0.1881091254560495,0,70,255.0,255.0,255.0
239,11.950000000000001,4.543549181190209,-2.892022004399249,-7.470879454372721,0.02283841948704629,0.05798821938253338,-0.7797277759118642,0.006879641752410114,0.017656278035659438,-0.18752138037632518,0,70,255.0,255.0,255.0
240,12.0,4.5447,-2.8891,-7.5101,0.023200298569524175,0.05890241823896448,-0.7890891513036872,0.00759552154670548,0.018911676221585016,-0.18693363529660356,0,70,255.0,255.0,255.0
241,12.05,4.545869209852883,-2.886132172248308,-7.549788012897875,0.02356210599531608,0.05979203671804428,-0.7984291303826256,0.0068767754849705055,0.016673062941606445,-0.18666552786092705,0,70,255.0,255.0,255.0
242,12.100000000000001,4.547055611644479,-2.8831226618392622,-7.589942689615401,0.023887976118021233,0.06056972453312514,-0.8077557040897801,0.00615802942323553,0.014434449661627873,-0.18639742042525054,0,70,255.0,255.0,255.0
243,12.15,4.548257408509635,-2.880077065306062,-7.630563359883989,0.024177908937639634,0.06123548168420706,-0.8170688724251505,0.005439283361500581,0.012195836381649379,-0.18612931298957403,0,70,255.0,255.0,255.0
244,12.200000000000001,4.549472803583193,-2.8770009791819082,-7.671649353435052,0.02443190445417129,0.06178930817129008,-0.8263686353887375,0.004720537299765605,0.009957223101670805,-0.1858612055538975,0,70,255.0,255.0,255.0
245,12.25,4.5507,-2.8739,-7.7132,0.024649962667616192,0.06223120399437414,-0.8356549929805404,0.0040017912380306,0.007718609821692035,-0.1855930981182201,0,70,255.0,255.0,255.0
246,12.3,4.551937599999284,-2.8707779835984484,-7.755213832761184,0.024856029840833523,0.06266561085880838,-0.8448801522570137,0.004240895690662514,0.009657664755677203,-0.18341327294070947,0,70,255.0,255.0,255.0
247,12.350000000000001,4.553185802237794,-2.8676318230350075,-7.797686198704722,0.02507405223668245,0.06319697046994188,-0.8539963202746116,0.004480000143294428,0.01159671968966237,-0.18123344776319883,0,70,255.0,255.0,255.0
248,12.4,4.554445204476663,-2.864456670672342,-7.840611648267664,0.025304029855162963,0.0638252828277746,-0.8630034970333336,0.004719104595926334,0.013535774623647471,-0.17905362258568827,0,70,255.0,255.0,255.0
249,12.450000000000001,4.555716404477021,-2.8612476788731183,-7.8839847318870735,0.02554596269627508,0.06455054793230662,-0.8719016825331803,0.0049582090485582484,0.015474829557632637,-0.17687379740817763,0,70,255.0,255.0,255.0
250,12.5,4.557,-2.858,-7.9278,0.025799850760018787,0.06537276578353786,-0.8806908767741513,0.005197313501190098,0.017413884491617515,-0.17469397223066885,0,70,255.0,255.0,255.0
251,12.55,4.558296390149983,-2.8547102933578987,-7.972053456057392,0.026053774641358055,0.0662015198467199,-0.8894582605893261,0.00495964175238043,0.01573627803566384,-0.17600138037632043,0,70,255.0,255.0,255.0
252,12.600000000000001,4.559605179404346,-2.851381246020708,-8.01674691556572,0.026295814935256834,0.06694639358710426,-0.8982910148117836,0.004721970003570762,0.014058671579710165,-0.17730878852197204,0,70,255.0,255.0,255.0
253,12.65,4.560925773583718,-2.8480170520045682,-8.061883647045356,0.026525971641715128,0.06760738700469092,-0.9071891394415232,0.004484298254761102,0.01238106512375655,-0.1786161966676236,0,70,255.0,255.0,255.0
254,12.700000000000001,4.562257578508726,-2.844621905325619,-8.107466919016664,0.026744244760732946,0.0681845000994799,-0.9161526344785458,0.004246626505951434,0.010703458667802876,-0.17992360481327518,0,70,255.0,255.0,255.0
255,12.75,4.5636,-2.8412,-8.1535,0.026950634292310267,0.06867773287147122,-0.9251814999228508,0.004008954757141858,0.009025852211849372,-0.18123101295892585,0,70,255.0,255.0,255.0
256,12.8,4.564952839400789,-2.837754442969958,-8.199984343009257,0.027168871593732956,0.06915230975430944,-0.9341668053856715,0.004720537299765669,0.00995722310167927,-0.17818120555389724,0,70,255.0,255.0,255.0
257,12.850000000000001,4.566317480144826,-2.8342839928821606,-8.246914139032398,0.027422688022286843,0.06967345518163917,-0.9429996204782408,0.00543211984238948,0.01088859399150917,-0.17513139814886863,0,70,255.0,255.0,255.0
258,12.9,4.56769570118847,-2.8307863213093856,-8.294281763550908,0.0277120835779719,0.07024116915346036,-0.9516799452005583,0.006143702385013266,0.011819964881339035,-0.17208159074384016,0,70,255.0,255.0,255.0
259,12.950000000000001,4.569089281488075,-2.8272590998244067,-8.342079592046282,0.02803705826078817,0.07085545166977307,-0.9602077795526247,0.006855284927637077,0.012751335771168935,-0.16903178333881155,0,70,255.0,255.0,255.0
260,13.0,4.5705,-2.8237,-8.3903,0.02839761207073561,0.07151630273057723,-0.9685831235344395,0.00756686747026078,0.013682706660998467,-0.16598197593378394,0,70,255.0,255.0,255.0
261,13.05,4.571929052246866,-2.8201071347622713,-8.438937171905588,0.028758738983706403,0.07219724113604291,-0.9769145178679897,0.006878209048570723,0.013554829557628366,-0.16727379740821782,0,70,255.0,255.0,255.0
262,13.100000000000001,4.573375300016352,-2.8164803824506484,-8.487992528304696,0.029085432975592695,0.07287178568634008,-0.9853105032752616,0.006189550626880666,0.013426952454258264,-0.16856561888265173,0,70,255.0,255.0,255.0
263,13.15,4.574837021662407,-2.81282006275789,-8.537469298751008,0.029377694046394467,0.07353993638146873,-0.9937710797562548,0.005500892205190634,0.013299075350888166,-0.16985744035708558,0,70,255.0,255.0,255.0
264,13.200000000000001,4.576312495538974,-2.8091264953767547,-8.587370712798217,0.029635522196111753,0.07420169322142889,-1.00229624731097,0.004812233783500576,0.013171198247518065,-0.17114926183151946,0,70,255.0,255.0,255.0
265,13.25,4.5778,-2.8054,-8.6377,0.029858917424744526,0.07485705620622052,-1.0108860059394067,0.004123575361810655,0.013043321144147413,-0.1724410833059533,0,70,255.0,255.0,255.0
266,13.3,4.5792981516117495,-2.801641017980957,-8.6884589693684,0.030068172471438587,0.07549872570151916,-1.0194551231423858,0.004246626505951519,0.012623458667798454,-0.17032360481321224,0,70,255.0,255.0,255.0
267,13.350000000000001,4.580806919789764,-2.797850477315245,-8.73964374774883,0.030283580075339683,0.07611940207300039,-1.0279183664207283,0.004369677650092383,0.012203596191449494,-0.16820612632047116,0,70,255.0,255.0,255.0
268,13.4,4.5823266121619035,-2.7940294276590545,-8.791249041445061,0.03050514023644782,0.07671908532066413,-1.036275735774433,0.004492728794233242,0.01178373371510055,-0.16608864782773017,0,70,255.0,255.0,255.0
269,13.450000000000001,4.583857536356028,-2.7901789186685755,-8.843269556760863,0.030732852954763006,0.07729777544451043,-1.0445272312035012,0.004615779938374106,0.01136387123875159,-0.1639711693349891,0,70,255.0,255.0,255.0
270,13.5,4.5854,-2.7863,-8.8957,0.030966718230285233,0.07785547244453926,-1.0526728527079316,0.004738831082514994,0.010944008762402535,-0.16185369084224632,0,70,255.0,255.0,255.0
271,13.55,4.586954341306136,-2.7823935933138997,-8.948535750620824,0.03120857113053915,0.07839985605787866,-1.0607529895624588,0.004935284927641495,0.01083133577117332,-0.16135178333883074,0,70,255.0,255.0,255.0
272,13.600000000000001,4.588521020824592,-2.7784601082883715,-9.001774880699996,0.03146024672304939,0.07893860602165662,-1.0688080310418149,0.0051317387727679966,0.010718662779944108,-0.16084987583541518,0,70,255.0,255.0,255.0
273,13.65,4.590100529689979,-2.774499826605893,-9.055416135468752,0.031721745007815945,0.07947172233587306,-1.0768379771460002,0.005328192617894491,0.010605989788714897,-0.16034796833199963,0,70,255.0,255.0,255.0
274,13.700000000000001,4.591693359036911,-2.770513029948944,-9.109458260158341,0.03199306598483884,0.0799992050005281,-1.0848428278750148,0.0055246464630209925,0.010493316797485682,-0.15984606082858405,0,70,255.0,255.0,255.0
275,13.75,4.5933,-2.7665,-9.1639,0.03227420965411804,0.08052105401562164,-1.0928225832288587,0.0057211003081475975,0.010380643806256029,-0.15934415332517737,0,70,255.0,255.0,255.0
276,13.8,4.5949204831637065,-2.762460608763444,-9.21874042814831,0.03253754300640883,0.0810618500669661,-1.1007969186077768,0.004812233783483609,0.011251198247522111,-0.15962926183154913,0,70,255.0,255.0,255.0
277,13.850000000000001,4.59655299691187,-2.7583930895312694,-9.273979929451201,0.03275543303246641,0.08164617384037387,-1.108785509412014,0.00390336725881962,0.012121752688788193,-0.15991437033792089,0,70,255.0,255.0,255.0
278,13.9,4.598195269078182,-2.754295265917372,-9.329619216679934,0.032927879732290784,0.08227402533584491,-1.1167883556415692,0.002994500734155663,0.012992307130054243,-0.16019947884429264,0,70,255.0,255.0,255.0
279,13.950000000000001,4.599845027496329,-2.75016496153565,-9.38565900260578,0.03305488310588197,0.08294540455337929,-1.124805457296443,0.0020856342094916743,0.013862861571320325,-0.1604845873506644,0,70,255.0,255.0,255.0
280,14.0,4.6015,-2.746,-9.4421,0.033136443153239964,0.08366031149297692,-1.1328368143766354,0.001176767684827773,0.014733416012586042,-0.1607696958570326,0,70,255.0,255.0,255.0
281,14.05,4.603158926039039,-2.7417991716323247,-9.498941736785936,0.03323325684382012,0.08436074367426026,-1.1408113360064356,0.0026957799383785946,0.013283871238747014,-0.15821116933496346,0,70,255.0,255.0,255.0
282,14.100000000000001,4.604824591527927,-2.737565133586552,-9.55617900149521,0.03340602114707783,0.08498869861685165,-1.148657931310132,0.004214792191929416,0.011834326464907988,-0.1556526428128943,0,70,255.0,255.0,255.0
283,14.15,4.606500793997292,-2.7333015097246176,-9.613805397811515,0.033654736063013065,0.08554417632075105,-1.1563766002877247,0.0057338044454801835,0.010384781691069014,-0.15309411629082523,0,70,255.0,255.0,255.0
284,14.200000000000001,4.608191330977772,-2.7290119239084554,-9.67181452941855,0.033979401591625845,0.08602717678595855,-1.1639673429392146,0.007252816699031005,0.008935236917229986,-0.15053558976875608,0,70,255.0,255.0,255.0
285,14.25,4.6099,-2.7247,-9.7302,0.034380017732916164,0.08643770001247406,-1.1714301592646004,0.008771828952581495,0.0074856921433907875,-0.14797706324668347,0,70,255.0,255.0,255.0
286,14.3,4.6116294126801325,-2.7203683047072578,-9.78895662470795,0.034785429618306545,0.08683917523599587,-1.1788377373664822,0.007444646463033436,0.00857331679748145,-0.1483260608285807,0,70,255.0,255.0,255.0
287,14.350000000000001,4.613377436976423,-2.716015176122522,-9.848084064567969,0.03512448237921952,0.08729503169222222,-1.1862627653474587,0.0061174639734853774,0.009660941451572112,-0.14867505841047796,0,70,255.0,255.0,255.0
288,14.4,4.615140754932646,-2.711637895184157,-9.90758319207401,0.03539717601565508,0.08780526938115307,-1.19370524320753,0.004790281483937366,0.010748566105662735,-0.14902405599237517,0,70,255.0,255.0,255.0
289,14.450000000000001,4.61691604859258,-2.707233742830528,-9.967454879720039,0.03560351052761325,0.0883698883027885,-1.2011651709466962,0.0034630989943893074,0.011836190759753396,-0.1493730535742724,0,70,255.0,255.0,255.0
290,14.5,4.6187,-2.7028,-10.0277,0.035743485915094006,0.0889888884571284,-1.208642548564957,0.00213591650484124,0.012923815413843576,-0.1497220511561661,0,70,255.0,255.0,255.0
291,14.55,4.620489823240429,-2.698334809538644,-10.088318964382275,0.035849024682952334,0.0896105553817574,-1.2161097145276285,0.002085634209491815,0.011942861571315907,-0.1489645873506891,0,70,255.0,255.0,255.0
292,14.600000000000001,4.622284860566382,-2.6938397619233596,-10.149310340232928,0.035952049336043186,0.09018317461426001,-1.2235390073000263,0.00203535191414239,0.01096190772878824,-0.1482071235452121,0,70,255.0,255.0,255.0
293,14.65,4.624084986272121,-2.6893173095387533,-10.210672233892438,0.03605255987436657,0.09070674615463623,-1.2309304268821497,0.001985069618792967,0.009980953886260606,-0.14744965973973514,0,70,255.0,255.0,255.0
294,14.700000000000001,4.625890074651905,-2.684769904769431,-10.272402751701302,0.036150556297922486,0.09118127000288606,-1.2382839732739996,0.001934787323443542,0.009000000043732938,-0.14669219593425814,0,70,255.0,255.0,255.0
295,14.75,4.6277,-2.6802,-10.3345,0.03624603860671093,0.0916067461590095,-1.2455996464755754,0.0018845050280943965,0.00801904620120475,-0.14593473212878116,0,70,255.0,255.0,255.0
296,14.8,4.62951529435815,-2.6756092571381664,-10.396961917762958,0.03637847164988887,0.09203060323697058,-1.2528674045230135,0.003412816699022902,0.0089352369172384,-0.14477558976873472,0,70,255.0,255.0,255.0
297,14.850000000000001,4.631339120758048,-2.6709961761840395,-10.459785774500336,0.036587320276613225,0.09250026985073335,-1.2600772054524492,0.0049411283699514075,0.00985142763327205,-0.14361644740868829,0,70,255.0,255.0,255.0
298,14.9,4.633175299978871,-2.66635846666083,-10.522968672356235,0.036872584486884005,0.09301574600029779,-1.2672290492638822,0.006469440040879859,0.010767618349305669,-0.1424573050486419,0,70,255.0,255.0,255.0
299,14.950000000000001,4.635027652799796,-2.6616938380917468,-10.586507713474758,0.037234264280701215,0.09357703168566392,-1.2743229359573132,0.007997751711808365,0.01168380906533932,-0.14129816268859546,0,70,255.0,255.0,255.0
300,15.0,4.6369,-2.657,-10.6504,0.037672359658064834,0.09418412690683171,-1.2813588655327415,0.009526063382736816,0.012599999781372495,-0.1401390203285473,0,70,255.0,255.0,255.0
301,15.05,4.63879459932697,-2.6522753619086905,-10.7146429645659,0.038093088717492764,0.09479503167035987,-1.2883566673803117,0.007303098994380243,0.011836190759753118,-0.13977305357425962,0,70,255.0,255.0,255.0
302,15.100000000000001,4.640707456401426,-2.647521133340482,-10.779235361765735,0.03840266955750287,0.09536774598280703,-1.2953361708901676,0.0050801346060236705,0.01107238173813374,-0.13940708681997194,0,70,255.0,255.0,255.0
303,15.15,4.642633013812397,-2.642739223817928,-10.844176276682623,0.03860110217809514,0.09590226984417323,-1.3022973760623089,0.0028571702176671777,0.010308572716514391,-0.13904112006568425,0,70,255.0,255.0,255.0
304,15.200000000000001,4.644565714148911,-2.637931542863582,-10.909464794399671,0.03868838657926958,0.09639860325445848,-1.309240282896736,0.0006342058293106051,0.009544763694895014,-0.13867515331139657,0,70,255.0,255.0,255.0
305,15.25,4.6465,-2.6331,-10.9751,0.03866452276102619,0.09685674621366273,-1.3161648913934485,-0.0015887585590461661,0.008780954673275665,-0.13830918655710178,0,70,255.0,255.0,255.0
306,15.3,4.64843190833397,-2.628246095227071,-11.041080623973444,0.03862517348013667,0.09730127008158795,-1.3230499259557338,1.4787323465160302e-05,0.009000000043732762,-0.13709219593431213,0,70,255.0,255.0,255.0
307,15.350000000000001,4.650363853636248,-2.6233696904540325,-11.107403978436722,0.03866600149337271,0.09775674621803603,-1.32987411098688,0.0016183332059764867,0.009219045414189858,-0.13587520531152247,0,70,255.0,255.0,255.0
308,15.4,4.652299844771543,-2.618470238067459,-11.174067020913277,0.03878700680073431,0.09822317462300693,-1.3366374464868862,0.0032218790884877557,0.009438090784646948,-0.13465821468873285,0,70,255.0,255.0,255.0
309,15.450000000000001,4.654243890604557,-2.6135471904539234,-11.241066708926557,0.038988189402221485,0.09870055529650071,-1.3433399324557531,0.004825424970999082,0.009657136155104044,-0.1334412240659432,0,70,255.0,255.0,255.0
310,15.5,4.6562,-2.6086,-11.3084,0.03926954929783422,0.09918888823851733,-1.3499815688934804,0.006428970853510074,0.009876181525561134,-0.1322242334431465,0,70,255.0,255.0,255.0
311,15.55,4.658171367337149,-2.6036282571830256,-11.37606413954033,0.039582217361966876,0.09967988800328996,-1.3565796287967729,0.00607775171179566,0.009763809065343597,-0.13169816268854645,0,70,255.0,255.0,255.0
312,15.600000000000001,4.660157929053578,-2.598632104843388,-11.444057524487386,0.0398773244690138,0.10016526914505171,-1.3631513851623351,0.0057265325700812456,0.00965143660512606,-0.1311720919339464,0,70,255.0,255.0,255.0
313,15.65,4.6621588071014335,-2.593611823912237,-11.512378839664269,0.04015487061897499,0.10064503166380255,-1.3696968379901675,0.005375313428366843,0.009539064144908526,-0.1306460211793464,0,70,255.0,255.0,255.0
314,15.700000000000001,4.6641731234328585,-2.5885676953207244,-11.581026769894105,0.04041485581185048,0.10111917555954256,-1.3762159872802697,0.005024094286652429,0.009426691684690989,-0.13011995042474636,0,70,255.0,255.0,255.0
315,15.75,4.6662,-2.5835,-11.65,0.04065728004764023,0.10158770083227167,-1.3827088330326422,0.004672875144937971,0.009314319224473122,-0.12959387967015168,0,70,255.0,255.0,255.0
316,15.8,4.668238622317432,-2.5784088760408266,-11.71929721786524,0.04088595707199622,0.10205917790525566,-1.3891755588571808,0.004474205829301622,0.009544763694886308,-0.12907515331138447,0,70,255.0,255.0,255.0
317,15.850000000000001,4.670288430149436,-2.5732938901724154,-11.788917123613754,0.0411047006305704,0.10254217720176032,-1.395616348363781,0.004275536513665273,0.009775208165299493,-0.12855642695261726,0,70,255.0,255.0,255.0
318,15.9,4.672348926822726,-2.5681544662835916,-11.858858420429652,0.04131351072336274,0.10303669872178561,-1.4020312015524423,0.0040768671980289314,0.010005652635712672,-0.12803770059385008,0,70,255.0,255.0,255.0
319,15.950000000000001,4.67441961566401,-2.5629900282631786,-11.929119811497031,0.041512387350373284,0.10354274246533157,-1.408420118423166,0.0038781978823925825,0.010236097106125858,-0.12751897423508288,0,70,255.0,255.0,255.0
320,16.0,4.6765,-2.5578,-11.9997,0.04170133051160201,0.10406030843239818,-1.4147830989759507,0.003679528566756407,0.01046654157653848,-0.12700024787631214,0,70,255.0,255.0,255.0
321,16.05,4.678589343393123,-2.5525842386536683,-12.070597388998724,0.04186595435004644,0.10456340037568924,-1.4211021357745073,0.0029054249710205315,0.00965713615510394,-0.12576122406595577,0,70,255.0,255.0,255.0
322,16.1,4.680685950348676,-2.5473443344669486,-12.14180918105761,0.04199187300870407,0.10502602204790858,-1.4273592213825466,0.002131321375284656,0.008847730733669401,-0.12452220025559942,0,70,255.0,255.0,255.0
323,16.150000000000002,4.682787885607665,-2.5420823109533948,-12.213332278617138,0.042079086487574906,0.1054481734490562,-1.4335543558000676,0.001357217779548781,0.00803832531223486,-0.12328317644524306,0,70,255.0,255.0,255.0
324,16.2,4.684893213911103,-2.536800191626561,-12.285163584117774,0.042127594786658944,0.10582985457913205,-1.4396875390270705,0.0005831141838129605,0.007228919890800378,-0.12204415263488679,0,70,255.0,255.0,255.0
325,16.25,4.687,-2.5315,-12.3573,0.0421373979059562,0.10617106543813622,-1.4457587710635558,-0.000190989411923026,0.006419514469365839,-0.120805128824518,0,70,255.0,255.0,255.0
326,16.3,4.6891072041100745,-2.5261829693444997,-12.429738826139877,0.04216222552782423,0.10651922059198754,-1.4517918980447873,0.0011840942866442191,0.007506691684686999,-0.12051995042473464,0,70,255.0,255.0,255.0
327,16.35,4.691217368455866,-2.5208471719597885,-12.502478952155814,0.04225580733462062,0.10692173460660492,-1.4578107661060293,0.002559177985211464,0.00859386890000816,-0.1202347720249513,0,70,255.0,255.0,255.0
328,16.400000000000002,4.693333930746618,-2.5154898899028266,-12.575519665101815,0.04241814332634538,0.10737860748198837,-1.4638153752472824,0.003934261683778709,0.00968104611532932,-0.11994959362516794,0,70,255.0,255.0,255.0
329,16.45,4.695460328691581,-2.510108405230577,-12.648860252031874,0.04264923350299848,0.10788983921813783,-1.469805725468546,0.005309345382345856,0.010768223330650402,-0.11966441522538461,0,70,255.0,255.0,255.0
330,16.5,4.6976,-2.5047,-12.7225,0.04294907786457995,0.1084554298150534,-1.4757818167698207,0.006684429080913046,0.011855400545971007,-0.1193792368256048,0,70,255.0,255.0,255.0
331,16.55,4.69975544016658,-2.4992630839683314,-12.796437706441777,0.04326114353866206,0.10900771725635604,-1.4817142720463385,0.005798197882371179,0.010236097106133778,-0.11791897423510773,0,70,255.0,255.0,255.0
332,16.6,4.701925375827868,-2.493800577693898,-12.870670210319144,0.04352889765281708,0.1094790395256668,-1.4875737141933316,0.004911966683829313,0.00861679366629655,-0.11645871164461066,0,70,255.0,255.0,255.0
333,16.650000000000002,4.704107591405863,-2.4883165294352976,-12.945193860975621,0.043752340207045,0.1098693966229857,-1.4933601432107997,0.004025735485287447,0.006997490226459322,-0.11499844905411359,0,70,255.0,255.0,255.0
334,16.7,4.706299871322574,-2.4828149874511323,-13.020005007754728,0.043931471201345815,0.11017878854831271,-1.4990735590987427,0.0031395042867456437,0.005378186786622208,-0.11353818646361662,0,70,255.0,255.0,255.0
335,16.75,4.7085,-2.4773,-13.0951,0.04406629063571956,0.1104072153016479,-1.5047139618571614,0.002253273088203722,0.0037588833467847582,-0.11207792387311777,0,70,255.0,255.0,255.0
336,16.8,4.710706235223602,-2.471774294782174,-13.170475948093019,0.04418520031752029,0.11063391038258764,-1.5103270137698612,0.0025031141838254426,0.005308919890804886,-0.11244415263486651,0,70,255.0,255.0,255.0
337,16.85,4.7129187282326646,-2.466235317264621,-13.246133006567625,0.04431660205410211,0.11093810729072841,-1.5159583771206482,0.002752955279447163,0.006858956434825014,-0.11281038139661527,0,70,255.0,255.0,255.0
338,16.900000000000002,4.7151381036299265,-2.460679192355981,-13.32207209099572,0.04446049584546501,0.11131980602607015,-1.5216080519095228,0.003002796375068883,0.008408992978845141,-0.11317661015836401,0,70,255.0,255.0,255.0
339,16.95,4.717364986018124,-2.4551020449648946,-13.398294116949208,0.044616881691608996,0.1117790065886129,-1.5272760381364845,0.0032526374706905855,0.009959029522865159,-0.11354283892011274,0,70,255.0,255.0,255.0
340,17.0,4.7196,-2.4495,-13.4748,0.04478575959253406,0.11231570897835667,-1.5329623358015336,0.0035024785663120284,0.011509066066884732,-0.1139090676818526,0,70,255.0,255.0,255.0
341,17.05,4.721843618939007,-2.443870136902972,-13.551589701186158,0.044958055191251046,0.11287264121329484,-1.5386096728742142,0.00338934538236728,0.01076822333064148,-0.11198441522536766,0,70,255.0,255.0,255.0
342,17.1,4.724095711241472,-2.438213353247617,-13.628659363410376,0.04512469413077079,0.11339253131142084,-1.5441607773240706,0.003276212198422531,0.01002738059439823,-0.11005976276888271,0,70,255.0,255.0,255.0
343,17.150000000000002,4.726355994074432,-2.432531501140777,-13.70600417504152,0.0452856764110933,0.11387537927273468,-1.5496156491511026,0.0031630790144777828,0.009286537858154977,-0.10813511031239775,0,70,255.0,255.0,255.0
344,17.2,4.728624184604928,-2.4268264326892908,-13.783619324448436,0.04544100203221856,0.11432118509723632,-1.5549742883553102,0.003049945830533042,0.008545695121911778,-0.10621045785591295,0,70,255.0,255.0,255.0
345,17.25,4.7309,-2.4211,-13.8615,0.0455906709941466,0.11472994878492584,-1.5602366949366935,0.0029368126465881828,0.007804852385667749,-0.10428580539942978,0,70,255.0,255.0,255.0
346,17.3,4.733183289020366,-2.4153539576059377,-13.93964204716236,0.04574257891747952,0.11510752476423318,-1.5654422947332705,0.0031395042867286035,0.007298186786625875,-0.10393818646364288,0,70,255.0,255.0,255.0
347,17.35,4.735474426801448,-2.4095896697449093,-14.018043939790884,0.04590462142281946,0.11545976746358845,-1.5706305135830578,0.003342195926869024,0.006791521187584,-0.10359056752785598,0,70,255.0,255.0,255.0
348,17.400000000000002,4.737773920072348,-2.403808403080911,-14.096704808838222,0.046076798510166425,0.1157866768829916,-1.5758013514860563,0.0035448875670094446,0.006284855588542127,-0.10324294859206908,0,70,255.0,255.0,255.0
349,17.45,4.740082275562164,-2.3980114242779424,-14.175623785257038,0.0462591101795204,0.11608825302244265,-1.5809548084422644,0.0037475792071498507,0.0057781899895002885,-0.10289532965628219,0,70,255.0,255.0,255.0
350,17.5,4.7424,-2.3922,-14.2548,0.046451556430881405,0.1163644958819416,-1.5860908844516843,0.00395027084729016,0.005271524390458082,-0.10254771072050417,0,70,255.0,255.0,255.0
351,17.55,4.744727224979529,-2.386374832673276,-14.334232510164403,0.04663162913883092,0.11664925972977469,-1.5912051481927003,0.003252637470690413,0.00611902952286555,-0.1020228389201371,0,70,255.0,255.0,255.0
352,17.6,4.747062581552736,-2.380534367772745,-14.413920077426106,0.04677682017795045,0.11697639883422817,-1.5962931683436983,0.002555004094090665,0.006966534655273017,-0.10149796711977002,0,70,255.0,255.0,255.0
353,17.650000000000002,4.749404325636178,-2.374676486535576,-14.493861389605607,0.046887129548239995,0.117345913195302,-1.6013549449046776,0.0018573707174909175,0.007814039787680485,-0.10097309531940295,0,70,255.0,255.0,255.0
354,17.7,4.7517507131464125,-2.3687990701989383,-14.574055134523402,0.04696255724969954,0.1177578028129962,-1.6063904778756384,0.001159737340891219,0.008661544920087893,-0.10044822351903591,0,70,255.0,255.0,255.0
355,17.75,4.7541,-2.3629,-14.6545,0.047003103282329116,0.11821206768731077,-1.6113997672565812,0.000462103964291416,0.009509050052494805,-0.09992335171866706,0,70,255.0,255.0,255.0
356,17.8,4.756451011061516,-2.356977911700956,-14.735194312180036,0.047042904527199836,0.11866343631667071,-1.6163611124959443,0.0011299458305374472,0.008545695121902893,-0.09853045785585868,0,70,255.0,255.0,255.0
357,17.85,4.758804846987609,-2.351034459164108,-14.816134950504713,0.047116097865382865,0.11906663719950107,-1.6212528130421673,0.0017977876967834785,0.007582340191310983,-0.09713756399305029,0,70,255.0,255.0,255.0
358,17.900000000000002,4.761163177382943,-2.3450720507767815,-14.89731843273937,0.04722268329687819,0.11942167033580182,-1.6260748688952495,0.0024656295630295097,0.006618985260719071,-0.0957446701302419,0,70,255.0,255.0,255.0
359,17.95,4.763527671852185,-2.3390930949263034,-14.978741276649346,0.047362660821685804,0.11972853572557296,-1.6308272800551913,0.0031334714292754933,0.0056556303301272285,-0.09435177626743363,0,70,255.0,255.0,255.0
360,18.0,4.7659,-2.3331,-15.0604,0.047536030439805727,0.11998723336881453,-1.6355100465219925,0.003801313295521247,0.004692275399534873,-0.09295888240462702,0,70,255.0,255.0,255.0
361,18.05,4.768281530774407,-2.3270943205228973,-15.142291841115462,0.04772475275237208,0.1202489950035404,-1.640166401823516,0.003747579207132689,0.005778189989500031,-0.09329532965631132,0,70,255.0,255.0,255.0
362,18.1,4.770672430496831,-2.3210741955708207,-15.224416920555065,0.047910788360519,0.12056505236776453,-1.6448395794876238,0.0036938451187441307,0.006864104579465189,-0.09363177690799561,0,70,255.0,255.0,255.0
363,18.150000000000002,4.773072564832052,-2.315036910357296,-15.306776079436935,0.0480941372642465,0.12093540546148694,-1.6495295795143157,0.003640111030355573,0.007950019169430347,-0.09396822415967991,0,70,255.0,255.0,255.0
364,18.2,4.775481799444848,-2.308979750095847,-15.389370158879201,0.04827479946355455,0.12136005428470756,-1.6542364019035916,0.0035863769419670183,0.009035933759395428,-0.09430467141136417,0,70,255.0,255.0,255.0
365,18.25,4.7779,-2.3029,-15.4722,0.04845277495844319,0.12183899883742648,-1.658960046655452,0.0035326428535784604,0.010121848349360696,-0.09464111866304492,0,70,255.0,255.0,255.0
366,18.3,4.780326865840859,-2.296796006207454,-15.555265523358127,0.048618084463305254,0.12230858366916292,-1.6636452802100035,0.0030797373409038476,0.008661544920096189,-0.09276822351901826,0,70,255.0,255.0,255.0
367,18.35,4.782761431025071,-2.290670358552608,-15.638562967275051,0.048760748692533586,0.1227051533294361,-1.668236869007354,0.0026268318282292352,0.0072012414908316814,-0.09089532837499158,0,70,255.0,255.0,255.0
368,18.400000000000002,4.785202563288852,-2.284526707794035,-15.722087649512911,0.04888076764612818,0.12302870781824608,-1.6727348130475028,0.0021739263155546224,0.005740938061567173,-0.08902243323096491,0,70,255.0,255.0,255.0
369,18.45,4.787649130368423,-2.278368704690308,-15.805834887833843,0.048978141324089036,0.12327924713559282,-1.6771391123304502,0.001721020802880042,0.004280634632302769,-0.08714953808693837,0,70,255.0,255.0,255.0
370,18.5,4.7901,-2.2722,-15.8898,0.04905286972641617,0.12345677128147635,-1.6814497668561963,0.0012681152902052628,0.00282033120303804,-0.08527664294290638,0,70,255.0,255.0,255.0
371,18.55,4.792554205862158,-2.266023254647286,-15.973978865452041,0.04911490939440329,0.12362067031980559,-1.6857004773364546,0.001213471429279799,0.0037356303301314137,-0.08475177626742116,0,70,255.0,255.0,255.0
372,18.6,4.79501144540289,-2.2598371702187467,-16.05836961034475,0.04917421686934415,0.1238303343144895,-1.6899249444829387,0.0011588275683543355,0.004650929457224787,-0.08422690959193593,0,70,255.0,255.0,255.0
373,18.650000000000002,4.797471582012541,-2.253639458466565,-16.142970922511438,0.04923079215123873,0.12408576326552807,-1.6941231682956484,0.0011041837074288717,0.005566228584318161,-0.08370204291645071,0,70,255.0,255.0,255.0
374,18.7,4.799934479081462,-2.2474278311429217,-16.227781489785414,0.049284635240087034,0.1243869571729213,-1.6982951487745834,0.001049539846503412,0.0064815277114114705,-0.08317717624096553,0,70,255.0,255.0,255.0
375,18.75,4.8024,-2.2412,-16.3128,0.049335746135889064,0.12473391603666921,-1.7024408859197444,0.0009948959855777817,0.0073968268385044,-0.08265230956546787,0,70,255.0,255.0,255.0
376,18.8,4.804868310710508,-2.2349541752034017,-16.398025414833715,0.0494022779590778,0.12509673505161661,-1.7065768104441668,0.001666376941971502,0.0071159337593913645,-0.08278467141142087,0,70,255.0,255.0,255.0
377,18.85,4.807340787363371,-2.228690560572404,-16.48345779134596,0.04950238383008622,0.12544550941260835,-1.7107193530608866,0.002337857898365222,0.006835040680278329,-0.08291703325737387,0,70,255.0,255.0,255.0
378,18.900000000000002,4.80981910866098,-2.2224098583397063,-16.56909746044134,0.04963606374891433,0.12578023911964445,-1.7148685137699042,0.0030093388547589427,0.0065541476011652935,-0.08304939510332687,0,70,255.0,255.0,255.0
379,18.95,4.812304953305727,-2.216112770738006,-16.65494475302448,0.0498033177155621,0.12610092417272487,-1.7190242925712191,0.0036808198111526152,0.006273254522052278,-0.08318175694927987,0,70,255.0,255.0,255.0
380,19.0,4.8148,-2.2098,-16.741,0.05000414573002958,0.12640756457184965,-1.723186689464832,0.004352300767546002,0.005992361442938687,-0.08331411879522932,0,70,255.0,255.0,255.0
381,19.05,4.817305351295809,-2.203472044539108,-16.827262675213106,0.050203978769290114,0.12671238947373056,-1.7273042808868848,0.003641020802875351,0.006200634632298122,-0.0813895380868814,0,70,255.0,255.0,255.0
382,19.1,4.819819805143625,-2.1971285874916355,-16.913728824271434,0.05036824781031712,0.12702762803507947,-1.7313256432735202,0.0029297408382046993,0.006408907821657556,-0.07946495737853349,0,70,255.0,255.0,255.0
383,19.150000000000002,4.822341583343537,-2.1907691081746092,-17.000393635723206,0.05049695285311059,0.12735328025589635,-1.7352507766247383,0.002218460873534048,0.00661718101101699,-0.07754037667018557,0,70,255.0,255.0,255.0
384,19.200000000000003,4.824868907695633,-2.1843930859050547,-17.087252298116653,0.05059009389767053,0.12768934613618116,-1.7390796809405389,0.0015071809088633963,0.0068254542003764246,-0.07561579596183765,0,70,255.0,255.0,255.0
385,19.25,4.8274,-2.178,-17.1743,0.05064767094399692,0.128035825675934,-1.7428123562209217,0.000795900944192407,0.0070337273897365105,-0.07369121525347744,0,70,255.0,255.0,255.0
386,19.3,4.829933484106256,-2.1715896466401654,-17.26153268431386,0.05069380696376389,0.12837370705346268,-1.746494066008284,0.0010495398464862062,0.006481527711411542,-0.07357717624101276,0,70,255.0,255.0,255.0
387,19.35,4.832469592062129,-2.165163089461052,-17.348949311568315,0.050752624928645546,0.12868397844707516,-1.750170073845023,0.0013031787487800056,0.005929328033086574,-0.0734631372285481,0,70,255.0,255.0,255.0
388,19.400000000000002,4.835008957964872,-2.1587217089618567,-17.436549596665852,0.05082412483864189,0.12896663985677137,-1.753840379731139,0.001556817651073805,0.005377128354761606,-0.07334909821608342,0,70,255.0,255.0,255.0
389,19.450000000000003,4.837552215911744,-2.1522668856417737,-17.524333254508925,0.050908306693752924,0.12922169128255134,-1.7575049836666314,0.0018104565533676041,0.004824928676436637,-0.07323505920361874,0,70,255.0,255.0,255.0
390,19.5,4.8401,-2.1458,-17.6123,0.05100517049397865,0.12944913272441505,-1.7611638856515004,0.002064095455661441,0.004272728998111486,-0.07312102019114519,0,70,255.0,255.0,255.0
391,19.55,4.8426527122791665,-2.1393221689002297,-17.700448987531466,0.051100793375649545,0.129664782312419,-1.76478345508001,0.0017608198111740815,0.00435325452204758,-0.07166175694923707,0,70,255.0,255.0,255.0
392,19.6,4.84520982660786,-2.1328334546641545,-17.788777129455305,0.05118125247509606,0.1298844581766198,-1.7683300613464243,0.001457544166686722,0.004433780045983673,-0.07020249370732894,0,70,255.0,255.0,255.0
393,19.650000000000002,4.847770584796972,-2.126333655977964,-17.87728077761341,0.051246547792318214,0.13010816031701739,-1.771803704450743,0.0011542685221993625,0.0045143055699197665,-0.06874323046542082,0,70,255.0,255.0,255.0
394,19.700000000000003,4.850334228657389,-2.119822571527849,-17.965956283847678,0.051296679327316,0.1303358887336118,-1.7752043843929664,0.000850992877712003,0.00459483109385586,-0.0672839672235127,0,70,255.0,255.0,255.0
395,19.75,4.8529,-2.1133,-18.0548,0.05133164708008941,0.13056764342640298,-1.778532101173094,0.0005477172332244984,0.004675356617791948,-0.06582470398159224,0,70,255.0,255.0,255.0
396,19.8,4.855467666777078,-2.106765677758915,-18.14380896556029,0.051383019533641605,0.13080716369685752,-1.7818281136716785,0.0015071809088632174,0.004905454200389862,-0.06601579596178375,0,70,255.0,255.0,255.0
397,19.85,4.858039101506427,-2.100219091882329,-18.23298297061049,0.051482365170975736,0.13105818884644196,-1.7851336807692724,0.0024666445845019365,0.005135551782987775,-0.06620688794197527,0,70,255.0,255.0,255.0
398,19.900000000000002,4.8606167028472385,-2.093659667126285,-18.322322492880538,0.0516296839920918,0.1313207188751563,-1.7884488024658758,0.0034261082601406553,0.005365649365585689,-0.0663979799221668,0,70,255.0,255.0,255.0
399,19.950000000000003,4.863202869458699,-2.0870868282468273,-18.411828010100397,0.0518249759969898,0.13159475378300056,-1.7917734787614892,0.0043855719357793746,0.0055957469481836015,-0.06658907190235831,0,70,255.0,255.0,255.0
400,20.0,4.8658,-2.0805,-18.5015,0.05206824118566973,0.13188029356997466,-1.7951077096561114,0.00534503561141797,0.005825844530781943,-0.06678016388254804,0,70,255.0,255.0,255.0
401,20.05,4.868409420612523,-2.0738991200641106,-18.591338350227378,0.05229512848978884,0.13214656290015492,-1.7984160902332678,0.003730456553346072,0.00482492867642835,-0.06555505920370307,0,70,255.0,255.0,255.0
402,20.1,4.871028167366431,-2.0672861778065292,-18.681340588102763,0.052441286841004346,0.1323627864376175,-1.8016632155764818,0.002115877495274175,0.0038240128220747563,-0.0643299545248581,0,70,255.0,255.0,255.0
403,20.150000000000002,4.873652203814076,-2.0606636755168934,-18.771503650864464,0.052506716239316256,0.1325289641823624,-1.8048490856857535,0.0005012984372022777,0.0028230969677211634,-0.06310484984601311,0,70,255.0,255.0,255.0
404,20.200000000000003,4.876277493507813,-2.0540341154848383,-18.861824475750772,0.052491416684724575,0.1326450961343896,-1.8079737005610834,-0.00111328062086962,0.0018221811133675696,-0.06187974516716814,0,70,255.0,255.0,255.0
405,20.25,4.8789,-2.0474,-18.9523,0.0523953881772293,0.13271118229369913,-1.8110370602024706,-0.0027278596789417353,0.0008212652590138259,-0.06065464048832858,0,70,255.0,255.0,255.0
406,20.3,4.881517050772827,-2.040762641984643,-19.04292723353021,0.05230046650719909,0.1327985847025208,-1.8140435253952654,-0.0010690071222666507,0.0026748310938517856,-0.05960396722345783,0,70,255.0,255.0,255.0
407,20.35,4.884131429027851,-2.0341185968915525,-19.133703476978475,0.052288487465002635,0.1329786654030843,-1.8169974569248164,0.000589845434408434,0.004528396928689745,-0.05855329395858708,0,70,255.0,255.0,255.0
408,20.400000000000002,4.886747281896459,-2.027463230806139,-19.224626103661638,0.05235945105063993,0.13325142439538973,-1.8198988547911241,0.002248697991083519,0.006381962763527706,-0.057502620693716325,0,70,255.0,255.0,255.0
409,20.450000000000003,4.889368756510045,-2.020791909813817,-19.315692486896538,0.05251335726411099,0.1336168616794371,-1.822747718994188,0.003907550547758603,0.008235528598365665,-0.056451947428845566,0,70,255.0,255.0,255.0
410,20.5,4.892,-2.0141,-19.4069,0.052750206105415774,0.1340749772552263,-1.8255440495340087,0.005566403104433293,0.010089094433203494,-0.05540127416396956,0,70,255.0,255.0,255.0
411,20.55,4.894643976296165,-2.007384711997316,-19.498246315651798,0.05299900548142109,0.1345150982897613,-1.8283058081856658,0.0043855719357793034,0.007515746948196352,-0.05506907190231089,0,70,255.0,255.0,255.0
412,20.6,4.897298916522169,-2.000650634627261,-19.58973030398335,0.05318876329899371,0.13482655195004592,-1.83105095672424,0.0032047407671253136,0.004942399463189211,-0.05473686964065222,0,70,255.0,255.0,255.0
413,20.650000000000002,4.899961868600091,-1.9939042012585486,-19.681351134489006,0.05331947955813363,0.13500933823608022,-1.833779495149731,0.0020239095984713237,0.0023690519781820697,-0.05440466737899355,0,70,255.0,255.0,255.0
414,20.700000000000003,4.902629880452009,-1.9871518452598904,-19.77310797666311,0.05339115425884085,0.13506345714786416,-1.8364914234621394,0.0008430784298173342,-0.00020429550682507167,-0.05407246511733488,0,70,255.0,255.0,255.0
415,20.75,4.9053,-1.9804,-19.865,0.053403787401115364,0.13498890868539776,-1.8391867416614645,-0.00033775273883701606,-0.002777642991831808,-0.053740262855676235,0,70,255.0,255.0,255.0
416,20.8,4.907970244042516,-1.9736529100260927,-19.957025903862608,0.053415511567122154,0.13491702213843582,-1.841837241862038,0.0008067193791087054,-9.781888664517997e-05,-0.05227974516726304,0,70,255.0,255.0,255.0
417,20.85,4.910642504883477,-1.9669060645994019,-20.049182507088133,0.053484459339026236,0.13497912679673324,-1.8444147161781907,0.0019511914970544268,0.002582005218541448,-0.05081922747884984,0,70,255.0,255.0,255.0
418,20.900000000000002,4.913319643703184,-1.960152764159665,-20.141466158382354,0.053610630716827604,0.13517522266028997,-1.846919164609923,0.0030956636150001483,0.0052618293237280764,-0.04935870979043664,0,70,255.0,255.0,255.0
419,20.950000000000003,4.916004521681925,-1.9533863091466184,-20.233873206451054,0.05379402570052625,0.13550530972910607,-1.8493505871572347,0.00424013573294587,0.007941653428914704,-0.047898192102023444,0,70,255.0,255.0,255.0
420,21.0,4.9187,-1.9466,-20.3264,0.05403464429012217,0.13596938800318142,-1.8517089838201253,0.005384607850891454,0.010621477534100254,-0.0464376744136068,0,70,255.0,255.0,255.0
421,21.05,4.921407847533777,-1.939789247898313,-20.41904366889778,0.05426694825008842,0.13644081315649315,-1.8540412243661872,0.003907550547758444,0.00823552859836939,-0.04685194742886552,0,70,255.0,255.0,255.0
422,21.1,4.924125463943923,-1.9329579069751306,-20.51180446766413,0.05442539934489802,0.13679294086301838,-1.8563941785630118,0.0024304932446254338,0.005849579662638525,-0.04726622044412424,0,70,255.0,255.0,255.0
423,21.150000000000002,4.926849156587181,-1.9261119421027908,-20.604683431981595,0.05450999757455097,0.13702577112275702,-1.8587678464105994,0.0009534359414924238,0.0034636307269076613,-0.04768049345938296,0,70,255.0,255.0,255.0
424,21.200000000000003,4.929575232820293,-1.9192573181536343,-20.697681597532707,0.05452074293904727,0.13713930393570914,-1.8611622279089504,-0.0005236213616405866,0.0010776817911767964,-0.048094766474641684,0,70,255.0,255.0,255.0
425,21.25,4.9323,-1.9124,-20.7908,0.05445763543838692,0.1371335393018747,-1.8635773230580637,-0.0020006786647736585,-0.0013082671445545646,-0.048509039489889716,0,70,255.0,255.0,255.0
426,21.3,4.935020765822378,-1.9055444983806546,-20.884038620546278,0.054380695432513546,0.1370957252355903,-1.8659498606732414,-0.0010769215701613246,-0.0002042955068203799,-0.04639246511721279,0,70,255.0,255.0,255.0
427,21.35,4.93773883934083,-1.8986895075000763,-20.977393222255348,0.054349943281370786,0.13711310975119265,-1.868216569569785,-0.00015316447554899072,0.0008996761309138048,-0.04427589074453587,0,70,255.0,255.0,255.0
428,21.400000000000002,4.940456529948094,-1.8918322674291703,-21.070858513691284,0.05436537898495865,0.13718569284868168,-1.870377449747695,0.0007705926190633432,0.0020036477686479898,-0.04215931637185894,0,70,255.0,255.0,255.0
429,21.450000000000003,4.943176147036905,-1.884970018238843,-21.164429203418145,0.05442700254327713,0.13731347452805745,-1.872432501206971,0.001694349713675677,0.0031076194063821743,-0.04004274199918202,0,70,255.0,255.0,255.0
430,21.5,4.9459,-1.8781,-21.2581,0.05453481395632621,0.1374964547893199,-1.874381723947613,0.0026181068082878345,0.004211591044115837,-0.03792616762649814,0,70,255.0,255.0,255.0
431,21.55,4.948629889176711,-1.8712199585790685,-21.351866648917113,0.05465827001985716,0.13770428590114567,-1.8762873329408285,0.0023201357329502084,0.004101653428914574,-0.03829819210211199,0,70,255.0,255.0,255.0
432,21.6,4.951365578692757,-1.8643296630245647,-21.44572904331448,0.05476682752962123,0.13790662013221136,-1.8782115431578243,0.0020221646576125824,0.003991715813713312,-0.03867021657772583,0,70,255.0,255.0,255.0
433,21.650000000000002,4.954106323620445,-1.8574293881805266,-21.539688113253295,0.05486048648561842,0.138103457482517,-1.880154354598601,0.001724193582274956,0.003881778198512049,-0.039042241053339685,0,70,255.0,255.0,255.0
434,21.700000000000003,4.956851379032089,-1.8505194088909922,-21.63374478879474,0.05493924688784873,0.1382947979520626,-1.8821157672631583,0.00142622250693733,0.0037718405833107862,-0.03941426552895353,0,70,255.0,255.0,255.0
435,21.75,4.9596,-1.8436,-21.7279,0.05500310873631215,0.13848064154084805,-1.8840957811514962,0.001128251431599947,0.0036619029681084214,-0.03978629000456735,0,70,255.0,255.0,255.0
436,21.8,4.962351677470774,-1.836671667303071,-21.822153983785284,0.0550662244880606,0.13864713115983004,-1.8860528075634753,0.001396378638338051,0.0029976817911718263,-0.03849476647459296,0,70,255.0,255.0,255.0
437,21.85,4.965106845888146,-1.8297358404016641,-21.916504204486742,0.05514274660014596,0.13878040971996522,-1.8879452577989557,0.001664505845076155,0.002333460614235231,-0.037203242944618575,0,70,255.0,255.0,255.0
438,21.900000000000002,4.967866175570128,-1.8227941798487217,-22.01094743329557,0.05523267507256822,0.13888047722125357,-1.8897731318579372,0.001932633051814259,0.001669239437298636,-0.03591171941464418,0,70,255.0,255.0,255.0
439,21.950000000000003,4.970630336834741,-1.815848346197186,-22.105480441402932,0.05533600990532739,0.13894733366369508,-1.89153642974042,0.002200760258552363,0.0010050182603620404,-0.034620195884669795,0,70,255.0,255.0,255.0
440,22.0,4.9734,-1.8089,-22.2001,0.05545275109842345,0.13898097904728976,-1.8932351514464043,0.002468887465290115,0.0003407970834239382,-0.03332867235469372,0,70,255.0,255.0,255.0
441,22.05,4.976175400940189,-1.8019501722086466,-22.294803015941785,0.05555683202789802,0.13901918945953481,-1.89487743680525,0.0016943497136924447,0.0011876194063776277,-0.0323627419991272,0,70,255.0,255.0,255.0
442,22.1,4.978955037754663,-1.7949973753687771,-22.389586938738564,0.055622186069792696,0.13909974098792754,-1.8964714256463169,0.0009198119620947745,0.0020344417293313172,-0.03139681164356067,0,70,255.0,255.0,255.0
443,22.150000000000002,4.981736974099042,-1.7880394924245844,-22.484449353564454,0.055648813224107495,0.13922263363246792,-1.898017117969606,0.00014527421049710405,0.0028812640522850068,-0.030430881287994142,0,70,255.0,255.0,255.0
444,22.200000000000003,4.9845192736289485,-1.781074406320261,-22.579387845593565,0.05563671349084241,0.13938786739315603,-1.8995145137751166,-0.000629263541100566,0.0037280863752386967,-0.029464950932427614,0,70,255.0,255.0,255.0
445,22.25,4.9873,-1.7741,-22.6744,0.05558588686999744,0.13959544226999177,-1.9009636130628487,-0.0014038012926981813,0.004574908698191216,-0.028499020576850498,0,70,255.0,255.0,255.0
446,22.3,4.990077918768468,-1.767114843862342,-22.769483552447593,0.05553844740035311,0.1398041110020294,-1.9023734452154977,-0.0004937774930750631,0.0037718405833144673,-0.027894265529112863,0,70,255.0,255.0,255.0
447,22.35,4.992854603093202,-1.760120258123226,-22.86463684055901,0.055536509120689935,0.13997262632832322,-1.90375303961576,0.00041624630654805506,0.002968772468437719,-0.027289510481375227,0,70,255.0,255.0,255.0
448,22.400000000000002,4.995632328033702,-1.7531182504529386,-22.959858352446634,0.05558007203100791,0.14010098824887318,-1.9051023962636353,0.0013262701061711735,0.00216570435356097,-0.026684755433637592,0,70,255.0,255.0,255.0
449,22.450000000000003,4.998413368649469,-1.7461108285217672,-23.055146576222835,0.055669136131307057,0.1401891967636793,-1.9064215151591237,0.0022362939057942914,0.0013626362386842217,-0.026080000385899957,0,70,255.0,255.0,255.0
450,22.5,5.0012,-1.7391,-23.1505,0.05580370142158734,0.1402372518727416,-1.907710396302225,0.0031463177054173452,0.0005595681238066419,-0.02547524533816059,0,70,255.0,255.0,255.0
451,22.55,5.003993723985941,-1.7320872523419846,-23.24591717426785,0.05593737837068658,0.14027636653234593,-1.908972782332793,0.002200760258552201,0.0010050182603654598,-0.025020195884558654,0,70,255.0,255.0,255.0
452,22.6,5.00679294987253,-1.7250719921383182,-23.3413968990254,0.05602377744744256,0.14033775369877816,-1.9102124158906808,0.001255202811687057,0.0014504683969242776,-0.024565146430956718,0,70,255.0,255.0,255.0
453,22.650000000000002,5.009595313766147,-1.7180531057636594,-23.436938036649043,0.056062898651855285,0.14042141337203834,-1.9114292969758888,0.000309645364821913,0.0018959185334830953,-0.02411009697735478,0,70,255.0,255.0,255.0
454,22.700000000000003,5.012398451773176,-1.711029479592667,-23.53253944951512,0.05605474198392475,0.14052734555212645,-1.9126234255884165,-0.0006359120820432313,0.0023413686700419134,-0.023655047523752845,0,70,255.0,255.0,255.0
455,22.75,5.0152,-1.704,-23.6282,0.05599930744365097,0.14065555023904255,-1.9137948017282642,-0.001581469528908308,0.0027868188066013655,-0.023199998070152716,0,70,255.0,255.0,255.0
456,22.8,5.0179983852877665,-1.6969641467697192,-23.72391815048103,0.05594403911690117,0.14077042286858846,-1.9149194254533275,-0.0006292635410834555,0.0018080863752343163,-0.021784950932373072,0,70,255.0,255.0,255.0
457,22.85,5.020795197416681,-1.6899237733235004,-23.819690763339388,0.055936381089542624,0.14083635887656598,-1.9159732968215015,0.000322942446741397,0.000829353943867267,-0.020369903794593427,0,70,255.0,255.0,255.0
458,22.900000000000002,5.023592816901711,-1.682881326492422,-23.91551430095723,0.055976333361575314,0.14085335826297518,-1.9169564158327868,0.0012751484345662496,-0.00014937848749978222,-0.018954856656813783,0,70,255.0,255.0,255.0
459,22.950000000000003,5.026393624257828,-1.675839253107562,-24.011385225716722,0.05606389593299925,0.14082142102781603,-1.917868782487183,0.002227354422391102,-0.0011281109188668315,-0.017539809519034142,0,70,255.0,255.0,255.0
460,23.0,5.0292,-1.6688,-24.1073,0.056199068803814416,0.1407405471710885,-1.9187103967846901,0.003179560410215887,-0.0021068433502342554,-0.016124762381254598,0,70,255.0,255.0,255.0
461,23.05,5.032013534862994,-1.661764960579138,-24.20325582380805,0.056334465161714246,0.14067394199329974,-1.9195255158538713,0.0022362939057771736,-0.0005573637613161654,-0.01648000038598845,0,70,255.0,255.0,255.0
462,23.1,5.034832660460752,-1.6547313145676792,-24.29925284761706,0.056422698194392135,0.14068481079495687,-1.9203583968232891,0.00129302740133846,0.0009921158276019245,-0.016835238390722304,0,70,255.0,255.0,255.0
463,23.150000000000002,5.037655018627013,-1.6476951882666513,-24.395291959522048,0.05646376790184809,0.14077315357605993,-1.9212090396929435,0.0003497608968997465,0.0025415954165200145,-0.01719047639545616,0,70,255.0,255.0,255.0
464,23.200000000000003,5.040478251195516,-1.640652707977082,-24.491374047618027,0.05645767428408211,0.14093897033660888,-1.9220774444628346,-0.0005935056075389669,0.004091075005438104,-0.017545714400190014,0,70,255.0,255.0,255.0
465,23.25,5.0433,-1.6336,-24.5875,0.0564044173410942,0.14118226107660375,-1.9229636111329627,-0.0015367721119779465,0.005640554594356306,-0.01790095240492562,0,70,255.0,255.0,255.0
466,23.3,5.046118675260262,-1.6265344109137285,-24.68366975428679,0.056350100236243664,0.14142980915821374,-1.92381051113118,-0.0006359120820432978,0.004261368670042101,-0.015975047523772164,0,70,255.0,255.0,255.0
467,23.35,5.048935760740316,-1.6194581684057818,-24.779879446192385,0.05634082613288986,0.14160839794360797,-1.92456111588534,0.0002649479478913509,0.0028821827457278957,-0.014049142642618707,0,70,255.0,255.0,255.0
468,23.400000000000002,5.0517535085902425,-1.612374720440971,-24.87612426095459,0.0563765950310328,0.14171802743278653,-1.9252154253954419,0.0011658079778259995,0.00150299682141369,-0.01212323776146525,0,70,255.0,255.0,255.0
469,23.450000000000003,5.0545741709601115,-1.6052875149841068,-24.972399383811197,0.05645740693067247,0.14175869762574933,-1.9257734396614863,0.0020666680077606483,0.00012381089709948521,-0.010197332880311796,0,70,255.0,255.0,255.0
470,23.5,5.0574,-1.5982,-25.0687,0.056583261831808854,0.1417304085224965,-1.9262351586834734,0.0029675280376948443,-0.0012553750272144004,-0.008271427999149594,0,70,255.0,255.0,255.0
471,23.55,5.060232564095964,-1.5911149957659472,-25.165021959044804,0.056713133893311,0.14167082137384446,-1.9266404396214267,0.002227354422390982,-0.0011281109188670405,-0.007939809518983404,0,70,255.0,255.0,255.0
472,23.6,5.063070696577986,-1.584032811809192,-25.261363767613414,0.056805997274047955,0.1416175974306098,-1.9270291396353716,0.0014871808070871196,-0.0010008468105196808,-0.007608191038817215,0,70,255.0,255.0,255.0
473,23.650000000000002,5.065912547012023,-1.5769531299694626,-25.357724596659615,0.05686185197401972,0.14157073669279246,-1.9274012587253084,0.0007470071917832573,-0.000873582702172321,-0.007276572558651026,0,70,255.0,255.0,255.0
474,23.700000000000003,5.068756264964041,-1.5698756320864888,-25.45410361713721,0.05688069799322628,0.14153023916039256,-1.927756796891237,6.833576479394962e-06,-0.0007463185938249611,-0.006944954078484836,0,70,255.0,255.0,255.0
475,23.75,5.0716,-1.5628,-25.5505,0.05686253533166766,0.14149610483341,-1.928095754133157,-0.0007333400388243039,-0.0006190544854776103,-0.006613335598315118,0,70,255.0,255.0,255.0
476,23.8,5.074442268355881,-1.5557256060224816,-25.64691280953399,0.056829364190508574,0.141486905346409,-1.9284117303831185,-0.0005935056075389224,0.00025107500543862917,-0.0060257144001507525,0,70,255.0,255.0,255.0
477,23.85,5.0772830529477435,-1.5486505843574498,-25.74334068335398,0.05680318477091376,0.14152121233395387,-1.928698325573172,-0.00045367117625354106,0.0011212044963548687,-0.005438093201986388,0,70,255.0,255.0,255.0
478,23.900000000000002,5.080122703361665,-1.541572759681177,-25.83978215240698,0.05678399707288322,0.1415990257960445,-1.9289555397033171,-0.00031383674496815965,0.0019913339872711083,-0.004850472003822023,0,70,255.0,255.0,255.0
479,23.950000000000003,5.082961569183725,-1.534489956669936,-25.936235747639987,0.05677180109641695,0.14172034573268097,-1.9291833727735543,-0.00017400231368277824,0.0028614634781873476,-0.004262850805657659,0,70,255.0,255.0,255.0
480,24.0,5.0858,-1.5274,-26.0327,0.056766596841514944,0.14188517214386323,-1.9293818247838828,-3.416788239740676e-05,0.0037315929691030814,-0.003675229607491559,0,70,255.0,255.0,255.0
481,24.05,5.08863836248051,-1.5203017801441254,-26.129173202819235,0.05676940934464913,0.14202955724051827,-1.92953663884608,0.00014666800776486335,0.0020438108970993723,-0.0025173328803965783,0,70,255.0,255.0,255.0
482,24.1,5.091477091631041,-1.5131984507610081,-26.22565269897067,0.05678126364229143,0.14208955323357317,-1.9296335580719224,0.00032750389792713346,0.0003560288250956632,-0.001359436153301597,0,70,255.0,255.0,255.0
483,24.150000000000002,5.094316639541314,-1.5060942313058279,-26.32213559371249,0.056802159734441846,0.14206516012302783,-1.92967258246141,0.0005083397880894035,-0.0013317532469080458,-0.00020153942620661572,0,70,255.0,255.0,255.0
484,24.200000000000003,5.0971574583010595,-1.498993341233765,-26.41861899230288,0.05683209762110037,0.14195637790888235,-1.9296537120145432,0.0006891756782516737,-0.003019535318911755,0.0009563573008883651,0,70,255.0,255.0,255.0
485,24.25,5.1,-1.4919,-26.5151,0.056871077302267,0.14176320659113667,-1.9295769467313213,0.0008700115684139864,-0.0047073173909164545,0.0021142540279797117,0,70,255.0,255.0,255.0
486,24.3,5.102844281722077,-1.4848168734010163,-26.611575979189077,0.05689299843088977,0.14157886569151823,-1.9294577142325828,6.833576496577615e-06,-0.0026663185938206866,0.002655045921560636,0,70,255.0,255.0,255.0
487,24.35,5.105688580528095,-1.477740412598517,-26.708045320763354,0.056871760659916656,0.1414965747317546,-1.929311442139165,-0.0008563444154208312,-0.0006253197967249187,0.00319583781514156,0,70,255.0,255.0,255.0
488,24.400000000000002,5.108530738473075,-1.4706655150955097,-26.804506672743084,0.05680736398934768,0.14151633371184574,-1.9291381304510686,-0.0017195224073382398,0.0014156790003708487,0.003736629708722484,0,70,255.0,255.0,255.0
489,24.450000000000003,5.111368597612038,-1.4635870783950014,-26.90095868314855,0.05669980841918283,0.1416381426317917,-1.9289377791682931,-0.0025827003992556488,0.003456677797466617,0.0042774216023034085,0,70,255.0,255.0,255.0
490,24.5,5.1142,-1.4565,-26.9974,0.05654909394942212,0.14186200149159237,-1.9287103882908383,-0.003445878391173385,0.0054976765945615735,0.004818213495880741,0,70,255.0,255.0,255.0
491,24.55,5.117023710631181,-1.449401126251809,-27.09382928042447,0.0564105969318004,0.1420709799934109,-1.9284565042235815,-0.0020940023136954786,0.0028614634781786454,0.005337149194389219,0,70,255.0,255.0,255.0
492,24.6,5.119842186256578,-1.4422950988449224,-27.190245217975942,0.056339693718052565,0.14214814783941024,-1.9281766733713994,-0.000742126236217572,0.00022525036179571727,0.005856084892897699,0,70,255.0,255.0,255.0
493,24.650000000000002,5.122658806566385,-1.4351885083121312,-27.28664651531519,0.05633638430817864,0.14209350502959045,-1.9278708957342918,0.0006097498412603337,-0.0024109627545872113,0.006375020591406178,0,70,255.0,255.0,255.0
494,24.700000000000003,5.1254769512507945,-1.428087945186227,-27.383031875102958,0.05640066870217861,0.1419070515639515,-1.9275391713122587,0.0019616259187382407,-0.005047175870970139,0.006893956289914656,0,70,255.0,255.0,255.0
495,24.75,5.1283,-1.421,-27.4794,0.05653254690005245,0.14158878744249342,-1.9271815001053003,0.0033135019962157175,-0.007683388987353101,0.007412891988430204,0,70,255.0,255.0,255.0
496,24.8,5.131130475753198,-1.4139290215917475,-27.575749299113067,0.0566806138419136,0.1412732143348369,-1.9267802688730693,0.002609175678230059,-0.004939535318907545,0.008636357300804337,0,70,255.0,255.0,255.0
497,24.85,5.133967474445593,-1.4068703920217924,-27.67207700733288,0.05679346446787546,0.14109483391060268,-1.92631786437522,0.0019048493602444004,-0.0021956816504619886,0.009859822613178472,0,70,255.0,255.0,255.0
498,24.900000000000002,5.1368092352613886,-1.3998172516559635,-27.768380065996162,0.05687109877793804,0.1410536461697907,-1.9257942866117514,0.0012005230422587419,0.0005481720179835673,0.011083287925552606,0,70,255.0,255.0,255.0
499,24.950000000000003,5.139653997384788,-1.3927627408600893,-27.864655416439632,0.05691351677210134,0.14114965111240102,-1.9252095355826646,0.0004961967242730833,0.003292025686429124,0.012306753237926741,0,70,255.0,255.0,255.0
500,25.0,5.1425,-1.3857,-27.9609,0.056920718450365344,0.14138284873843363,-1.9245636112879587,-0.0002081295937129135,0.006035879354874263,0.013530218550313222,0,70,255.0,255.0,255.0
501,25.05,5.145345586356023,-1.3786243873812,-28.05711112312327,0.05689894770054144,0.14162016266724212,-1.9238784202841437,-0.0006627003992432721,0.0034566777974658867,0.013877421602282074,0,70,255.0,255.0,255.0
502,25.1,5.148189515961049,-1.3715401330679067,-28.153287552692536,0.056854448410441016,0.14172851651818022,-1.9231758691277305,-0.0011172712047736308,0.0008774762400575106,0.014224624654250926,0,70,255.0,255.0,255.0
503,25.150000000000002,5.151030652388063,-1.3644536850640132,-28.24942842070017,0.05678722058006408,0.14170791029124788,-1.9224559578187188,-0.0015718420103039892,-0.0017017253173508655,0.01457182770621978,0,70,255.0,255.0,255.0
504,25.200000000000003,5.1538678592100515,-1.357371491373413,-28.345532859138537,0.05669726420941061,0.14155834398644515,-1.9217186863571083,-0.002026412815834348,-0.004280926874759242,0.014919030758188631,0,70,255.0,255.0,255.0
505,25.25,5.1567,-1.3503,-28.4416,0.056584579298480646,0.14127981760377198,-1.9209640547429,-0.002480983621364896,-0.006860128432168766,0.015266233810162788,0,70,255.0,255.0,255.0
506,25.3,5.159526378822705,-1.3432438288834512,-28.537628608393852,0.0564755953559152,0.14098213499619347,-1.9201700499903953,-0.001878374081253023,-0.005047175870970673,0.01649395629003225,0,70,255.0,255.0,255.0
507,25.35,5.162348061710208,-1.3362002757065794,-28.633615981896977,0.05639674189035534,0.1407751000166749,-1.919314659113897,-0.0012757645411411494,-0.003234223309772581,0.017721678769901706,0,70,255.0,255.0,255.0
508,25.400000000000002,5.1651665551863575,-1.3291648080879825,-28.72955905120318,0.05634801890180108,0.14065871266521623,-1.9183978821134051,-0.0006731550010292762,-0.0014212707485744885,0.018949401249771167,0,70,255.0,255.0,255.0
509,25.450000000000003,5.167983365775005,-1.3221328936462566,-28.825454747006255,0.056329426390252416,0.14063297294181745,-1.9174197189889197,-7.054546091740275e-05,0.0003916818126236043,0.020177123729640624,0,70,255.0,255.0,255.0
510,25.5,5.1708,-1.3151,-28.9213,0.05634096435570934,0.14069788084647855,-1.916380169740441,0.0005320640791942055,0.0022046343738209018,0.021404846209509998,0,70,255.0,255.0,255.0
511,25.55,5.173617698353153,-1.3080626970849951,-29.017092043301332,0.05636667087579601,0.1407872973479848,-1.9152973797542554,0.0004961967242728899,0.001372025686429345,0.021906753237909277,0,70,255.0,255.0,255.0
512,25.6,5.176436637198117,-1.301021964105774,-29.11282931971957,0.056390584028136626,0.1408350834151215,-1.9141894944166502,0.00046032936935157427,0.0005394169990377881,0.02240866026630856,0,70,255.0,255.0,255.0
513,25.650000000000002,5.179256726866504,-1.2939798825840556,-29.20851057448714,0.05641270381273117,0.1408412390478886,-1.9130565137276245,0.00042446201443025865,-0.0002931916883537689,0.022910567294707838,0,70,255.0,255.0,255.0
514,25.700000000000003,5.182077877689928,-1.2869385340415578,-29.30413455283648,0.05643303022957965,0.1408057642462861,-1.9118984376871793,0.0003885946595089431,-0.0011258003757453256,0.02341247432310712,0,70,255.0,255.0,255.0
515,25.75,5.1849,-1.2799,-29.3997,0.05645156327868206,0.14072865901031406,-1.910715266295314,0.00035272730458735246,-0.0019584090631363793,0.023914381351506364,0,70,255.0,255.0,255.0
516,25.8,5.187722827764681,-1.2728661827765682,-29.495205618400828,0.05645772114090077,0.14062067561186667,-1.9095044309925737,-0.00010641281583892534,-0.0023609268747595336,0.0245190307580991,0,70,255.0,255.0,255.0
517,25.85,5.1905453894973235,-1.2658382678703228,-29.590649939224754,0.056440921997098166,0.1404925663228381,-1.908263363219504,-0.0005655529362652032,-0.002763444686382688,0.025123680164691835,0,70,255.0,255.0,255.0
518,25.900000000000002,5.193366537347623,-1.2588172615757938,-29.686031450848272,0.056401165847274254,0.1403443311432284,-1.9069920629761046,-0.0010246930566914809,-0.0031659624980058428,0.025728329571284573,0,70,255.0,255.0,255.0
519,25.950000000000003,5.196185123465284,-1.2518041701875096,-29.781348641647863,0.056338452691429015,0.14017597007303753,-1.9056905302623757,-0.0014838331771177588,-0.003568480309628997,0.02633297897787731,0,70,255.0,255.0,255.0
520,26.0,5.199,-1.2448,-29.8766,0.05625278252956247,0.1399874831122655,-1.9043587650783171,-0.0019429732975441705,-0.003970998121252123,0.026937628384464674,0,70,255.0,255.0,255.0
521,26.05,5.201810190588122,-1.2378053718087323,-29.971783883095373,0.05615444456060104,0.13980200020454978,-1.9029888962754633,-0.0019905454609130298,-0.003448318187376557,0.027857123729689817,0,70,255.0,255.0,255.0
522,26.1,5.20461540481259,-1.2308193644129333,-30.066898123381428,0.05605372798347116,0.13964265129352785,-1.9015730527053483,-0.002038117624281889,-0.0029256382535009914,0.02877661907491496,0,70,255.0,255.0,255.0
523,26.150000000000002,5.207415523742999,-1.2238406711127678,-30.161940422119795,0.05595063279817285,0.13950943637919969,-1.9001112343679718,-0.0020856897876507484,-0.0024029583196254253,0.029696114420140102,0,70,255.0,255.0,255.0
524,26.200000000000003,5.210210428448939,-1.2168679852084014,-30.256908480572108,0.05584515900470609,0.1394023554615653,-1.8986034412633341,-0.0021332619510196077,-0.0018802783857498596,0.030615609765365245,0,70,255.0,255.0,255.0
525,26.25,5.213,-1.2099,-30.3518,0.055737306603070885,0.13932140854062466,-1.897049673391435,-0.00218083411438863,-0.0013575984518749973,0.0315351051105921,0,70,255.0,255.0,255.0
526,26.3,5.215784409882833,-1.2029355299885016,-30.446612449217678,0.055644500616698574,0.13925932356993406,-1.8954359839055912,-0.0015314053405037684,-0.001125800375749494,0.033012474323153664,0,70,255.0,255.0,255.0
527,26.35,5.2185649912523155,-1.195973874477943,-30.541342367249552,0.05558416606902051,0.13920882850304972,-1.8937484259591197,-0.0008819765666189066,-0.0008940022996239905,0.03448984353571522,0,70,255.0,255.0,255.0
528,26.400000000000002,5.22134336768038,-1.189014453973133,-30.635986060672586,0.05555630296003668,0.13916992333997164,-1.8919869995520198,-0.0002325477927340447,-0.0006622042234984872,0.035967212748276786,0,70,255.0,255.0,255.0
529,26.450000000000003,5.224121162738963,-1.1820566889788822,-30.73053983606375,0.0555609112897471,0.13914260808069986,-1.890151704684292,0.00041688098115081696,-0.00043040614737298376,0.037444581960838344,0,70,255.0,255.0,255.0
530,26.5,5.2269,-1.1751,-30.825,0.05559799105815176,0.13912688272523432,-1.8882425413559363,0.0010663097550357437,-0.00019860807124771895,0.038921951173394476,0,70,255.0,255.0,255.0
531,26.55,5.229680969880546,-1.16814450823726,-30.919363920033913,0.055635552972600026,0.1390807055157125,-1.8863231681021553,0.00043616682289481445,-0.0016484803096247652,0.03785297897784579,0,70,255.0,255.0,255.0
532,26.6,5.232463030178149,-1.161193137675294,-31.01363320762038,0.055641607740441246,0.13896203469427185,-1.8844572434581517,-0.00019397610924611476,-0.0030983525480018114,0.03678400678229711,0,70,255.0,255.0,255.0
533,26.650000000000002,5.23524460553548,-1.154249512994698,-31.10781053518989,0.05561615536167541,0.1387708702609123,-1.8826447674239255,-0.0008241190413870439,-0.004548224786378858,0.03571503458674843,0,70,255.0,255.0,255.0
534,26.700000000000003,5.238024120595207,-1.1473172588760676,-31.20189857517294,0.05555919583630254,0.13850721221563397,-1.8808857399994767,-0.0014542619735279732,-0.005998097024755904,0.034646062391199745,0,70,255.0,255.0,255.0
535,26.75,5.2408,-1.1404,-31.2959,0.05547072916432263,0.13817106055843675,-1.8791801611848058,-0.002084404905668802,-0.007447969263133736,0.033577090195642256,0,70,255.0,255.0,255.0
536,26.8,5.243570910594982,-1.1335000370624582,-31.389815870646675,0.05536528749290541,0.13784185436721463,-1.8774313436857826,-0.0021332619510197387,-0.005720278385750153,0.03637560976528395,0,70,255.0,255.0,255.0
537,26.85,5.246336488035086,-1.1266143748208808,-31.48364080226894,0.05525740296922065,0.13759903271986174,-1.8755426002082773,-0.002182118996370676,-0.00399258750836657,0.039174129334925645,0,70,255.0,255.0,255.0
538,26.900000000000002,5.249096610177699,-1.119738694048074,-31.577367798567867,0.05514707559326834,0.13744259561637798,-1.8735139307522901,-0.0022309760417216127,-0.002264896630982986,0.04197264890456734,0,70,255.0,255.0,255.0
539,26.950000000000003,5.251851154880209,-1.1128686755168447,-31.670989863244525,0.05503430536504849,0.13737254305676344,-1.8713453353178207,-0.00227983308707255,-0.0005372057535994032,0.04477116847420903,0,70,255.0,255.0,255.0
540,27.0,5.2546,-1.106,-31.7645,0.05491909228456109,0.13738887504101802,-1.8690368139048694,-0.002328690132423372,0.0011904851237825032,0.04756968804385231,0,70,255.0,255.0,255.0
541,27.05,5.257343387739526,-1.0991297435129075,-31.857892597379394,0.054823297055778965,0.13740787701542825,-1.8666714571547494,-0.0015031190188617089,-0.00043040614737355296,0.04704458196095266,0,70,255.0,255.0,255.0
542,27.1,5.260083017681506,-1.092260563041183,-31.951167583303885,0.054768780382674916,0.13734583442628068,-1.864332355708774,-0.0006775479053000453,-0.002051297418529609,0.04651947587805302,0,70,255.0,255.0,255.0
543,27.150000000000002,5.262820953753721,-1.0853965108130053,-32.04432627053867,0.05475554226524896,0.13720274727357526,-1.8620195095669438,0.00014802320826161819,-0.003672188689685665,0.04599436979515337,0,70,255.0,255.0,255.0
544,27.200000000000003,5.265559259883959,-1.0785416390565512,-32.137369971848976,0.05478358270350108,0.13697861555731208,-1.8597329187292588,0.0009735943218232815,-0.005293079960841721,0.04546926371225372,0,70,255.0,255.0,255.0
545,27.25,5.2683,-1.0717,-32.2303,0.05485290169743128,0.13667343927749115,-1.8574725831957188,0.0017991654353847752,-0.00691397123199744,0.04494415762935233,0,70,255.0,255.0,255.0
546,27.3,5.271044338446912,-1.0648745888859124,-32.32311693983577,0.054909524283978016,0.1363506375710723,-1.855194827695204,0.000465738026484611,-0.005998097024755898,0.046166062391236565,0,70,255.0,255.0,255.0
547,27.35,5.27378984123889,-1.0580641730143865,-32.41581846451555,0.054899475500079745,0.13607362957501554,-1.8528559769565953,-0.0008676893824155533,-0.005082222817514356,0.047387967153120804,0,70,255.0,255.0,255.0
548,27.400000000000002,5.276533174807413,-1.0512664626999046,-32.50840151927746,0.05482275534573646,0.13584241528932087,-1.850456030979892,-0.0022011167913157173,-0.0041663486102728135,0.04860987191500504,0,70,255.0,255.0,255.0
549,27.450000000000003,5.279271005583957,-1.0444791682569483,-32.600863049359575,0.05467936382094817,0.13565699471398826,-1.8479949897650945,-0.0035345442002158818,-0.0032504744030312704,0.049831776676889275,0,70,255.0,255.0,255.0
550,27.5,5.282,-1.0377,-32.6932,0.054469300925714885,0.13551736784901774,-1.8454728533122031,-0.004867971609116173,-0.0023346001957897933,0.05105368143876632,0,70,255.0,255.0,255.0
551,27.55,5.284717658472824,-1.0309271009434429,-32.78540924327755,0.05424260580830985,0.135397572700283,-1.8428852320643845,-0.004199833087085138,-0.002457205753600091,0.05245116847398352,0,70,255.0,255.0,255.0
552,27.6,5.2874248173629335,-1.0241603449012697,-32.87748735863391,0.05404931761700637,0.13527164727365773,-1.8402277364648048,-0.003531694565054103,-0.0025798113114103884,0.05384865550920072,0,70,255.0,255.0,255.0
553,27.650000000000002,5.290123147016628,-1.0174000383873751,-32.9694308523515,0.05388943635180443,0.13513959156914196,-1.8375003665134644,-0.0028635560430230684,-0.002702416869220686,0.055246142544417925,0,70,255.0,255.0,255.0
554,27.700000000000003,5.292814317780215,-1.0106464879156534,-33.06123623071273,0.05376296201270405,0.13500140558673565,-1.8347031222103627,-0.0021954175209920332,-0.0028250224270309834,0.056643629579635126,0,70,255.0,255.0,255.0
555,27.75,5.2955,-1.0039,-33.1529,0.053669894599705226,0.13485708932643886,-1.831836003555501,-0.0015272789989613234,-0.0029476279848421605,0.058041116614854005,0,70,255.0,255.0,255.0
556,27.8,5.298181827661787,-0.9971610073403157,-33.244419687054055,0.05360805248277731,0.1346990716277967,-1.828960244047319,-0.0009464056781553072,-0.0033730799608441115,0.056989263712432944,0,70,255.0,255.0,255.0
557,27.85,5.3008612893093785,-0.9904304473805335,-33.33579690094882,0.053575254031889695,0.13451978133035444,-1.8261370771842576,-0.000365532357349291,-0.0037985319368460625,0.055937410810011884,0,70,255.0,255.0,255.0
558,27.900000000000002,5.303539837126076,-0.9837093837505935,-33.42703427131657,0.05357149924704238,0.13431921843411207,-1.8233665029663175,0.00021534096345672527,-0.004223983912848013,0.05488555790759082,0,70,255.0,255.0,255.0
559,27.950000000000003,5.306218923295183,-0.9769988800804355,-33.51813442778954,0.053596788128235366,0.13409738293906961,-1.8206485213934984,0.0007962142842627413,-0.0046494358888499645,0.053833705005169756,0,70,255.0,255.0,255.0
560,28.0,5.3089,-0.9703,-33.6091,0.05365112067546865,0.13385427484522708,-1.8179831324658005,0.0013770876050684944,-0.005074887864853439,0.05278185210276476,0,70,255.0,255.0,255.0
561,28.05,5.3115838308800285,-0.9636136696952939,-33.69993200850625,0.05369318426058974,0.13359814078852994,-1.8152737917463075,0.0003054557997751075,-0.005170474403031424,0.05559177667694617,0,70,255.0,255.0,255.0
562,28.1,5.314268425399555,-0.9569402655765954,-33.79062503757082,0.05368166625544616,0.13333722740492393,-1.8124239547981058,-0.0007661760055182793,-0.005266060941209408,0.05840170125112757,0,70,255.0,255.0,255.0
563,28.150000000000002,5.316951104479068,-0.9502800266102499,-33.88117206238226,0.05361656666003791,0.133071534694409,-1.8094336216211948,-0.001837807810811666,-0.005361647479387392,0.06121162582530898,0,70,255.0,255.0,255.0
564,28.200000000000003,5.319629189039055,-0.9436331917626027,-33.97156605812913,0.053497885474364994,0.13280106265698519,-1.8063027922155748,-0.002909439616105053,-0.005457234017565376,0.06402155039949038,0,70,255.0,255.0,255.0
565,28.25,5.3223,-0.937,-34.0618,0.05332562269842741,0.13252581129265245,-1.803031466581246,-0.00398107142139853,-0.005552820555744464,0.06683147497366448,0,70,255.0,255.0,255.0
566,28.3,5.324961248818103,-0.9303803138785084,-34.15186827892092,0.05312321047486689,0.1322683652180831,-1.7997045889674192,-0.004115417521021837,-0.004745022427028977,0.06624362957940164,0,70,255.0,255.0,255.0
567,28.35,5.327612209092405,-0.9237724903130843,-34.24177094876791,0.05291408094632522,0.13205130904994955,-1.7964071036233056,-0.004249763620645146,-0.00393722429831349,0.06565578418513879,0,70,255.0,255.0,255.0
