idx,t,px,py,pz,vx,vy,vz,ax,ay,az,yaw,mode,ledr,ledg,ledb
0,0.0,0.0,-3.0,0.0,3.5135558511254604e-65,-2.393874967070799e-12,0.04313012311271647,-4.216267021350553e-64,2.8726499604849588e-11,-1.1887614773525976,0,70,255.0,255.0,255.0
1,0.05,1.2648801064051657e-66,-3.000000000000086,0.0006790844320577927,1.6162356915177117e-65,-1.1011824848525676e-12,-0.015796143368150432,-3.373013617080442e-64,2.298119968387967e-11,-1.1682891818820782,0,70,255.0,255.0,255.0
2,0.1,1.6865068085402206e-66,-3.000000000000115,-0.0015625540905896108,1.4054223404501832e-66,-9.575499868283224e-14,-0.07369879507549136,-2.5297602128103317e-64,1.7235899762909753e-11,-1.1478168864115588,0,70,255.0,255.0,255.0
3,0.15000000000000002,1.4756934574726923e-66,-3.000000000000101,-0.006673734829265911,-9.135245212926203e-66,6.22407491438408e-13,-0.13057783200930634,-1.6865068085402208e-64,1.1490599841939832e-11,-1.1273445909410391,0,70,255.0,255.0,255.0
4,0.2,8.43253404270109e-67,-3.0000000000000573,-0.014603277045294811,-1.5459645744952023e-65,1.0533049855111509e-12,-0.18643325416959527,-8.432534042701106e-65,5.745299920969918e-12,-1.1068722954705197,0,70,255.0,255.0,255.0
5,0.25,0.0,-3.0,-0.0253,-1.7567779255627302e-65,1.1969374835353996e-12,-0.24126506155635824,0.0,0.0,-1.0864000000000003,0,70,255.0,255.0,255.0
6,0.30000000000000004,-8.432534042701112e-67,-2.9999999999999423,-0.038712722954705216,-1.5459645744952023e-65,1.0533049855111513e-12,-0.29507325416959534,8.432534042701112e-65,-5.7452999209699225e-12,-1.0659277045294804,0,70,255.0,255.0,255.0
7,0.35000000000000003,-1.4756934574726936e-66,-2.999999999999899,-0.054790265170734105,-9.13524521292619e-66,6.224074914384074e-13,-0.3478578320093063,1.6865068085402218e-64,-1.1490599841939838e-11,-1.0454554090589605,0,70,255.0,255.0,255.0
8,0.4,-1.686506808540221e-66,-2.9999999999998854,-0.07348144590941041,1.4054223404501916e-66,-9.575499868283234e-14,-0.3996187950754913,2.529760212810332e-64,-1.7235899762909756e-11,-1.0249831135884406,0,70,255.0,255.0,255.0
9,0.45,-1.2648801064051652e-66,-2.999999999999914,-0.09473508443205779,1.6162356915177127e-65,-1.101182484852568e-12,-0.4503561433681504,3.373013617080442e-64,-2.298119968387967e-11,-1.0045108181179208,0,70,255.0,255.0,255.0
10,0.5,0.0,-3.0,-0.1185,3.5135558511254604e-65,-2.393874967070799e-12,-0.5000698768872834,4.216267021350552e-64,-2.872649960484959e-11,-0.9840385226474,0,70,255.0,255.0,255.0
11,0.55,2.1081335106752784e-66,-3.000000000000144,-0.14472339261323705,4.567622606463099e-65,-3.112037457192039e-12,-0.5486628399534685,-4.048204010200521e-79,2.5849394142282115e-26,-0.95968,0,70,255.0,255.0,255.0
12,0.6000000000000001,4.216267021350555e-66,-3.000000000000287,-0.17334598522647404,3.513555851125456e-65,-2.3938749670707967e-12,-0.5960378768872836,-4.21626702135056e-64,2.8726499604849643e-11,-0.9353214773526,0,70,255.0,255.0,255.0
13,0.65,5.270333776688191e-66,-3.0000000000003593,-0.20430688153309254,3.5135558511254326e-66,-2.39387496707078e-13,-0.6421949876887284,-8.432534042701106e-64,5.74529992096992e-11,-0.9109629547052001,0,70,255.0,255.0,255.0
14,0.7000000000000001,4.2162670213505495e-66,-3.0000000000002873,-0.23754518522647405,-4.918978191575653e-65,3.351424953899126e-12,-0.6871341723578035,-1.264880106405166e-63,8.617949881454882e-11,-0.8866044320577999,0,70,255.0,255.0,255.0
15,0.75,0.0,-3.0,-0.273,-1.2297445478939112e-64,8.378562384747798e-12,-0.7308554308945084,-1.686506808540221e-63,1.1490599841939839e-10,-0.8622459094104018,0,70,255.0,255.0,255.0
16,0.8,-7.589280638431002e-66,-2.999999999999483,-0.31061050659234685,-1.6724525851357195e-64,1.1394844843257007e-11,-0.7733633860165314,-8.43253404270097e-65,5.745299920969827e-12,-0.8380722954705196,0,70,255.0,255.0,255.0
17,0.8500000000000001,-1.538937462792953e-65,-2.999999999998951,-0.35031619392337005,-1.314069888320921e-64,8.953092376844782e-12,-0.8146626604415605,1.5178561276862017e-63,-1.0341539857745874e-10,-0.8138986815306376,0,70,255.0,255.0,255.0
18,0.9,-1.9394828298212548e-65,-2.9999999999986784,-0.39205662795821966,-1.5459645744951897e-65,1.05330498551115e-12,-0.8547532541695952,3.12003759579941e-63,-2.1257609707588702e-10,-0.7897250675907556,0,70,255.0,255.0,255.0
19,0.9500000000000001,-1.5600187978997023e-65,-2.9999999999989373,-0.4357713746620463,1.8059677074784897e-64,-1.230451733074393e-11,-0.8936351672006361,4.7222190639126213e-63,-3.217367955743156e-10,-0.7655514536508734,0,70,255.0,255.0,255.0
20,1.0,0.0,-3.0,-0.4814,4.567622606463099e-64,-3.112037457192039e-11,-0.9313083995346826,6.324400532025832e-63,-4.308974940727439e-10,-0.7413778397109843,0,70,255.0,255.0,255.0
21,1.05,2.8248989043048735e-65,-3.0000000000019247,-0.5288817810173758,6.23304807989657e-64,-4.246734191583598e-11,-0.967755615980405,3.373013617080399e-64,-2.298119968387936e-11,-0.716510818117917,0,70,255.0,255.0,255.0
22,1.1,5.734123149036757e-65,-3.0000000000039067,-0.5781548390800463,4.90492396817114e-64,-3.341849454030833e-11,-1.0029594813464744,-5.649797808609752e-63,3.849350947049852e-10,-0.6916437965248496,0,70,255.0,255.0,255.0
23,1.1500000000000001,7.230897941616201e-65,-3.0000000000049267,-0.6291570066340292,5.832502712868106e-65,-3.973832445337423e-12,-1.0369199956328903,-1.1636896978927545e-62,7.928513890938497e-10,-0.6667767749317822,0,70,255.0,255.0,255.0
24,1.2000000000000002,5.8184484894637525e-65,-3.000000000003964,-0.6818261161253414,-6.731973010756415e-64,4.586664436907671e-11,-1.0696371588396525,-1.7623996149245336e-62,1.2007676834827143e-09,-0.6419097533387149,0,70,255.0,255.0,255.0
25,1.25,0.0,-3.0,-0.7361,-1.7040745877958487e-63,1.1610293590293377e-10,-1.1011109709667615,-2.36110953195631e-62,1.608683977871577e-09,-0.6170427317456557,0,70,255.0,255.0,255.0
26,1.3,-1.0540667553376394e-64,-2.999999999992818,-0.7919175693381503,-2.3259739734450556e-63,1.5847452282008693e-10,-1.1314061500618482,-1.2648801064051445e-63,8.617949881454725e-11,-0.5947644320578093,0,70,255.0,255.0,255.0
27,1.35,-2.1397555133354074e-64,-2.9999999999854214,-0.849222049756445,-1.8305625984363635e-63,1.2472088578438854e-10,-1.1605874141725425,2.108133510675281e-62,-1.4363249802424825e-09,-0.5724861323699627,0,70,255.0,255.0,255.0
28,1.4000000000000001,-2.6984108936643544e-64,-2.999999999981615,-0.9079577455056648,-2.1784046276977247e-64,1.4842024795838587e-11,-1.1886547632988445,4.342755031991076e-62,-2.9588294592995123e-09,-0.5502078326821163,0,70,255.0,255.0,255.0
29,1.4500000000000002,-2.1713775159955302e-64,-2.9999999999852056,-0.9680689608365897,2.5121924335547163e-63,-1.7116206014556293e-10,-1.215608197440754,6.577376553306872e-62,-4.481333938356542e-09,-0.5279295329942697,0,70,255.0,255.0,255.0
30,1.5,0.0,-3.0,-1.0295,6.359536090537085e-63,-4.332913690398147e-10,-1.2414477165982716,8.81199807462266e-62,-6.003838417413565e-09,-0.5056512333064216,0,70,255.0,255.0,255.0
31,1.55,3.9337771309200704e-64,-3.0000000000268017,-1.0921935416300237,8.680591085790567e-63,-5.914307493645118e-10,-1.2660757837722039,4.7222190639125695e-63,-3.217367955743099e-10,-0.47947145365086463,0,70,255.0,255.0,255.0
32,1.6,7.985609738437956e-64,-3.000000000054408,-1.1560857618941742,6.831757996928341e-63,-4.6546504859724563e-10,-1.289394861963358,-7.867554261840147e-62,5.360364826264945e-09,-0.4532916739953076,0,70,255.0,255.0,255.0
33,1.6500000000000001,1.00705537804958e-63,-3.0000000000686136,-1.2211112113433131,8.13036823950412e-64,-5.5394266738016717e-11,-1.3114049511717345,-1.620733043007155e-61,1.1042466448104199e-08,-0.42711189433975066,0,70,255.0,255.0,255.0
34,1.7000000000000002,8.103665215035753e-64,-3.0000000000552123,-1.2872044405283016,-9.375572433143225e-63,6.387815962131753e-10,-1.3321060513973333,-2.4547106598302954e-61,1.6724568069943455e-08,-0.40093211468419365,0,70,255.0,255.0,255.0
35,1.75,0.0,-3.0,-1.3543,-2.3734069774352494e-62,1.617062540256325e-09,-1.3514981626401537,-3.2886882766534316e-61,2.240666969178268e-08,-0.37475233502863503,0,70,255.0,255.0,255.0
36,1.8,-1.4681041768342641e-63,-2.9999999998999742,-1.4223338641417562,-3.239639036971721e-62,2.2072484746379597e-09,-1.3696667148493373,-1.7623996149245017e-62,1.2007676834826911e-09,-0.3519897533387173,0,70,255.0,255.0,255.0
37,1.85,-2.980268344041641e-63,-2.9999999997969464,-1.491247702666859,-2.5496469389277e-62,1.7371393086045944e-09,-1.3866971379740256,2.9362083536685312e-61,-2.00051343248173e-08,-0.3292271716487995,0,70,255.0,255.0,255.0
38,1.9000000000000001,-3.7583804228318835e-63,-2.999999999743932,-1.560984609121084,-3.034306833031865e-63,2.0673504215622812e-10,-1.4025894320142176,6.048656668829512e-61,-4.121103633311728e-08,-0.30646458995888176,0,70,255.0,255.0,255.0
39,1.9500000000000002,-3.024328334414747e-63,-2.999999999793945,-1.631487677050206,3.4990097299018167e-62,-2.3839643247071374e-09,-1.4173435969699135,9.161104983990494e-61,-6.241693834141728e-08,-0.28370200826896397,0,70,255.0,255.0,255.0
40,2.0,0.0,-3.0,-1.7027,8.857674300687288e-62,-6.034958791985485e-09,-1.4309596328411138,1.2273553299151462e-60,-8.362284034971718e-08,-0.260939426579057,0,70,255.0,255.0,255.0
41,2.0500000000000003,5.479038994245077e-63,-3.0000000003733005,-1.774563801802953,1.2090497039307827e-61,-8.23756314918733e-09,-1.443385356830447,6.5773765533062386e-62,-4.4813339383561246e-09,-0.2360895329942727,0,70,255.0,255.0,255.0
42,2.1,1.1122512402322772e-62,-3.000000000757805,-1.847017827438391,9.515411956017965e-62,-6.4830921858211305e-09,-1.454568586140541,-1.0958077988490112e-60,7.466017247300424e-08,-0.21123963940948864,0,70,255.0,255.0,255.0
43,2.15,1.4026466313277953e-62,-3.0000000009556587,-1.9199999521723528,1.1324190508177516e-62,-7.715459018869324e-10,-1.464509320771396,-2.2573893632310847e-60,1.538016788843646e-07,-0.18638974582470458,0,70,255.0,255.0,255.0
44,2.2,1.1286946816155413e-62,-3.0000000007690084,-1.9934480512708768,-1.3058481676292953e-61,8.897075702615379e-09,-1.4732075607230117,-3.4189709276131687e-60,2.3294318529572565e-07,-0.1615398522399203,0,70,255.0,255.0,255.0
45,2.25,0.0,-3.0,-2.0673,-3.3057290225313904e-61,2.2522772627685616e-08,-1.480663305995388,-4.580552491995241e-60,3.1208469170708595e-07,-0.13668995865513267,0,70,255.0,255.0,255.0
46,2.3000000000000003,-2.0448051800146037e-62,-2.9999999986068224,-2.141494128646434,-4.512234912025959e-61,3.0743004122111354e-08,-1.4869038578288711,-2.4547106598300625e-61,1.6724568069941847e-08,-0.11293211468419445,0,70,255.0,255.0,255.0
47,2.35,-4.150978126524943e-62,-2.999999997171833,-2.215970587579578,-3.5512000885144164e-61,2.419522943467993e-08,-1.4919565174638074,4.08961036002919e-60,-2.786355555671997e-07,-0.08917427071325643,0,70,255.0,255.0,255.0
48,2.4000000000000004,-5.234748483027996e-62,-2.999999996433433,-2.290669982189506,-4.226245519967461e-62,2.8794485653912293e-09,-1.4958212849001968,8.424691786041425e-60,-5.739956792043438e-07,-0.0654164267423182,0,70,255.0,255.0,255.0
49,2.45,-4.212345893020691e-62,-2.9999999971300215,-2.3655329178662883,4.8734916975269954e-61,-3.320433848575437e-08,-1.4984981601380394,1.275977321205362e-59,-8.693558028414854e-07,-0.041658582771380195,0,70,255.0,255.0,255.0
50,2.5,0.0,-3.0,-2.4405,1.2337148660056832e-60,-8.405613171875697e-08,-1.4999871431773348,1.7094854638065817e-59,-1.1647159264786266e-06,-0.017900738800442184,0,70,255.0,255.0,255.0
51,2.5500000000000003,7.631316820633906e-62,-3.0000000051994102,-2.515511683611313,1.683988994417305e-60,-1.1473445333925807e-07,-1.50027921185407,9.161104983989611e-61,-6.24169383414113e-08,0.00621799173103325,0,70,255.0,255.0,255.0
52,2.6,1.5491661265867499e-61,-3.0000000105548628,-2.5905078222432976,1.325325915845587e-60,-9.029782555289862e-08,-1.4993653440042316,-1.5262633641267749e-59,1.0398820497957942e-06,0.030336722262508477,0,70,255.0,255.0,255.0
53,2.6500000000000004,1.953634730078418e-61,-3.0000000133106104,-2.665428119069627,1.5772563029052116e-61,-1.0746248359678097e-08,-1.4972455396278193,-3.144137778093461e-59,2.1421810379330095e-06,0.05445545279398391,0,70,255.0,255.0,255.0
54,2.7,1.572068889046722e-61,-3.000000010710905,-2.74021227726397,-1.8188118622478687e-60,1.23920278240402e-07,-1.4939197987248332,-4.762012192060132e-59,3.244480026070215e-06,0.07857418332545914,0,70,255.0,255.0,255.0
55,2.75,0.0,-3.0,-2.8148,-4.604286561769594e-60,3.1370175424734227e-07,-1.4893881212952733,-6.379886606026803e-59,4.3467790142074205e-06,0.10269291385693435,0,70,255.0,255.0,255.0
56,2.8000000000000003,-2.848046210252102e-61,-2.9999999805955366,-2.8891311369083166,-6.284732486466624e-60,4.28194809234921e-07,-1.483659294754848,-3.4189709276128393e-60,2.3294318529570363e-07,0.12646014776008355,0,70,255.0,255.0,255.0
57,2.85,-5.781566693694504e-61,-2.9999999606087155,-2.9631461234472325,-4.946183654530905e-60,3.369960727769144e-07,-1.476742106519265,5.696092420504181e-59,-3.880892643615978e-06,0.15022738166323255,0,70,255.0,255.0,255.0
58,2.9000000000000004,-7.291064072010874e-61,-2.999999950324126,-3.0367855415319904,-5.886400659624111e-61,4.010554487332108e-08,-1.4686365565885247,1.17340819337697e-58,-7.994728472527695e-06,0.17399461556638174,0,70,255.0,255.0,255.0
59,2.95,-5.8670409668848185e-61,-2.999999960026358,-3.109989973077832,6.787898279238778e-60,-4.6247677447585384e-07,-1.4593426449626268,1.7772071447035164e-58,-1.2108564301439376e-05,0.19776184946953074,0,70,255.0,255.0,255.0
60,3.0,0.0,-3.0,-3.1827,1.7183431381072693e-59,-1.170750885270612e-06,-1.4488603716415713,2.3810060960300635e-58,-1.6222400130351055e-05,0.22152908337268507,0,70,255.0,255.0,255.0
61,3.0500000000000003,1.0629053158945019e-60,-3.0000000724184424,-3.254855768755423,2.34549409514492e-59,-1.598044783600426e-06,-1.4371636091265387,1.2759773212052427e-59,-8.693558028414045e-07,0.24634141722861477,0,70,255.0,255.0,255.0
62,3.1,2.157710064819127e-60,-3.000000147010275,-3.326395683967774,1.8459408702278033e-59,-1.2576864655547591e-06,-1.4242262299187098,-2.125810631788995e-58,1.448368852466811e-05,0.27115375108454426,0,70,255.0,255.0,255.0
63,3.1500000000000004,2.721062155796508e-60,-3.0000001853928855,-3.397257714802415,2.196834633559125e-60,-1.4967593113360638e-07,-1.4100482340180844,-4.3792189956985346e-58,2.9836732852177764e-05,0.295966084940474,0,70,255.0,255.0,255.0
64,3.2,2.189609497849255e-60,-3.0000001491836645,-3.467379830424703,-2.5332781254707247e-59,1.7259868196630131e-06,-1.3946296214246623,-6.632627359608054e-58,4.5189777179687275e-05,0.32077841879640345,0,70,255.0,255.0,255.0
65,3.25,0.0,-3.0,-3.5367,-6.4129438962521175e-59,4.369301786835106e-06,-1.377970392138444,-8.886035723517574e-58,6.054282150719679e-05,0.3455907526523294,0,70,255.0,255.0,255.0
66,3.3000000000000003,-3.966816642552798e-60,-2.9999997297306926,-3.605156188069994,-8.753503131933016e-59,5.963984325166781e-06,-1.3600702687389992,-4.76201219205968e-59,3.2444800260699033e-06,0.37041418332546716,0,70,255.0,255.0,255.0
67,3.35,-8.052683589907058e-60,-2.9999994513501855,-3.6726863406816728,-6.889145115458123e-59,4.693749789442122e-06,-1.3409289738058974,7.933633285105562e-58,-5.4053861455056485e-05,0.39523761399860474,0,70,255.0,255.0,255.0
68,3.4000000000000004,-1.0155142215984943e-59,-2.9999993081043317,-3.739228399258356,-8.198698468274062e-60,5.585981796611019e-07,-1.3205465073391385,1.6343467789417166e-57,-0.00011135220293618337,0.4200610446717425,0,70,255.0,255.0,255.0
69,3.45,-8.171733894708537e-60,-2.9999994432389854,-3.804720305223359,9.454322673959023e-59,-6.4414705041762e-06,-1.2989228693387231,2.47533022937287e-57,-0.00016865054441730977,0.44488447534488007,0,70,255.0,255.0,255.0
70,3.5,0.0,-3.0,-3.8691,2.39334324469012e-58,-1.6306456262069812e-05,-1.2760580598046505,3.3163136798040237e-57,-0.00022594888589843608,0.4697079060180265,0,70,255.0,255.0,255.0
71,3.5500000000000003,1.4804361254316686e-59,-3.0000010086587867,-3.9323082789646056,3.266851843258715e-58,-2.2257892517066703e-05,-1.2521233159174614,1.7772071447033515e-58,-1.2108564301438219e-05,0.48768184946952653,0,70,255.0,255.0,255.0
72,3.6,3.0053024294809108e-59,-3.0000020475889837,-3.994297353305537,2.5710639591604692e-58,-1.7517312692213727e-05,-1.227289874857698,-2.960872250863325e-57,0.00020173175729555775,0.5056557929210265,0,70,255.0,255.0,255.0
73,3.6500000000000004,3.789950670814327e-59,-3.0000025821897878,-4.0550222881641655,3.059795923953723e-59,-2.0847167875108114e-06,-1.2015577366253587,-6.099465216197014e-57,0.0004155720788925556,0.5236297363725265,0,70,255.0,255.0,255.0
74,3.7,3.04973260809849e-59,-3.0000020778603944,-4.114438148681863,-3.528401257036536e-58,2.403989519704177e-05,-1.1749269012204453,-9.238058181530674e-57,0.0006294124004895516,0.5416036798240264,0,70,255.0,255.0,255.0
75,3.75,0.0,-3.0,-4.1725,-8.932078589135269e-58,6.085652326144414e-05,-1.1473973686429562,-1.2376651146864334e-56,0.0008432527220865477,0.5595776232755316,0,70,255.0,255.0,255.0
76,3.8000000000000003,-5.525062837471395e-59,-2.9999962356341614,-4.229149896071587,-1.2192057059841555e-57,8.306758574310003e-05,-1.1181884675911578,-6.632627359607434e-58,4.518977717968297e-05,0.6087784187964039,0,70,255.0,255.0,255.0
77,3.85,-1.1215941358932934e-58,-2.99999235829388,-4.284277846096182,-9.595341325096066e-58,6.537550097941278e-05,-1.0865195267633159,1.1050125674942743e-56,-0.0007528731677271746,0.6579792143172758,0,70,255.0,255.0,255.0
78,3.9000000000000004,-1.4144288461658814e-58,-2.9999903631365177,-4.337760848084985,-1.1419313848987546e-58,7.780268970382137e-06,-1.0523905461594298,2.2763514085846333e-56,-0.0015509361126340394,0.707180009838148,0,70,255.0,255.0,255.0
79,3.95,-1.1381757042923103e-58,-2.999992245319437,-4.389475900049191,1.316817276075023e-57,-8.971811028399095e-05,-1.0158015257795008,3.447690249674982e-56,-0.002348999057540897,0.7563808053590199,0,70,255.0,255.0,255.0
80,4.0,0.0,-3.0,-4.4393,3.333497111185095e-57,-0.00022711963678370673,-0.9767524656235284,4.619029090765331e-56,-0.0031470620024477546,0.8055816008798891,0,70,255.0,255.0,255.0
81,4.05,2.0619815224453704e-58,-3.000014848804568,-4.487116936749049,4.550137639610749e-57,-0.0003580124504554343,-0.9356508137179089,2.4753302293730216e-57,-0.002088650544421365,0.8384844753448949,0,70,255.0,255.0,255.0
82,4.1000000000000005,4.185846300625098e-58,-3.000034919235497,-4.5328376623097375,3.581030134122361e-57,-0.00043598469122584343,-0.8929040180890384,-4.1239630448908045e-56,-0.0010302390863949568,0.8713873498099014,0,70,255.0,255.0,255.0
83,4.15,5.278720317582093e-58,-3.000057565264142,-4.576379919495899,4.261745947199618e-58,-0.00046103635909493137,-0.8485120787369184,-8.495459112718833e-56,2.8172371631432578e-05,0.9042902242749072,0,70,255.0,255.0,255.0
84,4.2,4.247729556359393e-58,-3.0000801408618583,-4.617661451121375,-4.914428978596444e-57,-0.0004331674540627001,-0.8024749956615479,-1.286695518054686e-55,0.001086583829657822,0.9371930987399132,0,70,255.0,255.0,255.0
85,4.25,0.0,-3.0001,-4.6566,-1.2440780585826853e-56,-0.00035237797612914964,-0.7547927688629275,-1.7238451248374893e-55,0.00214499528768421,0.9700959732049146,0,70,255.0,255.0,255.0
86,4.3,-7.695419806034349e-58,-3.000113969147567,-4.693149556932216,-1.698134485245884e-56,-0.00018701778392460382,-0.7076402775372043,-9.238058181531252e-57,0.004469412400497646,0.9160036798240176,0,70,255.0,255.0,255.0
87,4.3500000000000005,-1.5621791066607097e-57,-3.000116764764132,-4.727409104664872,-1.3364586403979843e-56,9.456326392061934e-05,-0.6631924008805252,1.5390839612068932e-55,0.006793829513311122,0.8619113864431197,0,70,255.0,255.0,255.0
88,4.4,-1.970045242416249e-57,-3.0001025758069138,-4.75951387393142,-1.5905052403899785e-57,0.0004923651674065099,-0.6214491388928918,3.1705485042290692e-55,0.009118246626124558,0.8078190930622227,0,70,255.0,255.0,255.0
89,4.45,-1.5852742521145262e-57,-3.0000655912331307,-4.789599095465311,1.8340898638310742e-56,0.001006387926533072,-0.5824104915743034,4.802013047251247e-55,0.011442663738937993,0.7537267996813257,0,70,255.0,255.0,255.0
90,4.5,0.0,-3.0,-4.8178,4.642962523212232e-56,0.0016366315413003053,-0.5460764589247595,6.433477590273421e-55,0.013767080851751434,0.6996345063004288,0,70,255.0,255.0,255.0
91,4.55,2.871969770169202e-57,-2.9999004746051656,-4.844244035522089,6.337524177022461e-56,0.002354083586155625,-0.5119800761332737,3.4476902496751915e-56,0.014931000942461465,0.6642208053590122,0,70,255.0,255.0,255.0
92,4.6000000000000005,5.830131796580329e-57,-2.9997636217079755,-4.869027519030778,4.987731548179699e-56,0.0031297316355464607,-0.47965437838885794,-5.743939540338492e-55,0.016094921033171516,0.628807104417595,0,70,255.0,255.0,255.0
93,4.65,7.352308937906785e-57,-2.999586531508202,-4.892238984778426,5.935846366839926e-57,0.003963575689472784,-0.44909936569151376,-1.1832648105644394e-54,0.017258841123881544,0.5933934034761784,0,70,255.0,255.0,255.0
94,4.7,5.916324052822164e-57,-2.9993662942056196,-4.91396696701738,-6.844916557464651e-56,0.004855615747934609,-0.4203150380412404,-1.7921356670950298e-54,0.018422761214591576,0.5579797025347619,0,70,255.0,255.0,255.0
95,4.75,0.0,-2.9991,-4.9343,-1.732777203426624e-55,0.005805851810931935,-0.3933013954380378,-2.4010065236256205e-54,0.01958668130530157,0.5225660015933458,0,70,255.0,255.0,255.0
96,4.800000000000001,-1.0718337100073584e-56,-2.99878413243177,-4.953327900979433,-2.3651962222843975e-55,0.006850683439305557,-0.36813541792970567,-1.2866955180543671e-55,0.022206583829642725,0.48407309873992643,0,70,255.0,255.0,255.0
97,4.8500000000000005,-2.1758348079660605e-56,-2.9984127484039655,-4.971145619212016,-1.861446755232082e-55,0.008026510193896217,-0.3448940855640449,2.143667420014707e-54,0.02482648635398383,0.44558019588650777,0,70,255.0,255.0,255.0
98,4.9,-2.7439190509210893e-56,-2.997979298160277,-4.987849386954882,-2.215288022696984e-56,0.00933333207470393,-0.32357739834105503,4.4160043918348504e-54,0.02744638887832494,0.4070872930330891,0,70,255.0,255.0,255.0
99,4.95,-2.2080021959174133e-56,-2.9974772319443916,-5.003535436465166,2.5545576366027534e-55,0.010771149081728701,-0.3041853562607361,6.688341363654994e-54,0.03006629140266605,0.36859439017967044,0,70,255.0,255.0,255.0
100,5.0,0.0,-2.9969,-5.0183,6.4668125613852735e-55,0.012339961214970526,-0.28671795932308813,8.960678335475137e-54,0.03268619392700704,0.33010148732625266,0,70,255.0,255.0,255.0
101,5.050000000000001,4.000137863012508e-56,-2.996241395667754,-5.0322387605601815,8.827032471435343e-55,0.014019182656619325,-0.27114225214789844,4.8020130472500246e-55,0.034482663738943965,0.2929267996813253,0,70,255.0,255.0,255.0
102,5.1000000000000005,8.120326052206209e-56,-2.9954965846761614,-5.045445204121161,6.947013866110356e-55,0.015788227588864938,-0.25742527935495546,-8.000275726024982e-54,0.03627913355088085,0.2557521120363985,0,70,255.0,255.0,255.0
103,5.15,1.0240445309893679e-55,-2.9946610758506913,-5.058012267402049,8.267567454103878e-56,0.017647096011707396,-0.24556704094425869,-1.6480752756774967e-53,0.03807560336281775,0.21857742439147182,0,70,255.0,255.0,255.0
104,5.2,8.240376378387437e-56,-2.993730378016814,-5.070032887121957,-9.533738890664553e-55,0.0195957879251467,-0.2355675369158083,-2.496122978752495e-53,0.039872073174754635,0.18140273674654508,0,70,255.0,255.0,255.0
105,5.25,0.0,-2.9927,-5.0816,-2.413447304211447e-54,0.021634303329182845,-0.2274267672696042,-3.344170681827493e-53,0.04166854298669151,0.1442280491016188,0,70,255.0,255.0,255.0
106,5.300000000000001,-1.492871774204267e-55,-2.991565484897213,-5.092807456779839,-3.294293366345697e-54,0.023760585934215206,-0.2211995734786951,-1.7921356670945778e-54,0.04338276121460165,0.10485970253474279,0,70,255.0,255.0,255.0
107,5.3500000000000005,-3.0305469400858773e-55,-2.990322512891389,-5.1037527643033425,-2.5926608709209338e-54,0.025972579450643032,-0.21694079701612984,2.985743548408521e-53,0.04509697944251175,0.06549135596786748,0,70,255.0,255.0,255.0
108,5.4,-3.821786218865362e-55,-2.9889667984369583,-5.114534343436924,-3.085498179371867e-55,0.028270283878466362,-0.21465043788190835,6.1507006635265e-53,0.04681119767042186,0.026123009400992173,0,70,255.0,255.0,255.0
109,5.45,-3.0753503317632328e-55,-2.987494055988352,-5.125250615047005,3.558039792605544e-54,0.0306536992176852,-0.21432849607603063,9.315657778644479e-53,0.04852541589833197,-0.013245337165883136,0,70,255.0,255.0,255.0
110,5.5,0.0,-2.9859,-5.136,9.00710796070726e-54,0.03312282546829955,-0.21597497159849668,1.248061489376246e-52,0.050239634126242105,-0.052613683732759986,0,70,255.0,255.0,255.0
111,5.550000000000001,5.571473310515818e-55,-2.9841798647433957,-5.146880212320461,1.2294470218239254e-53,0.035706473606522016,-0.2195474539373237,6.688341363653317e-54,0.053106291402654965,-0.09028560982031802,0,70,255.0,255.0,255.0
112,5.6000000000000005,1.1310155155122889e-54,-2.9823269637582843,-5.157986138665473,9.675942097072697e-54,0.03843345460856507,-0.22500353258052852,-1.1142946621031588e-52,0.055972948679067776,-0.1279575359078754,0,70,255.0,255.0,255.0
113,5.65,1.426310034447208e-54,-2.9803341304014754,-5.169411958850253,1.1515235972077075e-54,0.04130376847442877,-0.23234320752811116,-2.2954727378428508e-52,0.05883960595548059,-0.16562946199543274,0,70,255.0,255.0,255.0
114,5.7,1.1477363689214181e-54,-2.9781941980297777,-5.181251852690022,-1.3278785281355725e-53,0.04431741520411311,-0.24156647878007173,-3.476650813582542e-52,0.0617062632318934,-0.2033013880829901,0,70,255.0,255.0,255.0
115,5.75,0.0,-2.9759,-5.1936,-3.361498453861759e-53,0.047474394797618086,-0.25267334633641014,-4.657828889322234e-52,0.06457292050830632,-0.2409733141705468,0,70,255.0,255.0,255.0
116,5.800000000000001,-2.0793021467859006e-54,-2.9734454561292063,-5.2065500939383185,-4.588358750661131e-53,0.050709519639694695,-0.2656346107720105,-2.49612297875187e-53,0.06483207317475617,-0.277477263253459,0,70,255.0,255.0,255.0
117,5.8500000000000005,-4.221007368040567e-54,-2.970828832075475,-5.2201938810347706,-3.611110751736986e-53,0.053957602115093733,-0.2804210726617562,4.1586042935717826e-52,0.06509122584120601,-0.31398121233637066,0,70,255.0,255.0,255.0
118,5.9,-5.323061515902296e-54,-2.9680494799571417,-5.234622621162063,-4.297544570893647e-54,0.05721864222381527,-0.2970327320056474,8.56682088501875e-52,0.06535037850765586,-0.3504851614192822,0,70,255.0,255.0,255.0
119,5.95,-4.2834104425093496e-54,-2.965106751892539,-5.249927574192904,4.955710133281736e-53,0.0604926399658593,-0.31546958880368425,1.2975037476465719e-51,0.0656095311741057,-0.3869891105021938,0,70,255.0,255.0,255.0
120,6.0,0.0,-2.962,-5.2662,1.254528301937631e-52,0.06377959534122582,-0.33573164305586667,1.738325406791269e-51,0.06586868384055511,-0.4234930595851045,0,70,255.0,255.0,255.0
121,6.050000000000001,7.760061256092019e-54,-2.9587271107397806,-5.2835346119262665,1.7123987980820602e-52,0.06716744783469832,-0.3580261029746416,9.315657778642144e-53,0.0696454158983423,-0.46828533716588094,0,70,255.0,255.0,255.0
122,6.1000000000000005,1.575301395664998e-53,-2.955280107939816,-5.302039937195449,1.3476848797240673e-52,0.07074413693106009,-0.38256017677245496,-1.552012251218397e-51,0.07342214795612945,-0.5130776147466566,0,70,255.0,255.0,255.0
123,6.15,1.9865936029161977e-53,-2.95164954976996,-5.3218279565014965,1.6038654686366852e-53,0.07450966263031122,-0.40933386444930714,-3.197181080223215e-51,0.07719888001391657,-0.5578698923274321,0,70,255.0,255.0,255.0
124,6.2,1.5985905401115992e-53,-2.9478259944000693,-5.343010650538362,-1.8494962004991363e-52,0.07846402493245172,-0.438347166005198,-4.8423499092280333e-51,0.08097561207170371,-0.6026621699082078,0,70,255.0,255.0,255.0
125,6.25,0.0,-2.9438,-5.3657,-4.681963362364348e-52,0.08260722383748156,-0.46960008144012766,-6.487518738232852e-51,0.0847523441294904,-0.6474544474889798,0,70,255.0,255.0,255.0
126,6.300000000000001,-2.8960942877582175e-53,-2.9395637009116715,-5.3899954583566165,-6.390759317262127e-52,0.08684468902151594,-0.5023409773294271,-3.476650813581675e-52,0.08474626323188228,-0.6621813880829767,0,70,255.0,255.0,255.0
127,6.3500000000000005,-5.879104845855934e-53,-2.935115536165263,-5.415946370183438,-5.029628443722571e-52,0.09108185016066984,-0.5358182202484256,5.792188575516408e-51,0.08474018233427416,-0.6769083286769731,0,70,255.0,255.0,255.0
128,6.4,-7.41406826007456e-53,-2.9304555209630188,-5.443589552831953,-5.985707417457389e-53,0.09531870725494333,-0.5700318101971241,1.1932042232390986e-50,0.08473410143666604,-0.6916352692709696,0,70,255.0,255.0,255.0
129,6.45,-5.966021116195459e-53,-2.9255836705071836,-5.472961823653646,6.902413788668371e-52,0.09955526030433641,-0.6049817471755223,1.807189588926556e-50,0.08472802053905792,-0.7063622098649662,0,70,255.0,255.0,255.0
130,6.5,0.0,-2.9205,-5.5041,1.747332514751976e-51,0.10379150930884908,-0.6406680311836205,2.4211749546140135e-50,0.08472193964144992,-0.7210891504589627,0,70,255.0,255.0,255.0
131,6.550000000000001,1.0808371025423668e-52,-2.9152068856135336,-5.537001154647274,2.3850638470966442e-51,0.1078857960792381,-0.67470598770765,1.2975037476462415e-51,0.07904953117410843,-0.6404291105021991,0,70,255.0,255.0,255.0
132,6.6000000000000005,2.194111798775874e-52,-2.9097161473991324,-5.5715033820708015,1.877082889516621e-51,0.11169646242625997,-0.7047109422338408,-2.1616742050847244e-50,0.07337712270676705,-0.5597690705454369,0,70,255.0,255.0,255.0
133,6.65,2.7669679437382043e-52,-2.9040419663779637,-5.607405032170693,2.2338964201192752e-52,0.11522350834991477,-0.7306828947621935,-4.453098784934073e-50,0.06770471423942566,-0.4791090305886747,0,70,255.0,255.0,255.0
134,6.7,2.2265493924670238e-52,-2.8981985235711973,-5.644504454847056,-2.5760158954174346e-51,0.1184669338502025,-0.7526218452927081,-6.7445233647834205e-50,0.062032305772084274,-0.3984489906319125,0,70,255.0,255.0,255.0
135,6.75,0.0,-2.8922,-5.6826,-6.521133722771469e-51,0.12142673892712316,-0.7705277938253846,-9.035947944632773e-50,0.05635989730474278,-0.31778895067515034,0,70,255.0,255.0,255.0
136,6.800000000000001,-4.033738981393646e-52,-2.886057556634193,-5.721530323054294,-8.901179456660366e-51,0.12428412666153442,-0.7868190718399691,-4.842349909226827e-51,0.057935612071706076,-0.333862169908219,0,70,255.0,255.0,255.0
137,6.8500000000000005,-8.188536710517904e-52,-2.8797702742382074,-5.761295301533359,-7.005368713694231e-51,0.12722030013429378,-0.8039140108162066,8.067477962787256e-50,0.059511326838669346,-0.34993538914128736,0,70,255.0,255.0,255.0
138,6.9,-1.0326464948945363e-51,-2.8733342135251245,-5.801935118485275,-8.337014938731404e-52,0.1302352593454013,-0.8218126107540976,1.6619190916497195e-49,0.06108704160563262,-0.36600860837435567,0,70,255.0,255.0,255.0
139,6.95,-8.309595458248553e-52,-2.8667454352080277,-5.843489956958129,9.613822202802905e-51,0.13332900429485706,-0.8405148716536421,2.5170903870207132e-49,0.06266275637259588,-0.38208182760742404,0,70,255.0,255.0,255.0
140,7.0,0.0,-2.86,-5.886,2.4337202376333902e-50,0.1365015349826609,-0.8600207935148401,3.372261682391706e-49,0.06423847113955916,-0.3981550468404915,0,70,255.0,255.0,255.0
141,7.050000000000001,1.5054118823032217e-51,-2.8530956878496925,-5.929495153135553,3.321965397954482e-50,0.13964969727462623,-0.8797137249324769,1.807189588926098e-50,0.061688020539051897,-0.3895622098649702,0,70,255.0,255.0,255.0
142,7.1000000000000005,3.056003504329574e-51,-2.8460371556480375,-5.973964211795768,2.61443919652603e-50,0.14267033703656612,-0.8989770145013373,-3.0108237646064296e-49,0.05913756993854468,-0.380969372889449,0,70,255.0,255.0,255.0
143,7.15,3.853889185204324e-51,-2.8388307795215364,-6.019385693888208,3.1114163334806215e-51,0.1455634542684807,-0.9178106622214216,-6.2023664881054686e-49,0.056587119338037464,-0.3723765359139278,0,70,255.0,255.0,255.0
144,7.2,3.101183244052717e-51,-2.83148293559669,-6.065738117320431,-3.587927291579417e-50,0.14832904897036986,-0.93621466809273,-9.393909211604509e-49,0.05403666873753025,-0.3637836989384066,0,70,255.0,255.0,255.0
145,7.25,0.0,-2.824,-6.113,-9.082767578256413e-50,0.15096712114223368,-0.9541890321152622,-1.258545193510355e-48,0.051486218137023476,-0.3551908619628872,0,70,255.0,255.0,255.0
146,7.300000000000001,-5.618273631073521e-51,-2.816386891967036,-6.161152264403496,-1.2397743646151891e-49,0.15356508423996132,-0.9718780284301317,-6.74452336478172e-50,0.05243230577208117,-0.35236899063188465,0,70,255.0,255.0,255.0
147,7.3500000000000005,-1.1405160346266504e-50,-2.808642703169641,-6.2101854512835715,-9.757219914734694e-50,0.15621035171944184,-0.9894259311784508,1.1236547262146993e-48,0.05337839340713885,-0.3495471193008821,0,70,255.0,255.0,255.0
148,7.4,-1.4382910245922755e-50,-2.800765068388729,-6.260092505961898,-1.1611963840049421e-50,0.1589029235806752,-1.0068327403602197,2.3147546860772163e-48,0.054324481042196525,-0.34672524796987964,0,70,255.0,255.0,255.0
149,7.45,-1.1573773430386018e-50,-2.7927516224052114,-6.310866373760151,1.3390326946037384e-49,0.16164279982366145,-1.0240984559754387,3.5058546459397325e-48,0.055270568677254196,-0.3439033766388771,0,70,255.0,255.0,255.0
150,7.5,0.0,-2.7846,-6.3625,3.389735007539226e-49,0.16442998044840063,-1.0412230780241074,4.696954605802248e-48,0.0562166563123121,-0.3410815053078782,0,70,255.0,255.0,255.0
151,7.550000000000001,2.096768264199086e-50,-2.7763087442821646,-6.414986189250465,4.626900918665307e-49,0.1672099657655236,-1.0581981613469906,2.517090387020068e-49,0.05498275637260511,-0.3379218276074428,0,70,255.0,255.0,255.0
152,7.6000000000000005,4.2564637880736437e-50,-2.7678800316733976,-6.468317183069948,3.641444046241273e-49,0.16992825608566117,-1.075015260784852,-4.1935365283981555e-48,0.05374885643289814,-0.3347621499070076,0,70,255.0,255.0,255.0
153,7.65,5.367775179848671e-50,-2.759316946923548,-6.5224850822642,4.333643902671676e-50,0.1725848514088134,-1.0916743763376913,-8.638782095498318e-48,0.05251495649319117,-0.3316024722065723,0,70,255.0,255.0,255.0
154,7.7,4.319391047749134e-50,-2.750622574782466,-6.577481987638968,-4.997338049257013e-49,0.17517975173498027,-1.1081755080055091,-1.3084027662598479e-47,0.0512810565534842,-0.32844279450613706,0,70,255.0,255.0,255.0
155,7.75,0.0,-2.7418,-6.6333,-1.2650663272331263e-48,0.17771295706416182,-1.1245186557883051,-1.7529273229698642e-47,0.0500471566137779,-0.32528311680570354,0,70,255.0,255.0,255.0
156,7.800000000000001,-7.825245693688994e-50,-2.732851730904306,-6.689930978594645,-1.7267829310046043e-48,0.18021905269794455,-1.1406893261819084,-9.393909211602153e-49,0.05019666873753095,-0.3215436989384194,0,70,255.0,255.0,255.0
157,7.8500000000000005,-1.5885339117667927e-49,-2.723777970136769,-6.747365816436635,-1.359005419349163e-48,0.18273262393791492,-1.1566730256821474,1.565049138737792e-47,0.050346180861284,-0.31780428107113534,0,70,255.0,255.0,255.0
158,7.9,-2.003280969480241e-49,-2.7145783439170783,-6.805595164981303,-1.6173379226681846e-49,0.18525367078407295,-1.172469754289022,3.224037369591606e-47,0.05049569298503705,-0.31406486320385124,0,70,255.0,255.0,255.0
159,7.95,-1.6120186847957935e-49,-2.7052524784649252,-6.8646096756839805,1.8650319502424304e-48,0.18778219323641862,-1.1880795120025323,4.883025600445418e-47,0.050645205108790094,-0.3103254453365672,0,70,255.0,255.0,255.0
160,8.0,0.0,-2.6958,-6.9244,4.7212918081785826e-48,0.19031819129495195,-1.2035022988226785,6.542013831299229e-47,0.0507947172325427,-0.3065860274692831,0,70,255.0,255.0,255.0
161,8.05,2.920421451055688e-49,-2.6862211321006093,-6.98495709637096,6.444441632151885e-48,0.1928258234426968,-1.218756533925382,3.505854645938837e-48,0.04951056867725046,-0.30358337663885276,0,70,255.0,255.0,255.0
162,8.1,5.92848926825976e-49,-2.676518487779527,-7.046273151183513,5.071877272772574e-48,0.195269248162677,-1.2338606364865636,-5.840842902111242e-47,0.04822642012195827,-0.30058072580842254,0,70,255.0,255.0,255.0
163,8.15,7.476346359936096e-49,-2.666695277408138,-7.10834065781059,6.03598730040554e-49,0.19764846545489262,-1.2488146065062242,-1.2032271268816587e-46,0.04694227156666603,-0.29757807497799216,0,70,255.0,255.0,255.0
164,8.200000000000001,6.016135634408198e-49,-2.656754711357833,-7.171152109625111,-6.960393996044181e-48,0.19996347531934364,-1.2636184439843632,-1.8223699635521932e-46,0.04565812301137379,-0.2945754241475618,0,70,255.0,255.0,255.0
165,8.25,0.0,-2.6467,-7.2347,-1.7620100905481203e-47,0.20221427775602996,-1.2782721489209805,-2.4415128002227054e-46,0.04437397445608138,-0.29157277331712983,0,70,255.0,255.0,255.0
166,8.3,-1.0899161234853854e-48,-2.636534140693254,-7.298976635921526,-2.4050983597602937e-47,0.20441365353126917,-1.2927645381165624,-1.3084027662595156e-47,0.043601056553485576,-0.2881227945061457,0,70,255.0,255.0,255.0
167,8.35,-2.212542316127226e-48,-2.6262592787451258,-7.363973578829314,-1.8928503671741118e-47,0.2065743834113785,-1.307084428371595,2.1798322469707206e-46,0.042828138650889795,-0.2846728156951617,0,70,255.0,255.0,255.0
168,8.4,-2.7902104470264135e-48,-2.6158773464503686,-7.429682203776342,-2.2526611278953995e-48,0.20869646739635814,-1.3212318196860788,4.490504770567474e-46,0.042055220748293994,-0.2812228368841776,0,70,255.0,255.0,255.0
169,8.450000000000001,-2.245252385283702e-48,-2.605390276103741,-7.49609388581558,2.597654403393425e-47,0.21077990548620795,-1.335206712060013,6.8011772941642274e-46,0.041282302845698185,-0.27777285807319346,0,70,255.0,255.0,255.0
170,8.5,0.0,-2.5948,-7.5632,6.575911181374623e-47,0.21282469768092793,-1.349009105493398,9.111849817760898e-46,0.0405093849431033,-0.27432287926220233,0,70,255.0,255.0,255.0
171,8.55,4.0676223488359723e-48,-2.5841079051263725,-7.630991559942946,8.975949275825986e-47,0.21486356243222543,-1.3626173136083677,4.883025600444179e-47,0.04104520510879564,-0.27000544533657334,0,70,255.0,255.0,255.0
172,8.6,8.257320337682927e-48,-2.573313197239973,-7.699458133499232,7.064213741419192e-47,0.2169292181918075,-1.376009650027055,-8.135244697671758e-46,0.04158102527448797,-0.2656880114109445,0,70,255.0,255.0,255.0
173,8.65,1.0413207152112047e-47,-2.562414536790387,-7.768588927084047,8.407045781541015e-48,0.2190216649596742,-1.389186114749462,-1.6758791955388238e-45,0.04211684544018031,-0.2613705774853155,0,70,255.0,255.0,255.0
174,8.700000000000001,8.379395977693983e-48,-2.5514105842272006,-7.838373147112574,-9.694578213969286e-47,0.22114090273582557,-1.4021467077755871,-2.538233921310472e-45,0.04265266560587265,-0.2570531435596865,0,70,255.0,255.0,255.0
175,8.75,0.0,-2.5403,-7.9088,-2.454163463495037e-46,0.22328693152026147,-1.4148914291054304,-3.400588647082088e-45,0.04318848577156498,-0.25273570963405767,0,70,255.0,255.0,255.0
176,8.8,-1.5180573271858504e-47,-2.5290822388012555,-7.979859524306696,-3.3498698743543644e-46,0.22541209673983476,-1.4274702074499712,-1.822369963551715e-46,0.041818123011365296,-0.25041542414756424,0,70,255.0,255.0,255.0
177,8.85,-3.081673903460448e-47,-2.5177599322949833,-8.051545087173759,-2.636400459850265e-46,0.22746874382139798,-1.439932971520187,3.0361146543716304e-45,0.040447760251165664,-0.2480951386610709,0,70,255.0,255.0,255.0
178,8.9,-3.886261816142176e-47,-2.5063365063880827,-8.123850887887475,-3.1375521998268805e-47,0.2294568727649513,-1.452279721316078,6.254466305098547e-45,0.03907739749096598,-0.24577485317457748,0,70,255.0,255.0,255.0
179,8.950000000000001,-3.127233152549224e-47,-2.4948153869874545,-8.196771125734129,3.618065845248369e-46,0.23137648357049462,-1.4645104568376448,9.472817955825463e-45,0.0377070347307663,-0.24345456768808407,0,70,255.0,255.0,255.0
180,9.0,0.0,-2.4832,-8.2703,9.159062735842684e-46,0.2332275762380279,-1.4766251780848867,1.2691169606552263e-44,0.036336671970566004,-0.24113428220158895,0,70,255.0,255.0,255.0
181,9.05,5.665467073859804e-47,-2.4714935396686037,-8.344431142830278,1.2501884569834858e-45,0.23502405060843445,-1.4885898565917561,6.801177294162438e-46,0.035522302845694784,-0.2374528580731805,0,70,255.0,255.0,255.0
182,9.1,1.1500963580073498e-46,-2.4596982735800945,-8.419155917805735,9.83918046525914e-46,0.23677980652259736,-1.5003704638922046,-1.1330934147719347e-44,0.0347079337208236,-0.23377143394477218,0,70,255.0,255.0,255.0
183,9.15,1.45037265493575e-46,-2.447816237657282,-8.494465121366058,1.1709504221153378e-46,0.23849484398051676,-1.5119669999862333,-2.3341986024855363e-44,0.03389356459595238,-0.23009000981636374,0,70,255.0,255.0,255.0
184,9.200000000000001,1.1670993012427492e-46,-2.4358494678229796,-8.57034954995092,-1.3502805559596556e-45,0.24016916298219262,-1.5233794648738415,-3.5353037901991384e-44,0.033079195471081166,-0.2264085856879553,0,70,255.0,255.0,255.0
185,9.25,0.0,-2.4238,-8.6468,-3.41820874798757e-45,0.24180276352762486,-1.5346078585550287,-4.736408977912698e-44,0.03226482634620842,-0.2227271615595363,0,70,255.0,255.0,255.0
186,9.3,-2.1143810968253365e-46,-2.4116692025243274,-8.723807104372202,-4.6657668404985076e-45,0.24343570082642726,-1.5456423661830092,-2.5382339213098163e-45,0.03305266560588614,-0.2186531435596698,0,70,255.0,255.0,255.0
187,9.35,-4.292218041683355e-46,-2.399455773384641,-8.801360841603302,-3.672032140118631e-45,0.24510803008821347,-1.5564731729109955,4.228762193650575e-44,0.03384050486556384,-0.21457912555980346,0,70,255.0,255.0,255.0
188,9.4,-5.412864438128784e-46,-2.3871577429827897,-8.8794510266483,-4.370046468478694e-46,0.24681975131298362,-1.5671002787389894,8.71134777943229e-44,0.034628344125241566,-0.21050510755993695,0,70,255.0,255.0,255.0
189,9.450000000000001,-4.3556738897160775e-46,-2.3747731417206257,-8.9580674744622,5.0393156393137844e-45,0.24857086450073768,-1.5775236836669895,1.3193933365214007e-43,0.035416183384919295,-0.20643108956007045,0,70,255.0,255.0,255.0
190,9.5,0.0,-2.3623,-9.0372,1.275692871836601e-44,0.25036136965147554,-1.5877433876949962,1.7676518950995563e-43,0.03620402264459566,-0.202357071560197,0,70,255.0,255.0,255.0
191,9.55,7.890977679915366e-46,-2.3497376502340845,-9.116838839680922,1.7412878905010544e-44,0.25211314608585916,-1.5977846786762038,9.472817955823034e-45,0.03386703473074905,-0.19929456768810136,0,70,255.0,255.0,255.0
192,9.600000000000001,1.6018775808726312e-45,-2.337090632881342,-9.196975915781064,1.3704210513948327e-44,0.2537480731245505,-1.6076728444638066,-1.5781955359830957e-43,0.031530046816902434,-0.19623206381600572,0,70,255.0,255.0,255.0
193,9.65,2.0201085097579378e-45,-2.324364790411557,-9.27760357204074,1.6309235451799402e-45,0.25526615076754944,-1.6174078850578044,-3.251119251524362e-43,0.02919305890305591,-0.19316955994391022,0,70,255.0,255.0,255.0
194,9.700000000000001,1.6255596257621553e-45,-2.3115659652945153,-9.358714152200283,-1.8806982001295472e-44,0.2566673790148561,-1.6269898004581977,-4.924042967065688e-43,0.026856070989209297,-0.19010705607181458,0,70,255.0,255.0,255.0
195,9.75,0.0,-2.2987,-9.4403,-4.760950612547647e-44,0.25795175786647034,-1.6364185906649857,-6.596966682606954e-43,0.02451908307536277,-0.18704455219970484,0,70,255.0,255.0,255.0
196,9.8,-2.9449529622836124e-45,-2.2857713965393343,-9.522353536904122,-6.498574877954366e-44,0.25919971483013166,-1.645698919112177,-3.535303790198219e-44,0.025399195471090076,-0.18416858568794292,0,70,255.0,255.0,255.0
197,9.850000000000001,-5.978288519322183e-45,-2.27277929508999,-9.604867495272462,-5.114480991567473e-44,0.2604916774135794,-1.6548354492337802,5.88990592456731e-43,0.026279307866817384,-0.181292619176181,0,70,255.0,255.0,255.0
198,9.9,-7.539147595218872e-45,-2.25972149537098,-9.687834685188738,-6.08668953387188e-45,0.2618276456168134,-1.663828181029795,1.2133342228154222e-42,0.02715942026254466,-0.1784166526644192,0,70,255.0,255.0,255.0
199,9.950000000000001,-6.066671114077012e-45,-2.246595797101312,-9.771247916736682,7.018861236586815e-44,0.26320761943983384,-1.6726771145002222,1.8376778531741352e-42,0.028039532658271967,-0.17554068615265728,0,70,255.0,255.0,255.0
200,10.0,0.0,-2.2334,-9.8551,1.7768109578353988e-43,0.26463159888264065,-1.6813822496450606,2.4620214835328256e-42,0.0289196450539988,-0.17266471964088304,0,70,255.0,255.0,255.0
201,10.05,1.0990714081142913e-44,-2.220132763608579,-9.939383012702605,2.425301162131641e-43,0.26604799459361383,-1.689899644875084,1.3193933365210554e-43,0.027736183384927653,-0.16803108956005375,0,70,255.0,255.0,255.0
202,10.100000000000001,2.2311276496416095e-44,-2.206796186758696,-10.024086103129111,1.908750291487506e-43,0.2674052172211335,-1.698185358601066,-2.1981428162286145e-42,0.026552721715856507,-0.16339745947922446,0,70,255.0,255.0,255.0
203,10.15,2.813648187111755e-44,-2.1933932281045236,-10.109197687204311,2.271583459030758e-44,0.2687032667651995,-1.7062393908230065,-4.528224966109251e-42,0.025369260046785407,-0.15876382939839534,0,70,255.0,255.0,255.0
204,10.200000000000001,2.26411248305459e-44,-2.179926846300233,-10.19470618085301,-2.6194746746217695e-43,0.26994214322581195,-1.7140617415409056,-6.858307115989972e-42,0.02418579837771426,-0.15413019931756605,0,70,255.0,255.0,255.0
205,10.25,0.0,-2.1664,-10.2806,-6.63114877008683e-43,0.2711218466029709,-1.7216524107547628,-9.188389265870607e-42,0.023002336708640492,-0.14949656923673516,0,70,255.0,255.0,255.0
206,10.3,-4.101790336228803e-44,-2.152815149026348,-10.366868812285468,-9.051347160731127e-43,0.2722723067954167,-1.7290865013874774,-4.924042967064393e-43,0.02301607098919174,-0.147867056071842,0,70,255.0,255.0,255.0
207,10.350000000000001,-8.32668174663422e-44,-2.139172757875224,-10.453507292211112,-7.1235530667932785e-43,0.2734234537018901,-1.7364391163619473,8.203580672457728e-42,0.02302980526974299,-0.14623754290694885,0,70,255.0,255.0,255.0
208,10.4,-1.0500677988925133e-43,-2.1254727922109256,-10.540511365994023,-8.47766488273583e-44,0.27457528732239106,-1.743710255678172,1.6899565641621584e-41,0.023043539550294236,-0.14460802974205578,0,70,255.0,255.0,255.0
209,10.450000000000001,-8.449782820810659e-44,-2.111715217697751,-10.627876959851292,9.776012574828403e-43,0.2757278076569195,-1.7508999193361527,2.559555061078575e-41,0.023057273830845482,-0.14297851657716262,0,70,255.0,255.0,255.0
210,10.5,0.0,-2.0979,-10.7156,2.474778412251192e-42,0.2768810147054755,-1.7580081073358886,3.4291535579949616e-41,0.023071008111395397,-0.14134900341227485,0,70,255.0,255.0,255.0
211,10.55,1.5308089936800924e-43,-2.0840274402860257,-10.803675338155536,3.378008748079287e-42,0.2780147782247173,-1.7649703495750115,1.8376778531736646e-42,0.02227953265827719,-0.13714068615263983,0,70,255.0,255.0,255.0
212,10.600000000000001,3.1075599336895272e-43,-2.0700991817404057,-10.892093528026454,2.658546197568561e-42,0.27910896797130325,-1.7717221759511528,-3.0616179873602286e-41,0.021488057205158985,-0.13293236889300483,0,70,255.0,255.0,255.0
213,10.65,3.918906376858878e-43,-2.056117203051773,-10.9808440488196,3.1639076071912697e-43,0.2801635839452332,-1.7782635864643122,-6.30700376003771e-41,0.020696581752040803,-0.12872405163336997,0,70,255.0,255.0,255.0
214,10.700000000000001,3.1535018800188064e-43,-2.04208348290876,-11.069916379741837,-3.648457562469183e-42,0.2811786261465073,-1.7845945811144897,-9.552389532715305e-41,0.019905106298922597,-0.12451573437373495,0,70,255.0,255.0,255.0
215,10.75,0.0,-2.028,-11.1593,-9.235998771996085e-42,0.28215409457512547,-1.7907151599016857,-1.279777530539278e-40,0.01911363084580442,-0.12030741711410542,0,70,255.0,255.0,255.0
216,10.8,-5.713056941097488e-43,-2.013868689829548,-11.248985035092396,-1.2606900276244032e-41,0.28309258030571355,-1.796664100312477,-6.858307115988185e-42,0.018425798377718374,-0.11765019931754704,0,70,255.0,255.0,255.0
217,10.850000000000001,-1.1597571560094686e-42,-1.999691315163152,-11.338964195683086,-9.921829483594914e-42,0.28399667441289733,-1.8024801798334407,1.1426113882195143e-40,0.01773796590963233,-0.11499298152098866,0,70,255.0,255.0,255.0
218,10.9,-1.4625557708542998e-42,-1.9854695955819817,-11.429230838727575,-1.1807863940491416e-42,0.28486637689667677,-1.808163398464576,2.3538058475988677e-40,0.017050133441546305,-0.11233576372443038,0,70,255.0,255.0,255.0
219,10.950000000000001,-1.1769029237994153e-42,-1.9712052506672075,-11.519778321181379,1.3616228992393893e-41,0.28570168775705196,-1.8137137562058836,3.5650003069782635e-40,0.01636230097346026,-0.10967854592787199,0,70,255.0,255.0,255.0
220,11.0,0.0,-1.9569,-11.6106,3.446921667573315e-41,0.2865026069940228,-1.8191312530573631,4.776194766357616e-40,0.015674468505372463,-0.10702132813131016,0,70,255.0,255.0,255.0
221,11.05,2.1321418770709858e-42,-1.9425554003957815,-11.701688521474885,4.704959235689684e-41,0.2872789005524281,-1.8243732491750757,2.5595550610779166e-41,0.01537727383084055,-0.10265851657718905,0,70,255.0,255.0,255.0
222,11.100000000000001,4.3282726306689213e-42,-1.9281723576069856,-11.793033689241215,3.70287717368111e-41,0.2880403343771069,-1.829397104715082,-4.264283754142033e-40,0.015080079156308638,-0.09829570502306796,0,70,255.0,255.0,255.0
223,11.15,5.458332445731312e-42,-1.9137516146202997,-11.884624596270099,4.406754815477446e-42,0.288786908468059,-1.8342028196773825,-8.784523014391697e-40,0.014782884481776734,-0.09393289346894701,0,70,255.0,255.0,255.0
224,11.200000000000001,4.392261507195778e-42,-1.8992939144224084,-11.976450335532657,-5.081645840710636e-41,0.28951862282528457,-1.8387903940619768,-1.3304762274641522e-39,0.014485689807244823,-0.0895700819148259,0,70,255.0,255.0,255.0
225,11.25,0.0,-1.8848,-12.0685,-1.286408679309365e-40,0.2902354774487835,-1.8431598278688652,-1.7825001534891188e-39,0.014188495132713808,-0.0852072703607103,0,70,255.0,255.0,255.0
226,11.3,-7.957261814174196e-42,-1.8702705085873255,-12.160763279008068,-1.7559146915134333e-40,0.29094381748457443,-1.8473469029872265,-9.55238953271286e-41,0.01414510629892396,-0.0822757343737361,0,70,255.0,255.0,255.0
227,11.350000000000001,-1.6153333366666219e-41,-1.8557056544089037,-12.253232247352072,-1.3819325746364947e-40,0.2916499880786759,-1.851387401306239,1.5914523628348616e-39,0.01410171746513411,-0.0793441983867619,0,70,255.0,255.0,255.0
228,11.4,-2.0370774012070948e-41,-1.8411055459368195,-12.345899576192036,-1.6446232867860673e-41,0.29235398923108785,-1.8552813228259026,3.278428620996792e-39,0.014058328631344263,-0.0764126623997878,0,70,255.0,255.0,255.0
229,11.450000000000001,-1.6392143104983706e-41,-1.8264702916431566,-12.438757936688003,1.8964960463603153e-40,0.2930558209418103,-1.8590286675462178,4.965404879158783e-39,0.014014939797554414,-0.07348112641281362,0,70,255.0,255.0,255.0
230,11.5,0.0,-1.8118,-12.5318,4.800942550480128e-40,0.2937554832108432,-1.862629435467184,6.652381137320711e-39,0.013971550963762347,-0.07054959042582887,0,70,255.0,255.0,255.0
231,11.55,2.969690537962579e-41,-1.7970953652549155,-12.625018362492852,6.553162842484763e-40,0.29441782950927375,-1.8660791388760254,3.565000306977328e-40,0.012522300973459168,-0.06743854592782728,0,70,255.0,255.0,255.0
232,11.600000000000001,6.028506083599593e-41,-1.7823594247573975,-12.718405321350525,5.157442581177867e-40,0.2950077133081892,-1.8693732900599669,-5.939381075925245e-39,0.011073050983155988,-0.06432750142982568,0,70,255.0,255.0,255.0
233,11.65,7.602476360255245e-41,-1.767595801632422,-12.811953098961768,6.137817665596522e-41,0.2955251346075894,-1.872511889019008,-1.2235262182548e-38,0.00962380099285286,-0.061216456931824204,0,70,255.0,255.0,255.0
234,11.700000000000001,6.117631091273901e-41,-1.752808119004964,-12.905653917715341,-7.0778196013702e-40,0.29597009340747443,-1.8754949357531492,-1.8531143289170978e-38,0.008174551002549681,-0.05810541243382261,0,70,255.0,255.0,255.0
235,11.75,0.0,-1.738,-12.9995,-1.7917361522611147e-39,0.2963425897078443,-1.8783224302623904,-2.482702439579373e-38,0.006725301012245222,-0.05499436793581225,0,70,255.0,255.0,255.0
236,11.8,-1.1083035970432896e-40,-1.723174430393011,-13.093483271020531,-2.4456736678425625e-39,0.29668086447833153,-1.880976541508657,-1.3304762274638055e-39,0.006805689807246208,-0.05117008191484795,0,70,255.0,255.0,255.0
237,11.850000000000001,-2.2498690997731755e-40,-1.7083318465615038,-13.18759446724585,-1.9247837750074967e-39,0.2970231586885689,-1.8834394384538753,2.2166071940866118e-38,0.006886078602247194,-0.04734579589388364,0,70,255.0,255.0,255.0
238,11.9,-2.837282803981389e-40,-1.6934720475334917,-13.281824027960901,-2.290664737559999e-40,0.29736947233855626,-1.8857111210980453,4.5662620109195206e-38,0.0069664673972481776,-0.043521509872919466,0,70,255.0,255.0,255.0
239,11.950000000000001,-2.2831310054597238e-40,-1.678594832336986,-13.376162392450636,2.641478235912048e-39,0.29771980542829374,-1.8877915894411672,6.915916827752513e-38,0.007046856192249164,-0.03969722385195516,0,70,255.0,255.0,255.0
240,12.0,0.0,-1.6637,-13.4706,6.686850353996446e-39,0.2980741579577812,-1.8896808434832408,9.26557164458542e-38,0.007127244987251036,-0.03587293783099099,0,70,255.0,255.0,255.0
241,12.05,4.136245334376901e-40,-1.6487877131730388,-13.565127753425028,9.127378387121772e-39,0.2984107125774012,-1.8914066950893373,4.965404879157497e-39,0.006334939797550454,-0.033161126412871014,0,70,255.0,255.0,255.0
242,12.100000000000001,8.396625790732742e-40,-1.6338595889965841,-13.659738409666087,7.183390841912204e-39,0.29870765193753623,-1.8929969561245281,-8.27249066875392e-38,0.005542634607849872,-0.030449314994751044,0,70,255.0,255.0,255.0
243,12.15,1.0588883579900033e-39,-1.61891760823361,-13.754425189194631,8.54887718368038e-40,0.2989649760381862,-1.8944516265888125,-1.7041521825423281e-37,0.004750329418149318,-0.027737503576631163,0,70,255.0,255.0,255.0
244,12.200000000000001,8.520760912711507e-40,-1.6039637516470904,-13.84918131248212,-9.858130983511165e-39,0.2991826848793512,-1.895770706482191,-2.581055298209295e-37,0.003958024228448737,-0.025025692158511192,0,70,255.0,255.0,255.0
245,12.25,0.0,-1.589,-13.944,-2.4955665263724667e-38,0.29936077846103115,-1.8969541958046636,-3.4579584138762304e-37,0.003165719038750403,-0.022313880740380654,0,70,255.0,255.0,255.0
246,12.3,-1.5436677740464313e-39,-1.5740283169148315,-14.038873715279367,-3.4063839880644526e-38,0.2995002852120637,-1.8979566781340165,-1.853114328916612e-38,0.002414551002549981,-0.017785412433739302,0,70,255.0,255.0,255.0
247,12.350000000000001,-3.1336634063157794e-39,-1.5590505974521567,-14.133791894089816,-2.6808779592641305e-38,0.2996022335612861,-1.8987327370480376,3.087335548092908e-37,0.0016633829663495589,-0.013256944127097952,0,70,255.0,255.0,255.0
248,12.4,-3.951825151561873e-39,-1.5440687195320664,-14.22874321526058,-3.190484399716141e-39,0.29966662350869866,-1.8992823725467263,6.359982529077361e-37,0.0009122149301491636,-0.008728475820456761,0,70,255.0,255.0,255.0
249,12.450000000000001,-3.179991264538629e-39,-1.5290845610746502,-14.323716357620901,3.6791045698132636e-38,0.29969345505430106,-1.8996055846300832,9.63262951006193e-37,0.0001610468939487416,-0.004200007513815409,0,70,255.0,255.0,255.0
250,12.5,0.0,-1.5141,-14.4187,9.313581070090221e-38,0.29968272819809355,-1.8997023732981078,1.2905276491046382e-36,-0.0005901211422503216,0.0003284607928346617,0,70,255.0,255.0,255.0
251,12.55,5.7610465627480345e-39,-1.4991166191676335,-14.513683785457516,1.2712798113545633e-37,0.2996521465743436,-1.8996305923745855,6.915916827750723e-38,-0.0006331438077498148,0.002542776148049018,0,70,255.0,255.0,255.0
252,12.600000000000001,1.1694991046189841e-38,-1.4841348211947865,-14.608661213974665,1.00051727528653e-37,0.29961941381731855,-1.8994480956833029,-1.1522093125496238e-36,-0.0006761664732493079,0.004757091503263374,0,70,255.0,255.0,255.0
253,12.65,1.4748412248257486e-38,-1.469154713638123,-14.703626749763052,1.1907049880496525e-38,0.2995845299270186,-1.8991548832242595,-2.3735777933767112e-36,-0.0007191891387487995,0.006971406858477651,0,70,255.0,255.0,255.0
254,12.700000000000001,1.1867888966883372e-38,-1.454176404054306,-14.798574857034293,-1.3730605180901938e-37,0.2995474949034437,-1.898750954997455,-3.5949462742038425e-36,-0.0007622118042482926,0.009185722213692007,0,70,255.0,255.0,255.0
255,12.75,0.0,-1.4392,-14.8935,-3.475875775398842e-37,0.29950830874659384,-1.8982363110028901,-4.816314755030929e-36,-0.0008052344697482283,0.011400037568906285,0,70,255.0,255.0,255.0
256,12.8,-2.1500518476945707e-38,-1.424226006414633,-14.988395942890572,-4.744480846611807e-37,0.29944312849056137,-1.8975689523676316,-2.581055298208624e-37,-0.0018019757715501824,0.015294307841431432,0,70,255.0,255.0,255.0
257,12.850000000000001,-4.3646300778443596e-38,-1.409256517768695,-15.083253650011539,-3.7339813052197075e-37,0.2993281111694388,-1.896706880218747,4.300103695389204e-36,-0.0027987170733521365,0.019188578113956578,0,70,255.0,255.0,255.0
258,12.9,-5.504182384146808e-38,-1.3942940259154406,-15.178063385687217,-4.4437715122270044e-38,0.2991632567832262,-1.8956500945562362,8.858312920599107e-36,-0.003795458375154055,0.023082848386481586,0,70,255.0,255.0,255.0
259,12.950000000000001,-4.4291564602994843e-38,-1.379341022708124,-15.272815414241935,5.12433161537945e-37,0.29894856533192343,-1.8943985953800988,1.3416522145809176e-35,-0.004792199676956009,0.026977118659006732,0,70,255.0,255.0,255.0
260,13.0,0.0,-1.3644,-15.3675,1.2972144994586344e-36,0.2986840368155306,-1.8929523826903352,1.797473137101908e-35,-0.005788940978758816,0.030871388931540622,0,70,255.0,255.0,255.0
261,13.05,8.02410273450348e-38,-1.3494729551738331,-15.462107642980206,1.7706643575092668e-36,0.29839933946341035,-1.8913255981548915,9.632629510059455e-37,-0.005598953106050073,0.03419999248620447,0,70,255.0,255.0,255.0
262,13.100000000000001,1.628902120675845e-37,-1.3345599077304313,-15.556629785979196,1.3935407945592304e-36,0.29812414150492555,-1.8895323834417146,-1.604820546900719e-35,-0.005408965233341329,0.03752859604086832,0,70,255.0,255.0,255.0
263,13.15,2.0541888311761485e-37,-1.3196603827001137,-15.65105810748808,1.6584381060858394e-37,0.2978584429400762,-1.8875727385508048,-3.3059673889019717e-35,-0.005218977360632591,0.04085719959553205,0,70,255.0,255.0,255.0
264,13.200000000000001,1.6529836944509604e-37,-1.3047739051131966,-15.74538428599798,-1.91242659434276e-36,0.2976022437688623,-1.8854466634821616,-5.007114230903285e-35,-0.005028989487923847,0.04418580315019589,0,70,255.0,255.0,255.0
265,13.25,0.0,-1.2899,-15.8396,-4.8412704202946535e-36,0.29735554399128383,-1.883154158235785,-6.708261072904537e-35,-0.004839001615216887,0.04751440670486495,0,70,255.0,255.0,255.0
266,13.3,-2.994635909031934e-37,-1.2750389728900333,-15.933696685188615,-6.608209345375887e-36,0.2970715136557972,-1.880680655012821,-3.594946274202914e-36,-0.0065222118042481255,0.05142572221369518,0,70,255.0,255.0,255.0
267,13.350000000000001,-6.079145474918943e-37,-1.2601942513095774,-16.027664806071694,-5.20076504771495e-36,0.296703322810859,-1.8780115860144153,5.989271818063954e-35,-0.008205421993279364,0.055337037722525406,0,70,255.0,255.0,255.0
268,13.4,-7.666337086289914e-37,-1.245370043284105,-16.121494584360462,-6.189375273120661e-37,0.2962509714564692,-1.8751469512405683,1.2338038263547974e-34,-0.009888632182310543,0.059248353231355494,0,70,255.0,255.0,255.0
269,13.450000000000001,-6.1690191317738885e-37,-1.2305705568390881,-16.215176241766162,7.137273215833089e-36,0.29571445959262793,-1.87208675069128,1.868680470903222e-34,-0.01157184237134178,0.06315966874018572,0,70,255.0,255.0,255.0
270,13.5,0.0,-1.2158,-16.3087,1.8067867181719979e-35,0.29509378721933516,-1.8688309843665496,2.5035571154516243e-34,-0.013255052560373404,0.06707098424901758,0,70,255.0,255.0,255.0
271,13.55,1.117613336267739e-36,-1.2010615532660323,-16.40205681626535,2.466217302399428e-35,0.29445060591340183,-1.865423781793848,1.3416522145805717e-35,-0.012472199676959839,0.06921711865904785,0,70,255.0,255.0,255.0
272,13.600000000000001,2.268767977899993e-36,-1.1863542870312564,-16.495240589734045,1.9409519396300577e-35,0.29384656725163916,-1.8619092725006448,-2.23522667253551e-34,-0.011689346793546274,0.07136325306907813,0,70,255.0,255.0,255.0
273,13.65,2.86111595139835e-36,-1.1716762441634654,-16.58824595507007,2.309906298639681e-36,0.2932816712340472,-1.8582874564869403,-4.604618566528992e-34,-0.010906493910132736,0.07350938747910833,0,70,255.0,255.0,255.0
274,13.700000000000001,2.3023092832644604e-36,-1.157025467530449,-16.6810675469374,-2.6636666268989605e-35,0.29275591786062594,-1.8545583337527338,-6.974010460522559e-34,-0.010123641026719171,0.0756555218891386,0,70,255.0,255.0,255.0
275,13.75,0.0,-1.1424,-16.7737,-6.743019830658526e-35,0.29226930713137533,-1.8507219042980263,-9.343402354516043e-34,-0.00934078814330519,0.0778016562991759,0,70,255.0,255.0,255.0
276,13.8,-4.170989754167762e-36,-1.127798814045837,-16.86613684975001,-9.204048275060121e-35,0.29176606269059463,-1.8467122178117907,-5.007114230902008e-35,-0.010788989487923948,0.08258580315024851,0,70,255.0,255.0,255.0
277,13.850000000000001,-8.467157364108076e-36,-1.1132246005653943,-16.958367234992142,-7.243731253748733e-35,0.2911904081825829,-1.8424633239830013,8.341979508335641e-34,-0.012237190832542707,0.08736995000132111,0,70,255.0,255.0,255.0
278,13.9,-1.0677830096964409e-35,-1.0986809800620327,-17.050379195359266,-8.620687667246658e-36,0.2905423436073403,-1.8379752228116584,1.7184670439761172e-33,-0.013685392177161415,0.09215409685239354,0,70,255.0,255.0,255.0
279,13.950000000000001,-8.59233521988045e-36,-1.0841715730391142,-17.142160770484264,9.940939186012529e-35,0.2898218689648668,-1.833247914297762,2.602736137118701e-33,-0.015133593521780172,0.09693824370346614,0,70,255.0,255.0,255.0
280,14.0,0.0,-1.0697,-17.2337,2.5165292604462102e-34,0.28902898425516227,-1.8282813984413118,3.487005230261255e-33,-0.016581794866400212,0.1017223905545368,0,70,255.0,255.0,255.0
281,14.05,1.5566345680403307e-35,-1.0552695905506186,-17.32498618473463,3.4349975797841053e-34,0.28818114332421885,-1.823151346958946,1.868680470902742e-34,-0.017331842371337124,0.10347966874009028,0,70,255.0,255.0,255.0
282,14.100000000000001,3.159986147853232e-35,-1.040882510707165,-17.41601367029741,2.7033973075364864e-34,0.2872958000180285,-1.8179334315673026,-3.1132691360807064e-33,-0.018081889876274036,0.10523694692564374,0,70,255.0,255.0,255.0
283,14.15,3.985020443645928e-35,-1.026540635588403,-17.50677806349287,3.2172844370346854e-35,0.2863729543365914,-1.8126276522663818,-6.41340631925157e-33,-0.018831937381210924,0.10699422511119715,0,70,255.0,255.0,255.0
284,14.200000000000001,3.2067031596257334e-35,-1.0122458403130936,-17.597274971125557,-3.710009011715118e-34,0.28541260627990744,-1.807234009056183,-9.71354350242255e-33,-0.019581984886147836,0.10875150329675062,0,70,255.0,255.0,255.0
285,14.25,0.0,-0.998,-17.6875,-9.391815058718989e-34,0.2844147558479766,-1.8017525019367069,-1.3013680685593418e-32,-0.020332032391086052,0.11050878148230936,0,70,255.0,255.0,255.0
286,14.3,-5.809439296744547e-35,-0.9838044237516879,-17.77744721131148,-1.281958549163041e-33,0.2834133640125314,-1.7960903943524211,-6.974010460520791e-34,-0.01972364102672194,0.11597552188911928,0,70,255.0,255.0,255.0
287,14.350000000000001,-1.179322885500212e-34,-0.9696581566059429,-17.867104483818242,-1.0089216104771076e-33,0.28244239174530433,-1.7901549497477949,1.161887859348926e-32,-0.01911524966235783,0.12144226229592918,0,70,255.0,255.0,255.0
288,14.4,-1.4872298764887274e-34,-0.955559677584354,-17.956458150669253,-1.2007068981414097e-34,0.2815018390462956,-1.7839461681228281,2.3935158233030163e-32,-0.018506858297993742,0.1269090027027389,0,70,255.0,255.0,255.0
289,14.450000000000001,-1.1967579116514902e-34,-0.9415074657085097,-18.04549454501352,1.3845942128259215e-33,0.28059170591550503,-1.777464049477521,3.6251437872571506e-32,-0.01789846693362963,0.1323757431095488,0,70,255.0,255.0,255.0
290,14.5,0.0,-0.9275,-18.1342,3.505073097442975e-33,0.27971199235293265,-1.7707085938118732,4.8567717512112395e-32,-0.01729007556926465,0.13784248351636386,0,70,255.0,255.0,255.0
291,14.55,2.168112261893786e-34,-0.9135367144426283,-18.222562570019456,4.7843344386737534e-33,0.27880540062565645,-1.7637830756313764,2.6027361371180257e-33,-0.018973593521782052,0.1391782437035044,0,70,255.0,255.0,255.0
292,14.600000000000001,4.401292927215524e-34,-0.8996208628690611,-18.310577194429648,3.765346711154781e-33,0.2778146330007544,-1.7567907694415226,-4.3362245237876344e-32,-0.020657111474299453,0.14051400389064495,0,70,255.0,255.0,255.0
293,14.65,5.5504174615903155e-34,-0.88575665407418,-18.39824053383012,4.481099148862172e-34,0.2767396894782265,-1.749731675242312,-8.932722661286908e-32,-0.022340629426816794,0.14184976407778543,0,70,255.0,255.0,255.0
294,14.700000000000001,4.466361330643383e-34,-0.8719482968528657,-18.485549248820394,-5.167375950132178e-33,0.27558057005807274,-1.742605793033744,-1.3529220798786345e-31,-0.024024147379334195,0.14318552426492598,0,70,255.0,255.0,255.0
295,14.75,0.0,-0.8582,-18.5725,-1.30811108839e-32,0.2743372747402932,-1.7354131228158192,-1.8125718936285619e-31,-0.02570766533185198,0.14452128445207535,0,70,255.0,255.0,255.0
296,14.8,-8.091505117900689e-34,-0.8445151184777976,-18.65908810861071,-1.7855379205531974e-32,0.2730610334848432,-1.7280733031220974,-9.713543502420039e-33,-0.0253419848861486,0.14907150329679558,0,70,255.0,255.0,255.0
297,14.850000000000001,-1.6425848823361885e-33,-0.8308935919178105,-18.745303538463176,-1.4052465234142017e-32,0.2718030762516783,-1.7205059724861393,1.6183010235801611e-31,-0.02497630444044522,0.15362172214151584,0,70,255.0,255.0,255.0
298,14.9,-2.0714439969872536e-33,-0.8173345061189251,-18.831134914010285,-1.6723689697307238e-33,0.2705634030407986,-1.7127111309079457,3.3337374821844615e-31,-0.02461062399474185,0.1581719409862359,0,70,255.0,255.0,255.0
299,14.950000000000001,-1.6668687410922047e-33,-0.803836946880026,-18.91657085970493,1.9284909587702774e-32,0.2693420138522041,-1.704688778387516,5.049173940788823e-31,-0.02424494354903847,0.16272215983095617,0,70,255.0,255.0,255.0
300,15.0,0.0,-0.7904,-19.0016,4.881937043815702e-32,0.26813890868589485,-1.69643891492485,6.764610399393124e-31,-0.023879263103335546,0.16727237867567446,0,70,255.0,255.0,255.0
301,15.05,3.0197908209708967e-33,-0.7770236116461802,-19.086211395537717,6.663718238345413e-32,0.2669024654349707,-1.6879877118802198,3.625143787256213e-32,-0.02557846693362882,0.17077574310952712,0,70,255.0,255.0,255.0
302,15.100000000000001,6.130210236623201e-33,-0.7637111694596945,-19.170395851717664,5.24445142254133e-32,0.26558106199253195,-1.6793613406138972,-6.039581641941881e-31,-0.027277670763922096,0.17427910754337975,0,70,255.0,255.0,255.0
303,15.15,7.730734241789981e-33,-0.750466921450119,-19.254144610128748,6.241365964036668e-33,0.2641746983585785,-1.670559801125882,-1.2441677662609156e-30,-0.02897687459421531,0.17778247197723226,0,70,255.0,255.0,255.0
304,15.200000000000001,6.220838831304481e-33,-0.7372951156270287,-19.33744891235989,-7.197226240067895e-32,0.2626833745331104,-1.6615830934161737,-1.884377368327666e-30,-0.030676078424508584,0.18128583641108492,0,70,255.0,255.0,255.0
305,15.25,0.0,-0.7242,-19.4203,-1.821963708687281e-31,0.2611070905161277,-1.6524312174847737,-2.5245869703943938e-30,-0.032375282254802684,0.18478920084493566,0,70,255.0,255.0,255.0
306,15.3,-1.127001277209352e-32,-0.7111848349374805,-19.50268950923843,-2.486933503282846e-31,0.2595051047752742,-1.6431278493570278,-1.352922079878288e-31,-0.031704147379335613,0.18734552426489662,0,70,255.0,255.0,255.0
307,15.350000000000001,-2.2878256064156615e-32,-0.6982489302434092,-19.58461065466619,-1.9572559166751119e-31,0.2579366757781941,-1.6336966650582838,2.2540025544187362e-30,-0.031033012503868543,0.18990184768485754,0,70,255.0,255.0,255.0
308,15.4,-2.885149297017268e-32,-0.6853906080805983,-19.666057045474737,-2.3293094886416015e-32,0.25640180352488734,-1.6241376645885421,4.643297316825216e-30,-0.030361877628401496,0.1924581711048184,0,70,255.0,255.0,255.0
309,15.450000000000001,-2.3216486584125725e-32,-0.6726081906118578,-19.747022290855526,2.686041400150129e-31,0.2549004880153539,-1.614450847947802,7.03259207923178e-30,-0.029690742752934426,0.19501449452477934,0,70,255.0,255.0,255.0
310,15.5,0.0,-0.6599,-19.8275,6.799661130367554e-31,0.2534327292495939,-1.604636215136064,9.421886841638261e-30,-0.02901960787746738,0.1975708179447455,0,70,255.0,255.0,255.0
311,15.55,4.206026026740318e-32,-0.6472650486038968,-19.907483367508586,9.28136218929684e-31,0.2519571154639313,-1.59466889069167,5.049173940787529e-31,-0.030004943549037592,0.20112215983100482,0,70,255.0,255.0,255.0
312,15.600000000000001,8.538281402000326e-32,-0.6347051095666661,-19.9869639296176,7.304578524446311e-31,0.25043223489469013,-1.5845239991529634,-8.412052053480755e-30,-0.030990279220607802,0.20467350171726412,0,70,255.0,255.0,255.0
313,15.65,1.0767523763890073e-31,-0.6222226462274876,-20.06593280797231,8.693101358162728e-32,0.24885808754187053,-1.5742015405199439,-1.7329021501039948e-29,-0.03197561489217798,0.20822484360352328,0,70,255.0,255.0,255.0
314,15.700000000000001,8.664510750519839e-32,-0.6098201219255389,-20.144381124218018,-1.002444297659373e-30,0.24723467340547234,-1.563701514792611,-2.6245990948599455e-29,-0.03296095056374819,0.2117761854897826,0,70,255.0,255.0,255.0
315,15.75,0.0,-0.5975,-20.2223,-2.5376680812782934e-30,0.24556199248549568,-1.5530239219709658,-3.516296039615865e-29,-0.03394628623531992,0.21532752737604,0,70,255.0,255.0,255.0
316,15.8,-1.569710282975192e-31,-0.5852645706469314,-20.299680220727232,-3.463851525390452e-30,0.243850433369,-1.5421485878762882,-1.8843773683271797e-30,-0.034516078424506845,0.21968583641106113,0,70,255.0,255.0,255.0
317,15.850000000000001,-3.186530000158565e-31,-0.573115431489924,-20.376511226863435,-2.726105818111014e-30,0.24211038464304493,-1.5310553383298593,3.139420565950429e-29,-0.03508587061369377,0.22404414544608228,0,70,255.0,255.0,255.0
318,15.9,-4.018494575854302e-31,-0.5610540070094513,-20.452782122636023,-3.244309594400933e-31,0.24034184630763064,-1.51974417333168,6.467278868733458e-29,-0.03565566280288066,0.22840245448110327,0,70,255.0,255.0,255.0
319,15.950000000000001,-3.233639434366679e-31,-0.5490817216859853,-20.528482012272406,3.741173050622479e-30,0.23854481836275687,-1.508215092881749,9.795137171516605e-29,-0.036225454992067585,0.2327607635161244,0,70,255.0,255.0,255.0
320,16.0,0.0,-0.5372,-20.6036,9.470706212076417e-30,0.23671930080842388,-1.4964680969800679,1.312299547429963e-28,-0.03679524718125493,0.23711907255115072,0,70,255.0,255.0,255.0
321,16.05,5.858238529226735e-31,-0.5254102688083767,-20.678126149582496,1.292726988263212e-29,0.23486515106006906,-1.4845607578031683,7.032592079229937e-30,-0.03737074275293667,0.23917449452481956,0,70,255.0,255.0,255.0
322,16.1,1.1892291860434222e-30,-0.5137139644736359,-20.752054362928675,1.0173965419999421e-29,0.23298222653313017,-1.4725506475275856,-1.1716477058453642e-28,-0.0379462383246184,0.2412299164984884,0,70,255.0,255.0,255.0
323,16.150000000000002,1.4997225927028218e-30,-0.5021125257347064,-20.82537950148361,1.2107928241783143e-30,0.23107052722760715,-1.4604377661533194,-2.4136213324830275e-28,-0.03852173389630014,0.24328533847215725,0,70,255.0,255.0,255.0
324,16.2,1.2068106662414978e-30,-0.4906073913305186,-20.89809642669236,-1.39622479048299e-29,0.22913005314350024,-1.4482221136803703,-3.6555949591206022e-28,-0.03909722946798183,0.24534076044582595,0,70,255.0,255.0,255.0
325,16.25,0.0,-0.4792,-20.9702,-3.5345156767027374e-29,0.22716080428080904,-1.4359036901087372,-4.897568585758265e-28,-0.03967272503966468,0.2473961824194948,0,70,255.0,255.0,255.0
326,16.3,-2.1863243833931747e-30,-0.46789195411956064,-21.0416839809428,-4.8245228005138027e-29,0.22515296239072366,-1.4234163809110074,-2.624599094859257e-29,-0.04064095056374938,0.25209618548968576,0,70,255.0,255.0,255.0
327,16.35,-4.438263744157833e-30,-0.45668551061553075,-21.112537721421877,-3.7969755861886664e-29,0.22309670922443403,-1.4106940715597682,4.372648766786413e-28,-0.041609176087834085,0.25679618855987674,0,70,255.0,255.0,255.0
328,16.400000000000002,-5.597040913225857e-30,-0.44558309005172037,-21.182749471429553,-4.518740337273291e-30,0.2209920447819402,-1.3977367620550196,9.007757443058753e-28,-0.04257740161191878,0.26149619163006776,0,70,255.0,255.0,255.0
329,16.45,-4.50387872152931e-30,-0.4345871129919406,-21.252307480958148,5.210781856869729e-29,0.21883896906324224,-1.384544452396762,1.3642866119330762e-27,-0.04354562713600341,0.2661961947002584,0,70,255.0,255.0,255.0
330,16.5,0.0,-0.4237,-21.3212,1.3190992085603307e-28,0.2166374820683399,-1.371117142584994,1.82779747956031e-27,-0.04451385266008878,0.2708961977704547,0,70,255.0,255.0,255.0
331,16.55,8.159473680650025e-30,-0.4129235147133797,-21.389416326646312,1.8005364213792002e-28,0.21442699937703597,-1.3575177185528282,9.795137171514069e-29,-0.04390545499206681,0.27308076351616895,0,70,255.0,255.0,255.0
332,16.6,1.6563825790587908e-29,-0.4022567930642394,-21.456949951383834,1.4170505802754729e-28,0.21224693656913318,-1.3438090662333766,-1.6318947361300287e-27,-0.04329705732404483,0.2752653292618832,0,70,255.0,255.0,255.0
333,16.650000000000002,2.0888441060200608e-29,-0.3916983140584093,-21.523795412798197,1.6864168524914756e-29,0.21009729364463142,-1.3299911856266395,-3.361740843975198e-27,-0.04268865965602286,0.27744989500759737,0,70,255.0,255.0,255.0
334,16.7,1.6808704219875753e-29,-0.38124655670172003,-21.589947249475035,-1.9446902636995926e-28,0.207978070603531,-1.3160640767326175,-5.091586951820244e-27,-0.04208026198800093,0.27963446075331144,0,70,255.0,255.0,255.0
335,16.75,0.0,-0.3709,-21.6554,-4.922945266571049e-28,0.20588926744583147,-1.302027739551309,-6.821433059665415e-27,-0.04147186431997918,0.28181902649902923,0,70,255.0,255.0,255.0
336,16.8,-3.0451570339206925e-29,-0.3606579870269199,-21.720147512471964,-6.719693405465421e-28,0.2037790401011324,-1.2878407448776863,-3.655594959119709e-28,-0.042937229467982105,0.28566076044586886,0,70,255.0,255.0,255.0
337,16.85,-6.18170394181938e-29,-0.3505233171275098,-21.784180873042818,-5.288504762483026e-28,0.2015955444990332,-1.2734616635067217,6.090314067841473e-27,-0.04440259461598503,0.2895024943927085,0,70,255.0,255.0,255.0
338,16.900000000000002,-7.795672332757658e-29,-0.3404996537146397,-21.847490477377683,-6.2937933762386e-29,0.19933878063953384,-1.258890495438415,1.2546187631594916e-26,-0.04586795976398796,0.29334422833954804,0,70,255.0,255.0,255.0
339,16.95,-6.273093815797372e-29,-0.33059066020118016,-21.910066721141696,7.257682869111392e-28,0.1970087485226345,-1.2441272406727675,1.90020611953479e-26,-0.047333324911990785,0.2971859622863874,0,70,255.0,255.0,255.0
340,17.0,0.0,-0.3208,-21.9719,1.8372681857723864e-27,0.19460544814833486,-1.2291718992097767,2.545793475910135e-26,-0.04879869005999371,0.30102769623322523,0,70,255.0,255.0,255.0
341,17.05,1.136468076761777e-28,-0.3111309371789398,-22.032980823465838,2.5078237200482485e-27,0.19215284021843484,-1.2140313019364397,1.3642866119327454e-27,-0.04930562713600529,0.30459619470023797,0,70,255.0,255.0,255.0
342,17.1,2.3070433188218735e-28,-0.30158513842571955,-22.093300156444922,1.9736968469656625e-27,0.18967488543473426,-1.1987122797397525,-2.272936153523586e-26,-0.049812564212016866,0.30816469316725065,0,70,255.0,255.0,255.0
343,17.150000000000002,2.909384522501057e-28,-0.2921638710830294,-22.15284907769109,2.3488756652463014e-28,0.1871715837972331,-1.1832148326197143,-4.682300968240446e-26,-0.050319501288028444,0.3117331916342634,0,70,255.0,255.0,255.0
344,17.2,2.3411504841201913e-28,-0.28286840249355993,-22.211618665958174,-2.708604121274598e-27,0.18464293530593154,-1.167538960576327,-7.091665782957136e-26,-0.05082643836403999,0.31530169010127584,0,70,255.0,255.0,255.0
345,17.25,0.0,-0.2737,-22.2696,-6.856778216432441e-27,0.1820889399608292,-1.1516846636095877,-9.501030597673996e-26,-0.05133337544005201,0.31887018856828675,0,70,255.0,255.0,255.0
346,17.3,-4.241356603655037e-28,-0.2646598642573201,-22.326784393664695,-9.359325539646449e-27,0.1795135990251278,-1.1356660473765465,-5.091586951818985e-27,-0.05168026198800107,0.32187446075335163,0,70,255.0,255.0,255.0
347,17.35,-8.610002881105554e-28,-0.2557489291696103,-22.383164101177503,-7.365936911614347e-27,0.176920913762029,-1.119497217534252,8.482713207310199e-26,-0.05202714853595013,0.3248787329384165,0,70,255.0,255.0,255.0
348,17.400000000000002,-1.0857970856728462e-27,-0.24696806195324025,-22.438731611857968,-8.766123323361278e-28,0.17431088417153273,-1.1031781740827045,1.7474585109802296e-25,-0.052374035083899186,0.32788300512348145,0,70,255.0,255.0,255.0
349,17.45,-8.737292554901029e-28,-0.23831812982458062,-22.493479415025615,1.0108648198187259e-26,0.1716835102536392,-1.0867089170219046,2.6466457012293757e-25,-0.052720921631848223,0.3308872773085461,0,70,255.0,255.0,255.0
350,17.5,0.0,-0.2298,-22.5474,2.558984467995738e-26,0.16903879200834807,-1.0700894463518502,3.5458328914785853e-25,-0.053067808179796616,0.3338915494936199,0,70,255.0,255.0,255.0
351,17.55,1.5828958337858374e-27,-0.22141440579177898,-22.6004856018754,3.4929478438537556e-26,0.16638476368105337,-1.053304508557352,1.900206119534326e-26,-0.05309332491198941,0.33750596228629676,0,70,255.0,255.0,255.0
352,17.6,3.2132968205600344e-27,-0.2131615448958379,-22.652727438845076,2.7490050799491725e-26,0.16372945951714904,-1.03633885012322,-3.16579166757172e-25,-0.053118841644182214,0.3411203750789736,0,70,255.0,255.0,255.0
353,17.650000000000002,4.0522498904412774e-27,-0.20504148110400736,-22.70411647487706,3.271561762819903e-27,0.1610728795166351,-1.0191924710494542,-6.521603947096873e-25,-0.05314435837637501,0.34473478787165046,0,70,255.0,255.0,255.0
354,17.7,3.260801973548392e-27,-0.19705427820811824,-22.75464367393936,-3.7725988671474437e-26,0.15841502367951166,-1.0018653713360557,-9.877416226621788e-25,-0.05316987510856781,0.348349200664327,0,70,255.0,255.0,255.0
355,17.75,0.0,-0.1892,-22.8043,-9.550260050339707e-26,0.15575589200577838,-0.9843575509830221,-1.3233228506146942e-24,-0.053195391840761275,0.35196361345700655,0,70,255.0,255.0,255.0
356,17.8,-5.907447674777846e-27,-0.1814793125755633,-22.85307639883373,-1.303585882145038e-25,0.1530593462506583,-0.9666679183940639,-7.0916657829554e-26,-0.054666438364040566,0.35562169010131534,0,70,255.0,255.0,255.0
357,17.85,-1.1992186994129581e-26,-0.17389529124703668,-22.900963743442205,-1.0259426628635255e-25,0.15028924816937425,-0.9487953819728902,1.1814895349555862e-24,-0.056137484887319865,0.3592797667456242,0,70,255.0,255.0,255.0
358,17.900000000000002,-1.5123202476092269e-26,-0.1664516136307284,-22.947952888633818,-1.2209634718943439e-26,0.14744559776192623,-0.9307399417195009,2.4338957277407263e-24,-0.057608531410599156,0.36293784338993296,0,70,255.0,255.0,255.0
359,17.95,-1.2169478638703469e-26,-0.15915195734294713,-22.994034689216953,1.4079530648771046e-25,0.14452839502831447,-0.9125015976338976,3.686301920525778e-24,-0.05907957793387835,0.3665959200342415,0,70,255.0,255.0,255.0
360,18.0,0.0,-0.152,-23.0392,3.5642055733363093e-25,0.14153763996853852,-0.8940803497160776,4.938708113310918e-24,-0.0605506244571572,0.37025399667854764,0,70,255.0,255.0,255.0
361,18.05,2.2046894865325546e-26,-0.1449987439059672,-23.083440002789697,4.8650487441947755e-25,0.13851385131631336,-0.875495817866399,2.646645701228725e-25,-0.06040092163184774,0.37312727730858775,0,70,255.0,255.0,255.0
362,18.1,4.4755451155958293e-26,-0.13814849011601402,-23.126747187386115,3.828870143459184e-25,0.13549754780535367,-0.8567676219852183,-4.409378973065173e-24,-0.06025121880653827,0.3760005579386278,0,70,255.0,255.0,255.0
363,18.150000000000002,5.64405600139278e-26,-0.13144886437307723,-23.169114370587696,4.556697711295391e-26,0.13248872943565945,-0.8378957620725357,-9.083422516253218e-24,-0.06010151598122881,0.3788738385686679,0,70,255.0,255.0,255.0
364,18.2,4.541711258126548e-26,-0.12489949242009395,-23.210534369192843,-5.254552372793675e-25,0.1294873962072309,-0.8188802381283524,-1.375746605944093e-23,-0.05995181315591935,0.38174711919870774,0,70,255.0,255.0,255.0
365,18.25,0.0,-0.1185,-23.251,-1.3301796288311267e-24,0.1264935481200676,-0.7997210501526657,-1.8431509602628976e-23,-0.059802110330610114,0.3846203998287496,0,70,255.0,255.0,255.0
366,18.3,-8.228013178652435e-26,-0.11225051180056728,-23.2905035900075,-1.8156609094634066e-24,0.12347724848408809,-0.7803888101403391,-9.877416226619329e-25,-0.060849875108568756,0.3886692006643042,0,70,255.0,255.0,255.0
367,18.35,-1.670296176297036e-25,-0.10615314828890599,-23.32903550701334,-1.4289537910973213e-24,0.12040856060921065,-0.7608541300862348,1.645602635730511e-23,-0.0618976398865274,0.3927180014998588,0,70,255.0,255.0,255.0
368,18.400000000000002,-2.106390375796189e-25,-0.100210528876961,-23.36658562901543,-1.7005827373287188e-25,0.11728748449543526,-0.7411170099903526,3.389979433727215e-23,-0.06294540466448603,0.39676680233541345,0,70,255.0,255.0,255.0
369,18.45,-1.6949897168635836e-25,-0.09442527297667766,-23.403143834011676,1.9610256426297596e-24,0.11411402014276217,-0.7211774498526942,5.134356231723795e-23,-0.0639931694424446,0.40081560317096776,0,70,255.0,255.0,255.0
370,18.5,0.0,-0.0888,-23.4387,4.964297957990876e-24,0.11088816755119095,-0.7010354496732566,6.878733029720499e-23,-0.06504093422040291,0.4048644040065268,0,70,255.0,255.0,255.0
371,18.55,3.0707363228077184e-25,-0.08333680889176318,-23.47324483718031,6.776138763434148e-24,0.10764115474733388,-0.6807409415722361,3.68630192052487e-24,-0.0648395779338777,0.40691592003428334,0,70,255.0,255.0,255.0
372,18.6,6.23363019362856e-25,-0.07803571672836103,-23.506772384560534,5.332928150043369e-24,0.1044042097578031,-0.6603438576698276,-6.141472645615525e-23,-0.0646382216473525,0.40896743606203984,0,70,255.0,255.0,255.0
373,18.650000000000002,7.86115590304548e-25,-0.07289622011907727,-23.539277513350605,6.346661178185342e-25,0.10117733258259855,-0.6398441979660315,-1.2651575483283538e-22,-0.06443686536082731,0.4110189520897964,0,70,255.0,255.0,255.0
374,18.7,6.32578774164168e-25,-0.06791781567319594,-23.57075509476045,-7.318647333239667e-24,0.0979605232217205,-0.619241962460849,-1.9161678320951089e-22,-0.06423550907430212,0.41307046811755277,0,70,255.0,255.0,255.0
375,18.75,0.0,-0.0631,-23.6012,-1.8527012203132377e-23,0.09475378167516847,-0.5985371511542771,-2.5671781158619104e-22,-0.06403415278777713,0.4151219841453111,0,70,255.0,255.0,255.0
376,18.8,-1.146014397336563e-24,-0.05844305263237963,-23.63060586127126,-2.5288894144273185e-23,0.09151013252657601,-0.5776554235706786,-1.3757466059437556e-23,-0.06571181315591952,0.4201471191986189,0,70,255.0,255.0,255.0
377,18.85,-2.3264224598217207e-24,-0.05395038479764906,-23.65896135474452,-1.9902758809076148e-23,0.08818260035957642,-0.5565224392344146,2.2920287946731593e-22,-0.06738947352406191,0.42517225425192673,0,70,255.0,255.0,255.0
378,18.900000000000002,-2.9338233236385735e-24,-0.04962619064672865,-23.686253917582157,-2.3686061975412603e-24,0.08477118517416973,-0.5351381981454852,4.721632249940695e-22,-0.0690671338922043,0.43019738930523455,0,70,255.0,255.0,255.0
379,18.95,-2.3608161249703147e-24,-0.045474664330539045,-23.712470986946524,2.731356369032892e-23,0.08127588697035615,-0.5135027003038921,7.151235705208056e-22,-0.07074479426034656,0.43522252435854203,0,70,255.0,255.0,255.0
380,19.0,0.0,-0.0415,-23.7376,6.914375085453863e-23,0.07769670574813521,-0.49161594570963196,9.580839160475594e-22,-0.07242245462848862,0.44024765941185073,0,70,255.0,255.0,255.0
381,19.05,4.27698395706548e-24,-0.037705380578717945,-23.76162931773465,9.437943781365861e-23,0.07409431514636183,-0.4695333641450602,5.134356231722544e-23,-0.07167316944244438,0.4430556031710081,0,70,255.0,255.0,255.0
382,19.1,8.682326819924028e-24,-0.034089944081042,-23.784550996461377,7.427810708626126e-23,0.07052938880389067,-0.4473103853925305,-8.553967914131085e-22,-0.07092388425640014,0.44586354693016556,0,70,255.0,255.0,255.0
383,19.150000000000002,1.0949177704249745e-23,-0.03065181729400708,-23.80635801632077,8.839758672346525e-24,0.06700192672072172,-0.424947009452043,-1.7621371451434425e-21,-0.07017459907035592,0.44867149068932294,0,70,255.0,255.0,255.0
384,19.200000000000003,8.810685725716729e-24,-0.027389127004648038,-23.827043357453448,-1.0193560742808554e-22,0.06351192889685499,-0.4024432363235976,-2.6688774988737765e-21,-0.06942531388431168,0.4514794344484803,0,70,255.0,255.0,255.0
385,19.25,0.0,-0.0243,-23.8466,-2.5804799121502217e-22,0.06005939533229071,-0.37979906600719593,-3.5756178526040454e-21,-0.06867602869826772,0.4542873782076384,0,70,255.0,255.0,255.0
386,19.3,-1.596192143092536e-23,-0.021383425052748272,-23.865021667790135,-3.5222885711036125e-22,0.056592606887976404,-0.35705911984906485,-1.9161678320946358e-22,-0.06999550907430253,0.4553104681175917,0,70,255.0,255.0,255.0
387,19.35,-3.240288481987439e-23,-0.018641838878182306,-23.88230505940998,-2.7720966953596878e-22,0.05305984442486036,-0.3342680191954361,3.1923842861851182e-21,-0.07131498945033736,0.456333558027545,0,70,255.0,255.0,255.0
388,19.400000000000002,-4.0862887493360415e-23,-0.016078540177242192,-23.898447617134757,-3.299042849184484e-23,0.04946110794294257,-0.31142576404630967,6.5763853555797e-21,-0.07263446982637217,0.45735664793749825,0,70,255.0,255.0,255.0
389,19.450000000000003,-3.2881926777896686e-23,-0.01369682765086801,-23.913446783239685,3.8042886602201065e-22,0.04579639744222303,-0.2885323544016857,9.960386424974282e-21,-0.07395395020240698,0.4583797378474515,0,70,255.0,255.0,255.0
390,19.5,0.0,-0.0115,-23.9273,9.6304821400555e-22,0.04206571292270204,-0.2655877902615656,1.334438749436862e-20,-0.07527343057844166,0.45940282775740426,0,70,255.0,255.0,255.0
391,19.55,5.957070176663595e-23,-0.009491319210288717,-23.940000011104793,1.3145359906277862e-21,0.03827125730173228,-0.2423101564586687,7.151235705206285e-22,-0.07650479426034647,0.4717025243584575,0,70,255.0,255.0,255.0
392,19.6,1.2092921245957352e-22,-0.0076739004062283045,-23.9515207658987,1.034560571057614e-21,0.03441523349666729,-0.21841753782571915,-1.1914140353327363e-20,-0.07773615794225129,0.4840022209595108,0,70,255.0,255.0,255.0
393,19.650000000000002,1.5250237226919186e-22,-0.006050821997023528,-23.9618315151402,1.2312195529503245e-22,0.030497641507507042,-0.19390993436271695,-2.4543404277175354e-20,-0.0789675216241561,0.496301917560564,0,70,255.0,255.0,255.0
394,19.700000000000003,1.2271702138587e-22,-0.004625162391879145,-23.9709015095878,-1.4197798566599564e-21,0.02651848133425156,-0.16878734606966206,-3.7172668201023346e-20,-0.08019888530606091,0.5086016141616173,0,70,255.0,255.0,255.0
395,19.75,0.0,-0.0034,-23.9787,-3.5941448648071775e-21,0.02247775297690112,-0.14304977294655638,-4.980193212487043e-20,-0.08143024898796589,0.5209013107626694,0,70,255.0,255.0,255.0
396,19.8,-2.223208856356184e-22,-0.002376098106096699,-23.985212687790675,-4.905915105400783e-21,0.018514363905094124,-0.11768425431627633,-2.6688774988730475e-21,-0.07710531388431166,0.49371943444851824,0,70,255.0,255.0,255.0
397,19.85,-4.513139650184197e-22,-0.0015449594969041826,-23.990491076995227,-3.861032614694486e-21,0.014767221588469843,-0.09367782950170385,4.4464177127124333e-20,-0.07278037878065745,0.4665375581343671,0,70,255.0,255.0,255.0
398,19.900000000000002,-5.69146601583407e-22,-0.000895771834663315,-23.99460312230444,-4.594973926882854e-22,0.011236326027028275,-0.07103049850283896,9.159723175312171e-20,-0.06845544367700322,0.4393556818202159,0,70,255.0,255.0,255.0
399,19.950000000000003,-4.579861587655834e-22,-0.0004177227816149603,-23.9976167784091,5.298690560617816e-21,0.007921677220769424,-0.04974226131968164,1.3873028637911908e-19,-0.06413050857334901,0.41217380550606475,0,70,255.0,255.0,255.0
400,20.0,0.0,-0.0001,-23.9996,1.3413531245223159e-20,0.004823275169693498,-0.02981311795223328,1.8586334100511307e-19,-0.059805573469695075,0.3849919291919154,0,70,255.0,255.0,255.0
401,20.05,8.297128407758377e-22,7.251163467559437e-05,-24.000649237732517,1.8309124430975342e-20,0.0021992870778909184,-0.012952826276247593,9.96038642497158e-21,-0.04515395020240661,0.2894197378475024,0,70,255.0,255.0,255.0
402,20.1,1.6843266476141048e-21,0.00013213839384516906,-24.000974926120417,1.440956988772033e-20,0.0003078801494527724,-0.000871144167482624,-1.659425681551699e-19,-0.03050232693511815,0.19384754650308947,0,70,255.0,255.0,255.0
403,20.150000000000002,2.124084034064436e-21,0.000115509335676946,-24.000815995642053,1.714867615458115e-21,-0.0008509456156209397,0.006431928374061629,-3.418455227353114e-19,-0.015850703667829688,0.09827535515867653,0,70,255.0,255.0,255.0
404,20.200000000000003,1.7092276136764627e-21,5.925351833914791e-05,-24.00041137677579,-1.9774982385811306e-20,-0.001277190217330219,0.008956391348385169,-5.177484773154529e-19,-0.0011990804005412234,0.002703163814263554,0,70,255.0,255.0,255.0
405,20.25,0.0,0.0,-24.0,-5.0059980116085454e-20,-0.0009708536556751118,0.0067022447554883225,-6.936514318955818e-19,0.013452542866746194,-0.09286902753014258,0,70,255.0,255.0,255.0
406,20.3,-3.096530477467732e-21,-3.314843260565945e-05,-23.999771161279266,-6.833058261850059e-20,-0.0003835122166579745,0.0026475594212746843,-3.7172668201013235e-20,0.010041114693938966,-0.06931838583840064,0,70,255.0,255.0,255.0
407,20.35,-6.285992625437999e-21,-4.1194078476470763e-05,-23.99971561852313,-5.377724693618683e-20,3.325781371879896e-05,-0.00022959382835184084,6.193060954935554e-19,0.006629686521131738,-0.04576774414665871,0,70,255.0,255.0,255.0
408,20.400000000000002,-7.927189534674338e-21,-3.266550804445226e-05,-23.999774495127358,-6.3999730691441656e-21,0.000279456435455209,-0.0019292149933912523,1.275784859188124e-18,0.0032182583483245097,-0.022217102454916773,0,70,255.0,255.0,255.0
409,20.450000000000003,-6.378924295940271e-21,-1.6091291741622267e-05,-23.999888914487727,7.380123898262739e-20,0.00035508364855125455,-0.0024513040738435507,1.9322636228826927e-18,-0.0001931698244827182,0.0013335392368251514,0,70,255.0,255.0,255.0
410,20.5,0.0,0.0,-24.0,1.8682638921911865e-19,0.00026013945300694944,-0.0017958610697088233,2.588742386577215e-18,-0.003604597997289703,0.0248841809285654,0,70,255.0,255.0,255.0
411,20.55,1.1556409069095092e-20,8.882095747043942e-06,-24.00006131715042,2.5501320604302704e-19,0.000102761788740974,-0.0007094114088439623,1.3873028637908153e-19,-0.0026905085733492256,0.018573805506028423,0,70,255.0,255.0,255.0
412,20.6,2.34596438541379e-20,1.1037920060714633e-05,-24.000076199787067,2.00699417857027e-19,-8.911404327976926e-06,6.151948089404518e-05,-2.311281813819052e-18,-0.0017764191494087482,0.012263430083491443,0,70,255.0,255.0,255.0
413,20.650000000000002,2.958467410463291e-20,8.752696500863327e-06,-24.000060423848517,2.3885024661118505e-20,-7.488012619990335e-05,0.0005169315995051996,-4.761293914017185e-18,-0.0008623297254682707,0.005953054660954464,0,70,255.0,255.0,255.0
414,20.700000000000003,2.3806469570084615e-20,4.31164862734128e-06,-24.000029765273304,-2.7542997354469836e-19,-9.51443768748052e-05,0.0006568249469895001,-7.21130601421532e-18,5.175969847220647e-05,-0.0003573207615825136,0,70,255.0,255.0,255.0
415,20.75,0.0,0.0,-24.0,-6.972455767603891e-19,-6.970415635268604e-05,0.00048119952334697147,-9.661318114413277e-18,0.0009658491224126188,-0.006667696184119042,0,70,255.0,255.0,255.0
416,20.8,-4.3129105798912627e-20,-2.379950382516331e-06,-23.999983570119063,-9.517222415536074e-19,-2.7534938305921548e-05,0.00019008621410116487,-5.177484773153141e-19,0.000720919599457937,-0.004976836185713056,0,70,255.0,255.0,255.0
417,20.85,-8.755258279111357e-20,-2.9576017663877676e-06,-23.999979582328592,-7.490204244919213e-19,2.387803593108681e-06,-1.648409522434123e-05,8.625821159782648e-18,0.00047599007650325537,-0.0032859761873070704,0,70,255.0,255.0,255.0
418,20.900000000000002,-1.104115068838573e-19,-2.3452779590010317e-06,-23.99998380947859,-8.914012557533038e-20,2.0064069344404652e-05,-0.00013851140462954663,1.7769390796880612e-17,0.00023106055354857357,-0.0015951161889010846,0,70,255.0,255.0,255.0
419,20.950000000000003,-8.884695398439822e-20,-1.1553027677428455e-06,-23.999992024419058,1.0279186551961653e-18,2.5493858947966364e-05,-0.0001759957141144519,2.6912960433978573e-17,-1.3868969406108118e-05,9.574380950490118e-05,0,70,255.0,255.0,255.0
420,21.0,0.0,0.0,-24.0,2.6021559178224376e-18,1.8677172403794736e-05,-0.00012893702367906273,3.6056530071075884e-17,-0.0002587984923607724,0.0017866038079107683,0,70,255.0,255.0,255.0
421,21.05,1.609600141265554e-19,6.377057830213801e-07,-24.000004402373328,3.5518757601714025e-18,7.3779644827121955e-06,-5.093344756069737e-05,1.9322636228821653e-18,-0.00019316982448252276,0.001333539236823802,0,70,255.0,255.0,255.0
422,21.1,3.267506873103164e-19,7.924870048364396e-07,-24.000005470898568,2.7953822801106566e-18,-6.398100444578152e-07,4.416900003319354e-06,-3.219200282531155e-17,-0.0001275411566042731,0.0008804746657368357,0,70,255.0,255.0,255.0
423,21.150000000000002,4.1206135343079626e-19,6.284153351408072e-07,-24.000004338237137,3.3267547764020005e-19,-5.37615117771529e-06,3.711401901298746e-05,-6.631626927350527e-17,-6.191248872602345e-05,0.00042741009464986935,0,70,255.0,255.0,255.0
424,21.200000000000003,3.3158134636750793e-19,3.0956244363011183e-07,-24.000002137050473,-3.836244647239964e-18,-6.831058917060249e-06,4.715790946830688e-05,-1.0044053572169899e-16,3.7161791522262195e-06,-2.5654476437096977e-05,0,70,255.0,255.0,255.0
425,21.25,0.0,0.0,-24.0,-9.711378094529361e-18,-5.00453326249292e-06,3.454857136927942e-05,-1.345648021698903e-16,6.93448470304712e-05,-0.0004787190475240312,0,70,255.0,255.0,255.0
426,21.3,-6.007109507073091e-19,-1.7087274956919033e-07,-23.99999882038762,-1.3255780799132004e-17,-1.9769196249272407e-06,1.3647576141624541e-05,-7.21130601421338e-18,5.175969847215425e-05,-0.000357320761582152,0,70,255.0,255.0,255.0
427,21.35,-1.219450166450152e-18,-2.1234625295799138e-07,-23.99999853407715,-1.0432508695950707e-17,1.714365847225783e-07,-1.183504788936288e-06,1.2014219014146353e-16,3.4174549913837294e-05,-0.00023592247564027276,0,70,255.0,255.0,255.0
428,21.400000000000002,-1.5378339068393277e-18,-1.683833815621968e-07,-23.99999883757286,-1.2415617849854783e-18,1.440535366456537e-06,-9.94467142240307e-06,2.4749568629714047e-16,1.6589401355520345e-05,-0.00011452418969839351,0,70,255.0,255.0,255.0
429,21.450000000000003,-1.2374784314856345e-18,-8.29470067776001e-08,-23.999999427379052,1.4317059933763692e-17,1.8303767202746357e-06,-1.2635923758775809e-05,3.7484918245281736e-16,-9.957472027966112e-07,6.874096243485704e-06,0,70,255.0,255.0,255.0
430,21.5,0.0,0.0,-24.0,3.6243356460295006e-17,1.3409606461769402e-06,-9.257261798054938e-06,5.022026786084851e-16,-1.858089576111231e-05,0.00012827238218535633,0,70,255.0,255.0,255.0
431,21.55,2.241883788702681e-18,4.578521525538119e-08,-24.000000316076182,4.9471247436356603e-17,5.297140169967667e-07,-3.6568570058008056e-06,2.6912960433971254e-17,-1.386896940609417e-05,9.574380950480577e-05,0,70,255.0,255.0,255.0
432,21.6,4.5510499784902916e-18,5.6898006995525975e-08,-24.000000392792845,3.8934652503692176e-17,-4.593629443249656e-08,3.171191524257754e-07,-4.483767577405426e-16,-9.15704305107603e-06,6.321523682425522e-05,0,70,255.0,255.0,255.0
433,21.650000000000002,5.739274273926514e-18,4.5118191107980024e-08,-24.00000031147141,4.633571662301713e-18,-3.859902881108494e-07,2.6646666766248044e-06,-9.236664759150565e-16,-4.445116696057891e-06,3.0686664143704656e-05,0,70,255.0,255.0,255.0
434,21.700000000000003,4.6183323795750286e-18,2.222558348028904e-08,-24.00000015343332,-5.3431995087814786e-17,-4.90447964038292e-07,3.385785566796284e-06,-1.3989561940895704e-15,2.668096589602489e-07,-1.8419085368458926e-06,0,70,255.0,255.0,255.0
435,21.75,0.0,0.0,-24.0,-1.3526204774665065e-16,-3.5930932221484163e-07,2.480475822940335e-06,-1.8742459122640505e-15,4.978736013978057e-06,-3.4370481217394144e-05,0,70,255.0,255.0,255.0
436,21.8,-8.366824204103413e-18,-1.2268111452334442e-08,-23.99999991530764,-1.846292089462944e-16,-1.4193644305982602e-07,9.798518815786812e-07,-1.0044053572167186e-16,3.7161791522224447e-06,-2.565447643707114e-05,0,70,255.0,255.0,255.0
437,21.85,-1.6984749747511012e-17,-1.5245775024112508e-08,-23.999999894751475,-1.4530610131881796e-16,1.2308593007408111e-08,-8.497182076681595e-08,1.6733648408207068e-15,2.4536222904668328e-06,-1.693847165674814e-05,0,70,255.0,255.0,255.0
438,21.900000000000002,-2.141926318886673e-17,-1.2089382869723316e-08,-23.999999916541487,-1.7292724864221343e-17,1.0342578598686075e-07,-7.139952840961566e-07,3.4471702173630852e-15,1.1910654287112212e-06,-8.222466876425138e-06,0,70,255.0,255.0,255.0
439,21.950000000000003,-1.7235851086814476e-17,-5.955327143555982e-09,-23.999999958887667,1.9941092041749542e-16,1.3141513587853186e-07,-9.072185084093411e-07,5.220975593905464e-15,-7.149143304439111e-08,4.935379038978663e-07,0,70,255.0,255.0,255.0
440,22.0,0.0,0.0,-24.0,5.048048345263076e-16,9.627664268242622e-08,-6.64641493706402e-07,6.994780970447717e-15,-1.3340482947999133e-06,9.209542684220244e-06,0,70,255.0,255.0,255.0
441,22.05,3.122541302771098e-17,3.287230553956572e-09,-24.000000022693246,6.890455883488211e-16,3.80317552425374e-08,-2.6255052051392037e-07,3.748491824527156e-16,-9.957472027956064e-07,6.874096243478794e-06,0,70,255.0,255.0,255.0
442,22.1,6.338794901155377e-17,4.085093100924058e-09,-24.000000028201256,5.422897527715797e-16,-3.2980775971358366e-09,2.276813064148712e-08,-6.2450826055422855e-15,-6.574461107912996e-07,4.538649802737344e-06,0,70,255.0,255.0,255.0
443,22.150000000000002,7.99377784815404e-17,3.239340370913247e-09,-24.000000022362638,6.453732779458349e-17,-2.7712855836593486e-08,1.9131445975982044e-07,-1.2865014393537287e-14,-3.191450187869928e-07,2.203203361995894e-06,0,70,255.0,255.0,255.0
444,22.200000000000003,6.432507196768288e-17,1.595725093934933e-09,-24.00000001101602,-7.442116865821674e-16,-3.521257947583555e-08,2.430884668410796e-07,-1.948494618153229e-14,1.91560732173141e-08,-1.3224307874555583e-07,0,70,255.0,255.0,255.0
445,22.25,0.0,0.0,-24.0,-1.88395729035858e-15,-2.5797248514863308e-08,1.7809015188527354e-07,-2.6104877969526808e-14,3.574571652215968e-07,-2.4676895194868397e-06,0,70,255.0,255.0,255.0
446,22.3,-1.165348279067405e-16,-8.808107634918492e-10,-23.999999993919364,-2.5715531444489893e-15,-1.0190577910323634e-08,7.035020047700002e-08,-1.3989561940891891e-15,2.668096589599813e-07,-1.84190853684404e-06,0,70,255.0,255.0,255.0
447,22.35,-2.3656704629870403e-16,-1.0945973795837262e-09,-23.999999992443495,-2.023852909767501e-15,8.837173811352006e-10,-6.100701799133085e-09,2.330696558134843e-14,1.761621526983658e-07,-1.2161275542012405e-06,0,70,255.0,255.0,255.0
448,22.400000000000002,-2.983318507372948e-16,-8.679786139296753e-10,-23.99999999400795,-2.4085658631411325e-16,7.425637359513198e-09,-5.126255494312579e-08,4.801288735678604e-14,8.551464643675035e-08,-5.903465715584409e-07,0,70,255.0,255.0,255.0
449,22.450000000000003,-2.400644367839171e-16,-4.275732321837441e-10,-23.999999997048267,2.777435825911174e-15,9.435182024810353e-09,-6.513535895497804e-08,7.271880913222366e-14,-5.1328598248651836e-09,3.5434411084358665e-08,0,70,255.0,255.0,255.0
450,22.5,0.0,0.0,-24.0,7.031024326908011e-15,6.912351377027014e-09,-4.771911383469215e-08,9.742473090765952e-14,-9.578036608647422e-08,6.612153937271138e-07,0,70,255.0,255.0,255.0
451,22.55,4.3491389859925084e-16,2.360125000108244e-10,-24.000000001629303,9.597166989447137e-15,2.7305563987571245e-09,-1.885028139407976e-08,5.220975593904039e-15,-7.149143304431901e-08,4.935379038973655e-07,0,70,255.0,255.0,255.0
452,22.6,8.828802361832621e-16,2.932964174108462e-10,-24.00000000202476,7.553121886298423e-15,-2.367919274049877e-10,1.6346765550451e-09,-8.698277971985144e-14,-4.72025000021638e-08,3.258604140676172e-07,0,70,255.0,255.0,255.0
453,22.650000000000002,1.1133896244676392e-15,2.3257408480545514e-10,-24.000000001605564,8.988890174618677e-16,-1.989693601459322e-09,1.3735760012682427e-08,-1.791865350336069e-13,-2.291356696000859e-08,1.581829242378689e-07,0,70,255.0,255.0,255.0
454,22.700000000000003,8.95932675167985e-16,1.145678348000409e-10,-24.000000000790912,-1.0365531617062526e-14,-2.5281486234058784e-09,1.745296897883222e-08,-2.713902903473624e-13,1.37536608214662e-09,-9.494565591879363e-09,0,70,255.0,255.0,255.0
455,22.75,0.0,0.0,-24.0,-2.6240140017273464e-14,-1.8521569932447508e-09,1.2786303453495087e-08,-3.635940456611113e-13,2.5664299124300103e-08,-1.7717205542161582e-07,0,70,255.0,255.0,255.0
456,22.8,-1.623120766490263e-15,-6.323923655144845e-11,-23.999999999563432,-3.581711481333956e-14,-7.316476847048634e-10,5.0509250993190295e-09,-1.9484946181527006e-14,1.915607321729475e-08,-1.322430787454221e-07,0,70,255.0,255.0,255.0
457,22.85,-3.294953898434345e-15,-7.858829005965867e-11,-23.99999999945747,-2.8188634635426195e-14,6.345032848475189e-11,-4.380044210473105e-10,3.246241532980573e-13,1.2647847310289403e-08,-8.73141020692284e-08,0,70,255.0,255.0,255.0
458,22.900000000000002,-4.15522664713326e-15,-6.231772529214445e-11,-23.999999999569788,-3.354699483533364e-15,5.331370463240947e-10,-3.6804851076039335e-09,6.687332527776416e-13,6.139621403284052e-09,-4.238512539303469e-08,0,70,255.0,255.0,255.0
459,22.950000000000003,-3.3436662638880233e-15,-3.069810701641975e-11,-23.999999999788074,3.8684690642338935e-14,6.774124688131659e-10,-4.676516960350839e-09,1.012842352257226e-12,-3.686045037212965e-10,2.5438512831590263e-09,0,70,255.0,255.0,255.0
460,23.0,0.0,0.0,-24.0,9.792953574218584e-14,4.962765959519885e-10,-3.426099979288197e-09,1.3569514517367857e-12,-6.8768304107261915e-09,4.747282795934954e-08,0,70,255.0,255.0,255.0
461,23.05,6.057569167361802e-15,1.6944446194969394e-11,-24.00000000011698,1.336712922639111e-13,1.9603434006232955e-10,-1.3534190031963545e-09,7.271880913220405e-14,-5.132859824859997e-09,3.5434411084322984e-08,0,70,255.0,255.0,255.0
462,23.1,1.2296935357554116e-14,2.105674282778843e-11,-24.000000000145373,1.0520141665540633e-13,-1.7009386534018468e-11,1.173411291441518e-10,-1.2115138334723776e-12,-3.3888892389938024e-09,2.3395994209296433e-08,0,70,255.0,255.0,255.0
463,23.150000000000002,1.5507516964065408e-14,1.6696816363122726e-11,-24.00000000011528,1.2519908916671591e-14,-1.4285458383705554e-10,9.861804177333227e-10,-2.49574647607696e-12,-1.6449186531276077e-09,1.1357577334269882e-08,0,70,255.0,255.0,255.0
464,23.200000000000003,1.2478732380384111e-14,8.22459326563788e-12,-24.000000000056787,-1.443732309522932e-13,-1.8150125184678156e-10,1.253098862571155e-09,-3.779979118681541e-12,9.905193273858666e-11,-6.808395407566758e-10,0,70,255.0,255.0,255.0
465,23.25,0.0,0.0,-24.0,-3.654780029514699e-13,-1.3294939056320315e-10,9.18096463657701e-10,-5.064211761286031e-12,1.8430225186046575e-09,-1.271925641578236e-08,0,70,255.0,255.0,255.0
466,23.3,-2.2607155902956943e-14,-4.5385482284291314e-12,-23.99999999996865,-4.988680542423048e-13,-5.248967554445479e-11,3.6275091346638756e-10,-2.7139029034728843e-13,1.3753660821452316e-09,-9.494565591869862e-09,0,70,255.0,255.0,255.0
467,23.35,-4.5892787531782115e-14,-5.638681251495086e-12,-23.999999999961037,-3.92617031986199e-13,4.58721765132194e-12,-3.136009552929865e-11,4.521431180591454e-12,9.077096456858054e-10,-6.269874767957365e-09,0,70,255.0,255.0,255.0
468,23.400000000000002,-5.787484120912835e-14,-4.4695401603464596e-12,-23.999999999969102,-4.672493618315295e-14,3.828128902412703e-11,-2.64236563329358e-10,9.314252651530197e-12,4.400532092263793e-10,-3.045183944044867e-09,0,70,255.0,255.0,255.0
469,23.450000000000003,-4.657126325764841e-14,-2.200266046131859e-12,-23.999999999984773,5.388082331668341e-13,4.859253857396048e-11,-3.3587848993378954e-10,1.4107074122468939e-11,-2.760322723304663e-11,1.7950687986763052e-10,0,70,255.0,255.0,255.0
470,23.5,0.0,0.0,-24.0,1.3639824760636937e-12,3.552096630082411e-11,-2.4628587534260685e-10,1.8899895593407343e-11,-4.952596636924395e-10,3.4041977037798977e-09,0,70,255.0,255.0,255.0
471,23.55,8.437105444446597e-14,1.2097467187471276e-12,-24.000000000008416,1.861800924705308e-12,1.392436211548957e-11,-9.758465066919581e-11,1.0128423522569519e-12,-3.6860450372092975e-10,2.5438512831564596e-09,0,70,255.0,255.0,255.0
472,23.6,1.7127421476957438e-13,1.4979821781919047e-12,-24.000000000010473,1.4652667112893907e-12,-1.3394840712693886e-12,8.099252973042731e-12,-1.687421088889344e-11,-2.4194934374942e-10,1.6835048625330216e-09,0,70,255.0,255.0,255.0
473,23.650000000000002,2.1599184787244805e-13,1.1813442782631142e-12,-24.00000000000832,1.7437983581594006e-13,-1.0270572259452768e-11,7.076583558410874e-11,-3.476126413004383e-11,-1.1529418377791029e-10,8.231584419095836e-10,0,70,255.0,255.0,255.0
474,23.700000000000003,1.738063206502096e-13,5.764709188895405e-13,-24.000000000004118,-2.010859701715042e-12,-1.2868902449060576e-11,9.041509716400225e-11,-5.264831737119422e-11,1.1360976193599446e-11,-3.7187978713854554e-11,0,70,255.0,255.0,255.0
475,23.75,0.0,0.0,-24.0,-5.090451901303305e-12,-9.134474640093286e-12,6.704703771272647e-11,-7.053537061234332e-11,1.3801613616510026e-10,-8.975343993372314e-10,0,70,255.0,255.0,255.0
476,23.8,-3.148770618749069e-13,-3.004386465593797e-13,-23.99999999999768,-6.948335644578928e-12,-3.207772917503512e-12,2.758768921039571e-11,-3.77997911868052e-12,9.905193273848732e-11,-6.808395407559765e-10,0,70,255.0,255.0,255.0
477,23.85,-6.392040715465153e-13,-3.532474612725341e-13,-23.999999999997062,-5.4684498131713626e-12,7.70718633755587e-13,-1.0369163628721443e-12,6.297541237498228e-11,6.008772931187438e-11,-4.6414468217472165e-10,0,70,255.0,255.0,255.0
478,23.900000000000002,-8.060925502806637e-13,-2.5583695270599834e-13,-23.999999999997602,-6.507944070806099e-13,2.8010000136840116e-12,-1.882677900707712e-11,1.297308038686451e-10,2.1123525885261448e-11,-2.474498235934668e-10,0,70,255.0,255.0,255.0
479,23.950000000000003,-6.486540193431898e-13,-1.0561762942630722e-13,-23.999999999998764,7.504630573693331e-12,2.8830712222817606e-12,-2.5781898722219158e-11,1.964861953623079e-10,-1.784067754135149e-11,-3.075496501221189e-11,0,70,255.0,255.0,255.0
480,24.0,0.0,0.0,-24.0,1.8997825129149525e-11,1.0169322595490391e-12,-2.1902275508299005e-11,2.6324158685596597e-10,-5.680488096796166e-11,1.8593989356902754e-10,0,70,255.0,255.0,255.0
481,24.05,1.1751371930551614e-12,-7.992132509608563e-15,-24.000000000000867,2.5931541653610402e-11,-1.0932704454755233e-12,-1.2766106172387034e-11,1.4107074122465144e-11,-2.7603227233019637e-11,1.7950687986744613e-10,0,70,255.0,255.0,255.0
482,24.1,2.3855420714164867e-12,-8.499233310176818e-14,-24.00000000000128,2.0408532541396057e-11,-1.743390463752964e-12,-3.9515875215541355e-12,-2.350274386110357e-10,1.5984265019223864e-12,1.7307386616586476e-10,0,70,255.0,255.0,255.0
483,24.150000000000002,3.008378353250207e-12,-1.5799646743912175e-13,-24.000000000001265,2.4287977925064826e-12,-9.334277952832828e-13,4.541280444199687e-12,-4.841619513445366e-10,3.0800080236864416e-11,1.6664085246428335e-10,0,70,255.0,255.0,255.0
484,24.200000000000003,2.420809756722549e-12,-1.5400040118431198e-13,-24.00000000000083,-2.800766259305829e-11,1.336617559933521e-12,1.2712497724874437e-11,-7.332964640780373e-10,6.000173397180643e-11,1.6020783876270198e-10,0,70,255.0,255.0,255.0
485,24.25,0.0,0.0,-24.0,-7.090084861529479e-11,5.066745601897129e-12,2.0562064320469567e-11,-9.824309768115204e-10,8.920338770674636e-11,1.5377482506112104e-10,0,70,255.0,255.0,255.0
486,24.3,-4.385671710345739e-12,3.3240717659781394e-13,-23.99999999999886,-9.677783096986267e-11,7.580854699405605e-12,2.347673547915243e-11,-5.264831737117998e-11,1.1360976193591213e-11,-3.718797871380823e-11,0,70,255.0,255.0,255.0
487,24.35,-8.90296421411943e-12,6.932167936796067e-13,-23.99999999999781,-7.616568035241286e-11,6.202843221256267e-12,1.6843266449088693e-11,8.771343420691604e-10,-6.648143531956393e-11,-2.281507824887375e-10,0,70,255.0,255.0,255.0
488,24.400000000000002,-1.1227420862720164e-11,8.878228224624851e-13,-23.999999999997335,-9.064396762945356e-12,9.327111674491164e-13,6.616572302783464e-13,1.8069170015095009e-09,-1.4432384683271909e-10,-4.191135862636668e-10,0,70,255.0,255.0,255.0
489,24.450000000000003,-9.034585007547003e-12,7.216192341635552e-13,-23.9999999999979,1.045260197985398e-10,-8.229541462015844e-12,-2.506809217727859e-11,2.736699660949841e-09,-2.2216625834587422e-10,-6.10076390038596e-10,0,70,255.0,255.0,255.0
490,24.5,0.0,0.0,-24.0,2.646055693320296e-10,-2.1283914667137553e-11,-6.034598177357926e-11,3.6664823203901157e-09,-3.0000866985902376e-10,-8.010391938135118e-10,0,70,255.0,255.0,255.0
491,24.55,1.6367549648327796e-11,-1.3216365738816472e-12,-24.0000000000037,3.611797822258403e-10,-2.923014835214689e-11,-8.114083574422268e-11,1.9648619536225477e-10,-1.784067754134526e-11,-3.0754965012213335e-11,0,70,255.0,255.0,255.0
492,24.6,3.322631478506124e-11,-2.687874841616659e-12,-24.00000000000747,2.842541888682554e-10,-2.3067982421272102e-11,-6.342147827480064e-11,-3.273509929665606e-09,2.6432731477633325e-10,7.395292637890851e-10,0,70,255.0,255.0,255.0
493,24.650000000000002,4.1901305097630443e-11,-3.3932948224108184e-12,-24.0000000000094,3.382878925927492e-11,-2.797416874513193e-12,-7.187909365313103e-12,-6.743506054693467e-09,5.464953070940119e-10,1.5098134925903833e-09,0,70,255.0,255.0,255.0
494,24.700000000000003,3.371753027346548e-11,-2.73247653546991e-12,-24.000000000007546,-3.900964166011009e-10,3.1581548288129856e-11,8.755987098423985e-11,-1.0213502179721328e-08,8.286632994116903e-10,2.280097721391682e-09,0,70,255.0,255.0,255.0
495,24.75,0.0,0.0,-24.0,-9.875214287128237e-10,8.006891306665308e-11,2.208218627738475e-10,-1.3683498304748939e-08,1.1108312917293486e-09,3.050381950192926e-09,0,70,255.0,255.0,255.0
496,24.8,-6.108452688296544e-11,4.954139118928774e-12,-23.99999999998635,-1.3479412979334983e-09,1.0933973870918193e-10,3.010866074977383e-10,-7.332964640778382e-10,6.000173397178966e-11,1.6020783876266116e-10,0,70,255.0,255.0,255.0
497,24.85,-1.2400229492612553e-10,1.0058282572787027e-11,-23.9999999999723,-1.0608510751206086e-09,8.606908646383211e-11,2.3684264665011384e-10,1.2216905376593263e-08,-9.908278237857693e-10,-2.7299662726676037e-09,0,70,255.0,255.0,255.0
498,24.900000000000002,-1.563777995278016e-10,1.2685356467180785e-11,-23.999999999965077,-1.2625076027415467e-10,1.0256956330603617e-11,2.8089980230974125e-11,2.5167107217264362e-08,-2.0416573815433284e-09,-5.620140384097868e-09,0,70,255.0,255.0,255.0
499,24.950000000000003,-1.2583553608631496e-10,1.0208286907716079e-11,-23.9999999999719,1.4558596466058636e-09,-1.1809665169050364e-10,-3.25171391759681e-10,3.8117309057935464e-08,-3.092486939300887e-09,-8.510314495528133e-09,0,70,255.0,255.0,255.0
500,25.0,0.0,0.0,-24.0,3.685480145519265e-09,-2.9899173759947473e-10,-8.229414693218107e-10,5.106751089860565e-08,-4.14331649705837e-09,-1.1400488606958192e-08,0,70,255.0,255.0,255.0
501,25.05,2.2797055788353391e-10,-1.8494919901833448e-11,-24.0000000000509,5.030585409508152e-09,-4.081288064845808e-10,-1.1232055942467307e-09,2.7366996609491062e-09,-2.2216625834581347e-10,-6.100763900384323e-10,0,70,255.0,255.0,255.0
502,25.1,4.6278286491944075e-10,-3.754525544953144e-11,-24.00000000010333,3.959150111614179e-09,-3.2120836343405634e-10,-8.839491083256545e-10,-4.5594111576707435e-08,3.698983980366743e-09,1.0180335826881327e-08,0,70,255.0,255.0,255.0
503,25.150000000000002,5.836098930135759e-10,-4.7348131046312314e-11,-24.000000000130306,4.711742518373433e-10,-3.82304084479012e-11,-1.0517201155858324e-10,-9.392492281436397e-08,7.6201342190793e-09,2.0970748043801088e-08,0,70,255.0,255.0,255.0
504,25.200000000000003,4.69624614071794e-10,-3.8100671095394393e-11,-24.00000000010485,-5.433342169822353e-09,4.408050584738846e-10,1.2131256960544843e-09,-1.4225573405202052e-07,1.1541284457791856e-08,3.1761160260720844e-08,0,70,255.0,255.0,255.0
505,25.25,0.0,0.0,-24.0,-1.3754399153364235e-08,1.1158980373312457e-09,3.0709440145133952e-09,-1.9058654528967362e-07,1.5462434696504137e-08,4.255157247763983e-08,0,70,255.0,255.0,255.0
506,25.3,-8.507977046511703e-10,6.902554048840501e-11,-23.99999999981004,-1.8774400340099112e-08,1.5231754872291419e-09,4.191735769489183e-09,-1.0213502179718562e-08,8.286632994114682e-10,2.280097721391067e-09,0,70,255.0,255.0,255.0
507,25.35,-1.7271291647516377e-09,1.4012273922533872e-10,-23.99999999961439,-1.4775749371336103e-08,1.1987643672723936e-09,3.298953786652504e-09,1.701595409302365e-07,-1.3805108097681201e-08,-3.79913770348577e-08,0,70,255.0,255.0,255.0
508,25.400000000000002,-2.178061772526502e-09,1.7670716771806856e-10,-23.999999999513705,-1.7584462470752208e-09,1.4266467746100195e-10,3.925980660033581e-10,3.505325840401915e-07,-2.8438879494773867e-08,-7.826285179110648e-08,0,70,255.0,255.0,255.0
509,25.450000000000003,-1.7526629202008624e-09,1.421943974738615e-10,-23.999999999608686,2.0277509032683557e-08,-1.6451235822050336e-09,-4.527331392458256e-09,5.309056271501466e-07,-4.307265089186654e-08,-1.1853432654735523e-07,0,70,255.0,255.0,255.0
510,25.5,0.0,0.0,-24.0,5.133211646793768e-08,-4.164600411725508e-09,-1.146083458873177e-08,7.112786702600889e-07,-5.7706422288958166e-08,-1.588058013036011e-07,0,70,255.0,255.0,255.0
511,25.55,3.1752202607211473e-09,-2.576072420517866e-10,-24.000000000708926,7.00670159508883e-08,-5.684573142431985e-09,-1.5643737483710003e-08,3.8117309057925095e-08,-3.092486939300056e-09,-8.51031449552583e-09,0,70,255.0,255.0,255.0
512,25.6,6.445733794087109e-09,-5.229457014518235e-10,-24.000000001439126,5.514384737373023e-08,-4.473849105655519e-09,-1.2311866038284362e-08,-6.350440521442387e-07,5.1521448410358054e-08,1.4178517231254945e-07,0,70,255.0,255.0,255.0
513,25.650000000000002,8.128637197092432e-09,-6.594805398259617e-10,-24.000000001814865,6.562610736463508e-09,-5.324283013961058e-10,-1.4652202524548521e-09,-1.3082054133464027e-06,1.0613538376001617e-07,2.9208065912062476e-07,0,70,255.0,255.0,255.0
514,25.700000000000003,6.541027066731652e-09,-5.306769188000517e-10,-24.000000001460403,-7.567669396091189e-08,6.139689270346249e-09,1.6896199873778537e-08,-1.9813667745485662e-06,1.6074931910967427e-07,4.423761459287e-07,0,70,255.0,255.0,255.0
515,25.75,0.0,0.0,-24.0,-1.9157406671838648e-07,1.5542503609570787e-08,4.277239434041368e-08,-2.654528135750682e-06,2.1536325445932849e-07,5.926716327367648e-07,0,70,255.0,255.0,255.0
516,25.8,-1.1850083338233418e-08,9.614034277187413e-10,-23.99999999735425,-2.61493663463454e-07,2.1215117082498795e-08,5.838321416535082e-08,-1.4225573405198203e-07,1.1541284457788732e-08,3.176116026071228e-08,0,70,255.0,255.0,255.0
517,25.85,-2.40558060115968e-08,1.9516600665819553e-09,-23.999999994629103,-2.0579964012358488e-07,1.669663205534967e-08,4.5948510366484944e-08,2.370016667646718e-06,-1.9228068554375102e-07,-5.291493122153402e-07,0,70,255.0,255.0,255.0
518,25.900000000000002,-3.033648701584323e-08,2.4612149915857786e-09,-23.999999993226826,-2.4491996698778905e-08,1.98704852812342e-09,5.4682829438160405e-09,4.882289069345418e-06,-3.961026555452908e-07,-1.090059784691393e-06,0,70,255.0,255.0,255.0
519,25.950000000000003,-2.4411445346725743e-08,1.9805132777263456e-09,-23.9999999945497,2.8242926681096386e-07,-2.291363349917997e-08,-6.30574681026559e-08,7.394561471044118e-06,-5.999246255468305e-07,-1.6509702571674452e-06,0,70,255.0,255.0,255.0
520,26.0,0.0,0.0,-24.0,7.149641504056082e-07,-5.8005414026557635e-08,-1.5962874277292296e-07,9.906833872742638e-06,-8.037465955483561e-07,-2.2118807296434577e-06,0,70,255.0,255.0,255.0
521,26.05,4.422511309221252e-08,-3.5880064688231785e-09,-24.00000000987406,9.75907637902928e-07,-7.917589518756323e-08,-2.1788911917769333e-07,5.309056271500015e-07,-4.3072650891855025e-08,-1.1853432654732348e-07,0,70,255.0,255.0,255.0
522,26.1,8.97774902523001e-08,-7.2836945648759974e-09,-24.000000020044457,7.68054713120609e-07,-6.23126791157432e-08,-1.7148217542765547e-07,-8.845022618442635e-06,7.17601293764646e-07,1.9748120765488108e-06,0,70,255.0,255.0,255.0
523,26.150000000000002,1.1321731086628047e-07,-9.185379426517153e-09,-24.00000002527782,9.140537605865164e-08,-7.415765811097587e-09,-2.0407911522809436e-08,-1.822095086403527e-05,1.478275238421147e-06,4.068158479644945e-06,0,70,255.0,255.0,255.0
524,26.200000000000003,9.110475432017131e-08,-7.391376192105329e-09,-24.000000020340792,-1.0540403732829444e-06,8.55148447263736e-08,2.35333672536845e-07,-2.759687910962791e-05,2.238949183077648e-06,6.161504882741079e-06,0,70,255.0,255.0,255.0
525,26.25,0.0,0.0,-24.0,-2.668282534904046e-06,2.1647915249665976e-07,5.957425767512781e-07,-3.697280735521988e-05,2.9996231277340957e-06,8.254851285837066e-06,0,70,255.0,255.0,255.0
526,26.3,-1.6505036903061667e-07,1.3390622447573974e-08,-23.999999963149506,-3.642136888148258e-06,2.95488463667754e-07,8.131732625454223e-07,-1.9813667745480364e-06,1.6074931910963092e-07,4.4237614592857973e-07,0,70,255.0,255.0,255.0
527,26.35,-3.3505415499760354e-07,2.718311819292204e-08,-23.99999992519307,-2.8664192123588523e-06,2.325540844076231e-07,6.399801913441368e-07,3.301007380612381e-05,-2.678124489514834e-06,-7.370098993979906e-06,0,70,255.0,255.0,255.0
528,26.400000000000002,-4.2253275644927867e-07,3.428030271448283e-08,-23.999999905661884,-3.411295075358301e-07,2.767601471626693e-08,7.616336314742141e-08,6.800151438679565e-05,-5.516998298139298e-06,-1.5182574133888389e-05,0,70,255.0,255.0,255.0
529,26.450000000000003,-3.4000757193395945e-07,2.7584991490694973e-08,-23.99999992408713,3.93373222632081e-06,-3.191457454063146e-07,-8.782772220447241e-07,0.0001029929549674675,-8.355872106763764e-06,-2.2995049273796878e-05,0,70,255.0,255.0,255.0
530,26.5,0.0,0.0,-24.0,9.958165989210577e-06,-8.079111959600814e-07,-2.2233415642321895e-06,0.00013798439554813685,-1.1194745915388028e-05,-3.0807524413704795e-05,0,70,255.0,255.0,255.0
531,26.55,6.159763630302542e-07,-4.997448332147272e-08,-24.00000013752792,1.3592639914690103e-05,-1.102777959483453e-06,-3.034803931003996e-06,7.3945614710421085e-06,-5.999246255466707e-07,-1.650970257166995e-06,0,70,255.0,255.0,255.0
532,26.6,1.2504391297381141e-06,-1.0144877820681216e-07,-24.000000279183265,1.0697622136314797e-05,-8.679036585147492e-07,-2.3884385899488908e-06,-0.00012319527260605263,9.994896664294687e-06,2.7505583899370805e-05,0,70,255.0,255.0,255.0
533,26.650000000000002,1.5769137149308336e-06,-1.2793583143141414e-07,-24.000000352074647,1.2731126540846619e-06,-1.0328829305396968e-07,-2.842455410668763e-07,-0.00025378510668314737,2.0589717954136042e-05,5.6662138055908604e-05,0,70,255.0,255.0,255.0
534,26.700000000000003,1.2689255334156662e-06,-1.0294858977067459e-07,-24.00000028331069,-1.4680888532000304e-05,1.1910681368988844e-06,3.27777521564205e-06,-0.0003843749407602421,3.11845392439774e-05,8.58186922124464e-05,0,70,255.0,255.0,255.0
535,26.75,0.0,0.0,-24.0,-3.716438142193826e-05,3.015165631343666e-06,8.297623680177478e-06,-0.0005149647748373275,4.177936053381799e-05,0.00011497524636898214,0,70,255.0,255.0,255.0
536,26.8,-2.2988550830904e-06,1.865073108383169e-07,-23.99999948673882,-5.072842277061215e-05,4.115623374266058e-06,1.1326042461470561e-05,-2.7596879109620344e-05,2.2389491830770343e-06,6.161504882739414e-06,0,70,255.0,255.0,255.0
537,26.85,-4.666702363954853e-06,3.786119946343265e-07,-23.999998958073874,-3.992406933290034e-05,3.2390605496513725e-06,8.913774168451426e-06,0.0004597710166180868,-3.730146216766392e-05,-0.00010265223660350332,0,70,255.0,255.0,255.0
538,26.900000000000002,-5.8851221032740575e-06,4.774630230111737e-07,-23.99999868603952,-4.751321108802806e-06,3.854771574996122e-07,1.0608188011200796e-06,0.0009471389123457939,-7.684187351840487e-05,-0.00021146597808974606,0,70,255.0,255.0,255.0
539,26.950000000000003,-4.735694561728708e-06,3.8420936759200324e-07,-23.99999894267011,5.478982190168039e-05,-4.4451268021892225e-06,-1.2232823640523481e-05,0.001434506808073501,-0.00011638228486914583,-0.0003202797195759888,0,70,255.0,255.0,255.0
540,27.0,0.0,0.0,-24.0,0.00013869935969854246,-1.1252751329414582e-05,-3.0967153156477725e-05,0.0019218747038011726,-0.00015592269621988395,-0.00042909346106222374,0,70,255.0,255.0,255.0
541,27.05,8.579443969331346e-06,-6.960547600317948e-07,-24.000001915516815,0.00018932105116775848,-1.535971553758078e-05,-4.226936591487824e-05,0.00010299295496743921,-8.355872106761465e-06,-2.2995049273790607e-05,0,70,255.0,255.0,255.0
542,27.1,1.7416370326081294e-05,-1.412999200330494e-06,-24.00000388852125,0.00014899865519528652,-1.2088338540090743e-05,-3.326665808385682e-05,-0.0017158887938662941,0.00013921095200636102,0.0003831033625146425,0,70,255.0,255.0,255.0
