idx,t,px,py,pz,vx,vy,vz,ax,ay,az,yaw,mode,ledr,ledg,ledb
0,0.0,7.5,0.0,0.0,4.859435417634116e-19,-1.2065676517278556e-93,0.019030436778708193,-5.8313225011609395e-18,1.4478811820734268e-92,-0.5155652413444983,0,70,255.0,255.0,255.0
1,0.05,7.5,-4.3436435462202795e-95,0.00030909572403349495,2.2353402921116935e-19,-5.550211197948135e-94,-0.006625999081794231,-4.665058000928752e-18,1.1583049456587415e-92,-0.5106921930755987,0,70,255.0,255.0,255.0
2,0.1,7.5,-5.7915247282937055e-95,-0.000658539034622007,1.943774167053649e-20,-4.8262706069114224e-95,-0.03203878252885167,-3.498793500696564e-18,8.68728709244056e-93,-0.505819144806699,0,70,255.0,255.0,255.0
3,0.15000000000000002,7.5,-5.067584137256994e-95,-0.002890721655294257,-1.2634532085848717e-19,3.137075894492425e-94,-0.05720791356246414,-2.332529000464375e-18,5.791524728293706e-93,-0.5009460965377992,0,70,255.0,255.0,255.0
4,0.2,7.5,-2.8957623641468508e-95,-0.006375269517311004,-2.1381515837590102e-19,5.308897667602564e-94,-0.08213339218263159,-1.166264500232188e-18,2.895762364146853e-93,-0.49607304826889953,0,70,255.0,255.0,255.0
5,0.25,7.5,0.0,-0.0111,-2.429717708817058e-19,6.032838258639278e-94,-0.1068152183893541,0.0,0.0,-0.4912000000000001,0,70,255.0,255.0,255.0
6,0.30000000000000004,7.5,2.8957623641468558e-95,-0.017052730482689002,-2.1381515837590107e-19,5.308897667602564e-94,-0.13125339218263163,1.1662645002321889e-18,-2.895762364146856e-93,-0.48632695173110047,0,70,255.0,255.0,255.0
7,0.35000000000000003,7.5,5.067584137256995e-95,-0.02422127834470575,-1.2634532085848695e-19,3.1370758944924227e-94,-0.15544791356246415,2.3325290004643766e-18,-5.791524728293709e-93,-0.48145390346220085,0,70,255.0,255.0,255.0
8,0.4,7.5,5.7915247282937075e-95,-0.032593460965378,1.9437741670536513e-20,-4.8262706069114383e-95,-0.1793987825288517,3.4987935006965645e-18,-8.687287092440561e-93,-0.4765808551933012,0,70,255.0,255.0,255.0
9,0.45,7.5,4.3436435462202775e-95,-0.042157095724033505,2.2353402921116944e-19,-5.550211197948138e-94,-0.20310599908179428,4.665058000928752e-18,-1.1583049456587415e-92,-0.47170780692440156,0,70,255.0,255.0,255.0
10,0.5,7.5,0.0,-0.0529,4.859435417634116e-19,-1.2065676517278556e-93,-0.22656956322129185,5.8313225011609395e-18,-1.447881182073427e-92,-0.4668347586555024,0,70,255.0,255.0,255.0
11,0.55,7.5,-7.23940591036714e-95,-0.06480937379327753,6.31726604292435e-19,-1.5685379472462125e-93,-0.24975243218767942,-5.3926038442842604e-33,1.1922287552022822e-107,-0.4604799999999999,0,70,255.0,255.0,255.0
12,0.6000000000000001,7.5,-1.4478811820734278e-94,-0.07786994758655505,4.85943541763411e-19,-1.2065676517278546e-93,-0.2726175632212919,-5.83132250116095e-18,1.4478811820734293e-92,-0.45412524134449744,0,70,255.0,255.0,255.0
13,0.65,7.5,-1.8098514775917838e-94,-0.09206583448319379,4.859435417634097e-20,-1.2065676517278527e-94,-0.2951649563221292,-1.1662645002321884e-17,2.895762364146854e-92,-0.44777048268899494,0,70,255.0,255.0,255.0
14,0.7000000000000001,7.5,-1.4478811820734256e-94,-0.10738114758655504,-6.803209584687778e-19,1.6891947124190014e-93,-0.3173946114901913,-1.749396750348283e-17,4.343643546220282e-92,-0.44141572403349244,0,70,255.0,255.0,255.0
15,0.75,7.5,0.0,-0.1238,-1.7008023961719407e-18,4.222986781047495e-93,-0.3393065287254784,-2.3325290004643758e-17,5.791524728293708e-92,-0.43506096537799177,0,70,255.0,255.0,255.0
16,0.8,7.5,2.606186127732171e-94,-0.14130657434420096,-2.3130912587938393e-18,5.743262022224594e-93,-0.36090487906665075,-1.1662645002321679e-18,2.895762364146802e-93,-0.42887304826890027,0,70,255.0,255.0,255.0
17,0.8500000000000001,7.5,5.284766314568013e-94,-0.1598853313090742,-1.8174288461951574e-18,4.5125630174621755e-93,-0.38219383355236847,2.0992761004179422e-17,-5.2123722554643474e-92,-0.42268513115980877,0,70,255.0,255.0,255.0
18,0.9,7.5,6.660253437537763e-94,-0.1795208011018469,-2.1381515837590073e-19,5.308897667602536e-94,-0.40317339218263154,4.315178650859096e-17,-1.0714320747343363e-91,-0.41649721405071727,0,70,255.0,255.0,255.0
19,0.9500000000000001,7.5,5.357160373671673e-94,-0.20019751392974644,2.49774980466394e-18,-6.201757729881192e-93,-0.4238435549574402,6.531081201300256e-17,-1.6216269239222392e-91,-0.41030929694162577,0,70,255.0,255.0,255.0
20,1.0,7.5,0.0,-0.2219,6.3172660429243515e-18,-1.5685379472462125e-92,-0.4442043218767942,8.74698375174141e-17,-2.1718217731101406e-91,-0.4041213798325365,0,70,255.0,255.0,255.0
21,1.05,7.5,-9.70080391989197e-94,-0.24461232882991865,8.620638430882922e-18,-2.140451014165216e-92,-0.4642280515457177,4.665058000928684e-18,-1.1583049456587263e-92,-0.3968278069244028,0,70,255.0,255.0,255.0
22,1.1,7.5,-1.9691184076198622e-93,-0.26831672717714833,6.783771843017218e-18,-1.684368441812085e-92,-0.4838871025692345,-7.813972151555674e-17,1.9401607839783954e-91,-0.38953423401626913,0,70,255.0,255.0,255.0
23,1.1500000000000001,7.5,-2.4831162272559277e-93,-0.29299496110941875,8.066662793272388e-19,-2.002902301868194e-93,-0.5031814749473447,-1.6094450103204216e-16,3.996152062522663e-91,-0.3822406611081354,0,70,255.0,255.0,255.0
24,1.2000000000000002,7.5,-1.9980760312613248e-93,-0.3186287966944594,-9.310678260187015e-18,2.3117836207105826e-92,-0.5221111686800481,-2.437492805485276e-16,6.052143341066932e-91,-0.3749470882000017,0,70,255.0,255.0,255.0
25,1.25,7.5,0.0,-0.3452,-2.3568261775525464e-17,5.851853110880101e-92,-0.5406761837673448,-3.265540600650126e-16,8.108134619611193e-91,-0.3676535152918703,0,70,255.0,255.0,255.0
26,1.3,7.5,3.619702955183571e-93,-0.3726913103361245,-3.2169462464737855e-17,7.987477854438407e-92,-0.5589349147504789,-1.7493967503482515e-17,4.3436435462202175e-92,-0.36269572403349243,0,70,255.0,255.0,255.0
27,1.35,7.5,7.347996999022647e-93,-0.4010893599823326,-2.531765852587372e-17,6.286217465502122e-92,-0.5769457561706941,2.9156612505804757e-16,-7.239405910367149e-91,-0.35773793277511456,0,70,255.0,255.0,255.0
28,1.4000000000000001,7.5,9.266439565269934e-93,-0.4303817544604786,-3.012849958933063e-18,7.480719440712493e-93,-0.5947087080279904,6.006262176195777e-16,-1.4913176175356319e-90,-0.3527801415167367,0,70,255.0,255.0,255.0
29,1.4500000000000002,7.5,7.456588087678136e-93,-0.4605560992924164,3.4744963236084094e-17,-8.62695870985421e-92,-0.6122237703223679,9.096863101811077e-16,-2.2586946440345493e-90,-0.34782235025835884,0,70,255.0,255.0,255.0
30,1.5,7.5,0.0,-0.4916,8.79557810591775e-17,-2.1838874496274193e-91,-0.6294909430538264,1.2187464027426363e-15,-3.0260716705334634e-90,-0.34286455899998547,0,70,255.0,255.0,255.0
31,1.55,7.5,-1.350873142874509e-92,-0.5235000298255836,1.2005721142806847e-16,-2.980946040358841e-91,-0.6464482894523668,6.531081201300138e-17,-1.6216269239222163e-91,-0.335429296941628,0,70,255.0,255.0,255.0
32,1.6,7.5,-2.742286958847073e-92,-0.5562386328935215,9.448686226047765e-17,-2.3460501420196416e-91,-0.6630338727479892,-1.0881247787166335e-15,2.70174628574902e-90,-0.32799403488327045,0,70,255.0,255.0,255.0
33,1.6500000000000001,7.5,-3.458264203382381e-92,-0.5897972210486674,1.1244733556405001e-17,-2.7919975460981793e-92,-0.6792476929406939,-2.2415603694462678e-15,5.565655263890261e-90,-0.32055877282491296,0,70,255.0,255.0,255.0
34,1.7000000000000002,7.5,-2.782827631945122e-92,-0.6241572061358754,-1.296691746841494e-16,3.2196051218706255e-91,-0.6950897500304805,-3.3949959601759034e-15,8.429564242031503e-90,-0.3131235107665555,0,70,255.0,255.0,255.0
35,1.75,7.5,0.0,-0.6593,-3.2825486246118456e-16,8.150364487421667e-91,-0.7105600440173493,-4.548431550905532e-15,1.1293473220172732e-89,-0.305688248708198,0,70,255.0,255.0,255.0
36,1.8,7.5,5.0415222759796784e-92,-0.6952077703615409,-4.480593832475361e-16,1.1125036375991524e-90,-0.7257039274400543,-2.437492805485228e-16,6.05214334106682e-91,-0.3000670882000017,0,70,255.0,255.0,255.0
37,1.85,7.5,1.0234348135486028e-91,-0.731865708443582,-3.526297905160368e-16,8.755578821528349e-91,-0.7405667528373495,4.0609329898084864e-15,-1.0083044551959367e-89,-0.2944459276918055,0,70,255.0,255.0,255.0
38,1.9000000000000001,7.5,1.2906412857002533e-91,-0.7692597613448525,-4.1966084266687016e-17,1.0419918240321473e-91,-0.7551485202092348,8.365615260165496e-15,-2.0771303438025412e-89,-0.2888247671836092,0,70,255.0,255.0,255.0
39,1.9500000000000002,7.5,1.0385651719012674e-91,-0.807375876164082,4.839317355005135e-16,-1.2015724616497086e-90,-0.7694492295557105,1.2670297530522505e-14,-3.145956232409147e-89,-0.28320360667541294,0,70,255.0,255.0,255.0
40,2.0,7.5,0.0,-0.8462,1.2250636687855606e-15,-3.0417570500059247e-90,-0.783468880876776,1.6974979800879494e-14,-4.214782121015746e-89,-0.27758244616721583,0,70,255.0,255.0,255.0
41,2.0500000000000003,7.5,-1.8815215961044298e-91,-0.8857176887282526,1.672180321562076e-15,-4.1519199463607256e-90,-0.7971840007874156,9.096863101810222e-16,-2.258694644034332e-90,-0.27102235025836235,0,70,255.0,255.0,255.0
42,2.1,7.5,-3.819510558309704e-91,-0.9259129333321509,1.3160322998036703e-15,-3.2676265144093763e-90,-0.8105711159026123,-1.515560718051731e-14,3.763043192208845e-89,-0.2644622543495089,0,70,255.0,255.0,255.0
43,2.15,7.5,-4.816738722462773e-91,-0.9667693335719229,1.566196035103504e-16,-3.888767541518939e-91,-0.8236302262223664,-3.1220900671215637e-14,7.751955848821122e-89,-0.25790215844065545,0,70,255.0,255.0,255.0
44,2.2,7.5,-3.875977924410556e-91,-1.008270489207797,-1.8060577673179033e-15,4.4843293344117695e-90,-0.8363613317466778,-4.7286194161914114e-14,1.1740868505433436e-88,-0.2513420625318019,0,70,255.0,255.0,255.0
45,2.25,7.5,0.0,-1.0504,-4.571999812681058e-15,1.1351991751281533e-89,-0.8487644324755466,-6.335148765261245e-14,1.572978116204571e-88,-0.24478196662295382,0,70,255.0,255.0,255.0
46,2.3000000000000003,7.5,7.021934156819748e-91,-1.0931414747254495,-6.240661903000769e-15,1.5495176147843752e-89,-0.8608400694102845,-3.394995960175583e-15,8.429564242030683e-90,-0.23824351076655856,0,70,255.0,255.0,255.0
47,2.35,7.499999999999999,1.425460741969021e-90,-1.136478558227815,-4.911499408698645e-15,1.219494817548467e-89,-0.8725887835522025,5.6561495732260757e-14,-1.404386831363944e-88,-0.23170505491016335,0,70,255.0,255.0,255.0
48,2.4000000000000004,7.499999999999999,1.797631360415085e-90,-1.1803949043674562,-5.845123297746612e-16,1.4513078342042345e-90,-0.8840105749013007,1.165179874246976e-13,-2.893069305148208e-88,-0.22516659905376807,0,70,255.0,255.0,255.0
49,2.45,7.5,1.446534652574095e-90,-1.2248741670047314,6.740299333771099e-15,-1.673574487599737e-89,-0.8951054434575793,1.7647447911713397e-13,-4.381751778932459e-88,-0.21862814319737287,0,70,255.0,255.0,255.0
50,2.5,7.5,0.0,-1.2699,1.7062935581938673e-14,-4.23662099551202e-89,-0.905873389221038,2.3643097080957026e-13,-5.870434252716708e-88,-0.21208968734098121,0,70,255.0,255.0,255.0
51,2.5500000000000003,7.500000000000001,-2.6206215031174563e-90,-1.315456412369951,2.3290467290440996e-14,-5.782878464501426e-89,-0.9163357215714477,1.2670297530521254e-14,-3.145956232408832e-89,-0.20640360667540808,0,70,255.0,255.0,255.0
52,2.6,7.500000000000002,-5.319891912045114e-90,-1.3615288337565903,1.83299653349909e-14,-4.5512166187529285e-89,-0.9265137498885788,-2.1109037574852578e-13,5.241243006234891e-88,-0.200717526009835,0,70,255.0,255.0,255.0
53,2.6500000000000004,7.500000000000003,-6.708851569414058e-90,-1.4081030489582544,2.1814297155882903e-15,-5.416354582665072e-90,-0.9364074741724313,-4.348510490275748e-13,1.0797081635710717e-87,-0.19503144534426187,0,70,255.0,255.0,255.0
54,2.7,7.500000000000002,-5.398540817855325e-90,-1.4551648427732788,-2.515513956776652e-14,6.245865016957771e-89,-0.9460168944230051,-6.586117223066218e-13,1.635292026518649e-87,-0.1893453646786888,0,70,255.0,255.0,255.0
55,2.75,7.5,0.0,-1.5027,-6.367974251507364e-14,1.5811284806919928e-88,-0.9553420106403001,-8.823723955856688e-13,2.190875889466227e-87,-0.18365928401311926,0,70,255.0,255.0,255.0
56,2.8000000000000003,7.499999999999996,9.78029259678785e-90,-1.5506936757947478,-8.692120725876322e-14,2.1581996243221337e-88,-0.9643450443039233,-4.728619416190961e-14,1.1740868505432359e-88,-0.1764620625318066,0,70,255.0,255.0,255.0
57,2.85,7.499999999999992,1.9854106906211436e-89,-1.5991285067458245,-6.840836193126498e-14,1.698537165746326e-88,-0.9729882168934808,7.878000072618422e-13,-1.956058519357562e-87,-0.16926484105049402,0,70,255.0,255.0,255.0
58,2.9000000000000004,7.49999999999999,2.503777491724116e-89,-1.6479864997995282,-8.141206532578552e-15,2.021411049645606e-89,-0.9812715284089727,1.6228862086856016e-12,-4.029525723769465e-87,-0.16206761956918136,0,70,255.0,255.0,255.0
59,2.95,7.499999999999992,2.0147628618847217e-89,-1.6972496619021542,9.388025893729493e-14,-2.3309885580231336e-88,-0.989194978850399,2.457972410109353e-12,-6.102992928181351e-87,-0.1548703980878688,0,70,255.0,255.0,255.0
60,3.0,7.5,0.0,-1.7469,2.376560344783559e-13,-5.900851823216769e-88,-0.9967585682177595,3.2930586115331047e-12,-8.176460132593234e-87,-0.14767317660655443,0,70,255.0,255.0,255.0
61,3.0500000000000003,7.500000000000015,-3.650054888403394e-89,-1.796920084451059,3.2439436174461193e-13,-8.054510650838389e-88,-1.003996101212858,1.7647447911711713e-13,-4.3817517789320235e-88,-0.14182814319737705,0,70,255.0,255.0,255.0
62,3.1,7.50000000000003,-7.409653571280061e-89,-1.8472947392601113,2.553034823900689e-13,-6.339027001110005e-88,-1.0109413825374973,-2.940109653298843e-12,7.300109776806762e-87,-0.13598310978819972,0,70,255.0,255.0,255.0
63,3.1500000000000004,7.500000000000038,-9.344224809955054e-89,-1.8980093518436345,3.038339641472595e-14,-7.544008740315861e-89,-1.017594412191678,-6.056693785714831e-12,1.5038394731506792e-86,-0.13013807637902236,0,70,255.0,255.0,255.0
64,3.2,7.50000000000003,-7.519197365753348e-89,-1.949049309618105,-3.503658961814133e-13,8.699367730396764e-88,-1.0239551901753994,-9.17327791813079e-12,2.2776679686206757e-86,-0.12429304296984503,0,70,255.0,255.0,255.0
65,3.25,7.5,0.0,-2.0004,-8.869443953983498e-13,2.2022278812175082e-87,-1.030023716488662,-1.228986205054675e-11,3.0514964640906712e-86,-0.11844800956066592,0,70,255.0,255.0,255.0
66,3.3000000000000003,7.499999999999945,1.3622190293934792e-88,-2.0520467864010166,-1.2106562397196843e-12,3.0059842979031426e-87,-1.035798550844646,-6.586117223065593e-13,1.6352920265184925e-87,-0.11254536467868657,0,70,255.0,255.0,255.0
67,3.35,7.499999999999889,2.7653203594499104e-88,-2.1039749362137297,-9.528055676290109e-13,2.3657570838693704e-87,-1.0412782529565308,1.0972638605933528e-11,-2.724438058786947e-86,-0.10664271979670728,0,70,255.0,255.0,255.0
68,3.4000000000000004,7.499999999999859,3.4873121748096105e-88,-2.1561696928259346,-1.133923791263254e-13,2.8154623911617956e-88,-1.0464628228243167,2.260388893417372e-11,-5.61240532022577e-86,-0.10074007491472795,0,70,255.0,255.0,255.0
69,3.45,7.499999999999886,2.8062026601128685e-88,-2.208616299625427,1.3075833257883575e-12,-3.246648236356391e-87,-1.0513522604480035,3.42351392624138e-11,-8.500372581664565e-86,-0.09483743003274865,0,70,255.0,255.0,255.0
70,3.5,7.5,0.0,-2.2613,3.3101215471150434e-12,-8.218826342548355e-87,-1.0559465658275917,4.586638959065391e-11,-1.1388339843103365e-85,-0.08893478515077469,0,70,255.0,255.0,255.0
71,3.5500000000000003,7.500000000000205,-5.083870628733577e-88,-2.3142055699448756,4.518230597134125e-12,-1.1218486126528732e-86,-1.0602176954085578,2.4579724101091258e-12,-6.102992928180791e-87,-0.081910398087869,0,70,255.0,255.0,255.0
72,3.6,7.500000000000416,-1.0320316080671636e-87,-2.3673159158849697,3.5559187881259756e-12,-8.829125635366482e-87,-1.0641376056363785,-4.095044477043528e-11,1.0167741257467113e-85,-0.07488601102496338,0,70,255.0,255.0,255.0
73,3.6500000000000004,7.500000000000524,-1.3014826218242942e-87,-2.4206134768526275,4.2318612009057494e-13,-1.0507448690615643e-87,-1.0677062965110542,-8.435886195098006e-11,2.09457818077524e-85,-0.0678616239620577,0,70,255.0,255.0,255.0
74,3.7,7.500000000000422,-1.0472890903876137e-87,-2.47408069188019,-4.87996740697202e-12,1.2116656172385887e-86,-1.0709237680325845,-1.2776727913152446e-10,3.172382235803759e-85,-0.060837236899152075,0,70,255.0,255.0,255.0
75,3.75,7.5,0.0,-2.5277,-1.2353541793061824e-11,3.0673077488975917e-86,-1.0737900202009691,-1.711756963120688e-10,4.2501862908322775e-85,-0.05381284983624823,0,70,255.0,255.0,255.0
76,3.8000000000000003,7.499999999999236,1.8973263485540829e-87,-2.581454133819483,-1.6862266148816813e-11,4.1867960208211786e-86,-1.0763226675211217,-9.1732779181299e-12,2.2776679686204536e-86,-0.047493042969848145,0,70,255.0,255.0,255.0
77,3.85,7.499999999998448,3.851594396323663e-87,-2.63532700024639,-1.3270869584874887e-11,3.295074545759655e-86,-1.078539324497954,1.528291404758076e-10,-3.79465269710815e-85,-0.041173236103448106,0,70,255.0,255.0,255.0
78,3.9000000000000004,7.499999999998044,4.857199269816215e-87,-2.6893027997635564,-1.579352101235976e-12,3.9214332371300554e-87,-1.0804399911314664,3.1483155886974647e-10,-7.817072191078383e-85,-0.03485342923704801,0,70,255.0,255.0,255.0
79,3.95,7.499999999998425,3.90853609553917e-87,-2.7433657328538152,1.821228630209972e-11,-4.521997645318717e-86,-1.0820246674216587,4.76833977263684e-10,-1.1839491685048578e-84,-0.028533622370647983,0,70,255.0,255.0,255.0
80,4.0,7.5,0.0,-2.7975,4.610404562513225e-11,-1.144734836133553e-85,-1.0832933533685312,6.388363956576213e-10,-1.5861911179018773e-84,-0.0222138155042515,0,70,255.0,255.0,255.0
81,4.05,7.500000000002851,-7.080918331342904e-87,-2.8516898947771936,6.293083399813313e-11,-1.5625335470631836e-85,-1.0842516345069564,3.423513926241591e-11,-8.500372581665085e-86,-0.01611743003275736,0,70,255.0,255.0,255.0
82,4.1000000000000005,7.500000000005789,-1.4374345977227541e-86,-2.90592008312947,4.952755955137333e-11,-1.2297385619501914e-85,-1.0849050963718068,-5.703661171328002e-10,1.4161836662686025e-84,-0.010021044561263117,0,70,255.0,255.0,255.0
83,4.15,7.500000000007301,-1.8127314457440565e-86,-2.9601753240931483,5.894222284853331e-12,-1.4634988079458743e-86,-1.0852537389630827,-1.1749673735280058e-09,2.917371058353829e-84,-0.003924659089768981,0,70,255.0,255.0,255.0
84,4.2,7.500000000005874,-1.458685529176907e-86,-3.0144403767045516,-6.796917780142682e-11,1.6876324964036278e-85,-1.085297562280784,-1.779568629923211e-09,4.4185584504390545e-84,0.0021717263817251573,0,70,255.0,255.0,255.0
85,4.25,7.5,0.0,-3.0687,-1.7206264070746718e-10,4.2722085696444527e-85,-1.0850365663249104,-2.3841698863184166e-09,5.919745842524281e-84,0.008268111853217519,0,70,255.0,255.0,255.0
86,4.3,7.499999999989358,2.642634697681755e-86,-3.1229390870717424,-2.3486106984371566e-10,5.831454586170617e-85,-1.0844787944510585,-1.2776727913153206e-10,3.1723822358039493e-85,0.014042763100862367,0,70,255.0,255.0,255.0
87,4.3500000000000005,7.499999999978393,5.3645789512586484e-86,-3.177143067235734,-1.8483936862061844e-10,4.5894467932248006e-85,-1.083632290014824,2.128635328055392e-09,-5.28526939536359e-84,0.01981741434850732,0,70,255.0,255.0,255.0
88,4.4,7.4999999999727525,6.765205855994603e-86,-3.2312975038638525,-2.199753703817738e-11,5.461851908070487e-86,-1.0824970530162077,4.385037935242276e-09,-1.0887777014307478e-83,0.025592065596152166,0,70,255.0,255.0,255.0
89,4.45,7.499999999978074,5.443888507153708e-86,-3.2853879603279807,2.536644249036076e-10,-6.298330221082639e-85,-1.081073083455209,6.641440542429161e-09,-1.6490284633251363e-83,0.031366716843797014,0,70,255.0,255.0,255.0
90,4.5,7.5,0.0,-3.3394,6.421465172047365e-10,-1.5944099442444258e-84,-1.079360381331828,8.897843149616046e-09,-2.2092792252195252e-83,0.03714136809144186,0,70,255.0,255.0,255.0
91,4.55,7.500000000039721,-9.86244695759273e-86,-3.3933185569358364,8.765134453767295e-10,-2.176328479761928e-84,-1.0773211876888082,4.768339772637133e-10,-1.1839491685049316e-84,0.04442637762935139,0,70,255.0,255.0,255.0
92,4.6000000000000005,7.500000000080633,-2.0020881207311843e-85,-3.4471260479275996,6.898299149311005e-10,-1.7128048610949009e-84,-1.0749177435688928,-7.944175195088768e-09,1.9724893915185762e-83,0.05171138716726106,0,70,255.0,255.0,255.0
93,4.65,7.500000000101686,-2.524809197823436e-85,-3.500804260451444,8.209592586785587e-11,-2.0383908824336024e-85,-1.072150048972082,-1.6365184367441103e-08,4.063373699887608e-83,0.058996396705170595,0,70,255.0,255.0,255.0
94,4.7,7.500000000081827,-2.0316868499437927e-85,-3.554334981983526,-9.46688521813004e-10,2.350568838792692e-84,-1.0690181038983757,-2.4786193539793437e-08,6.1542580082566396e-83,0.06628140624308013,0,70,255.0,255.0,255.0
95,4.75,7.5,0.0,-3.6077,-2.3965234281114785e-09,5.950418920013258e-84,-1.065521908347774,-3.320720271214576e-08,8.245142316625673e-83,0.07356641578099321,0,70,255.0,255.0,255.0
96,4.800000000000001,7.4999999998517595,3.6807153132689887e-85,-3.6608818851849128,-3.271192711663204e-09,8.122168460430657e-84,-1.0617084547937066,-1.7795686299227672e-09,4.418558450437952e-84,0.07897172638170788,0,70,255.0,255.0,255.0
97,4.8500000000000005,7.49999999969907,7.471894587798873e-85,-3.7138663410538704,-2.5744802911037834e-09,6.392274765057124e-84,-1.0576247357096031,2.9648065452299672e-08,-7.361430626537942e-83,0.08437703698242244,0,70,255.0,255.0,255.0
98,4.9,7.499999999620501,9.422716205694284e-85,-3.766639854330372,-3.0638616643324674e-10,7.60737833892739e-85,-1.0532707510954642,6.107569953452212e-08,-1.5164717098119683e-82,0.08978234758313701,0,70,255.0,255.0,255.0
99,4.95,7.499999999694621,7.582358549059803e-85,-3.819188911737916,3.533089662348406e-09,-8.772442333062507e-84,-1.0486465009512895,9.250333361674455e-08,-2.2968003569701423e-82,0.09518765818385158,0,70,255.0,255.0,255.0
100,5.0,7.5,0.0,-3.8715,8.943947195241177e-09,-2.2207265735808606e-83,-1.043751985277079,1.2393096769896702e-07,-3.0771290041283167e-82,0.10059296878456792,0,70,255.0,255.0,255.0
101,5.050000000000001,7.50000000055324,-1.3736616557316664e-84,-3.9235587023245158,1.2208257401276085e-08,-3.0312345361960697e-83,-1.0385329931363694,6.641440542427506e-09,-1.6490284633247226e-83,0.10816671684381315,0,70,255.0,255.0,255.0
102,5.1000000000000005,7.500000001123084,-2.788549023046431e-84,-3.9753469878569216,9.608091249484035e-09,-2.38562941991336e-83,-1.0329353135926977,-1.1064808661410994e-07,2.7473233114633206e-82,0.11574046490305827,0,70,255.0,255.0,255.0
103,5.15,7.500000001416308,-3.51660556249537e-84,-4.02684592222707,1.1434487398651307e-09,-2.839112247327584e-84,-1.0269589466460636,-2.279376137706474e-07,5.659549469259113e-82,0.12331421296230337,0,70,255.0,255.0,255.0
104,5.2,7.500000001139688,-2.8297747346295406e-84,-4.078036571064812,-1.3185670127580622e-08,3.2739200493457327e-83,-1.0206038922964673,-3.452271409271848e-07,8.571775627054906e-82,0.13088796102154848,0,70,255.0,255.0,255.0
105,5.25,7.5,0.0,-4.1289,-3.337926535285323e-08,8.287864402322117e-83,-1.0138701505439085,-4.6251666808372235e-07,1.1484001784850696e-81,0.13846170908079536,0,70,255.0,255.0,255.0
106,5.300000000000001,7.499999997935278,5.126575091599766e-84,-4.179418505517027,-4.556183689344115e-08,1.1312721298741211e-82,-1.0068315726608115,-2.478619353978721e-08,6.154258008255084e-83,0.14308140624308094,0,70,255.0,255.0,255.0
107,5.3500000000000005,7.499999995808592,1.0407006633405834e-83,-4.229579307518446,-3.585788470683235e-08,8.903290203147724e-83,-0.9995620099196002,4.129442810041402e-07,-1.0253150183199488e-81,0.14770110340536644,0,70,255.0,255.0,255.0
108,5.4,7.4999999947142655,1.312415062941205e-83,-4.279370856761352,-4.26740879302727e-09,1.05957111554176e-83,-0.9920614623202749,8.506747555480676e-07,-2.112172616722448e-81,0.15232080056765196,0,70,255.0,255.0,255.0
109,5.45,7.499999995746627,1.0560863083612188e-83,-4.328781604002838,4.9209590847974104e-08,-1.2218435964076676e-82,-0.9843299298628352,1.288405230091995e-06,-3.1990302151249475e-81,0.15694049772993746,0,70,255.0,255.0,255.0
110,5.5,7.5,0.0,-4.3778,1.2457311421617176e-07,-3.0930731035707605e-82,-0.9763674125472813,1.7261357046359227e-06,-4.285887813527446e-81,0.16156019489222384,0,70,255.0,255.0,255.0
111,5.550000000000001,7.500000007705645,-1.9132638710667398e-83,-4.426412875607379,1.700390901724885e-07,-4.221965065876877e-82,-0.9680767162203796,9.250333361672139e-08,-2.296800356969556e-82,0.17006765818384148,0,70,255.0,255.0,255.0
112,5.6000000000000005,7.500000015642549,-3.883947751057691e-83,-4.474600582069295,1.3382344757784543e-07,-3.3227531392677534e-82,-0.9593606467288971,-1.5411290374024507e-06,3.826527742133463e-81,0.17857512147545895,0,70,255.0,255.0,255.0
113,5.65,7.500000019726629,-4.897999695515282e-83,-4.522341850727524,1.5926186432243976e-08,-3.95437323743427e-83,-0.9502192040728337,-3.1747614084216228e-06,7.882735519963881e-81,0.18708258476707643,0,70,255.0,255.0,255.0
114,5.7,7.500000015873808,-3.941367759981919e-83,-4.569615412923835,-1.8365269326431574e-07,4.559982380696101e-82,-0.9406523882521896,-4.808393779440795e-06,1.19389432977943e-80,0.19559004805869393,0,70,255.0,255.0,255.0
115,5.75,7.5,0.0,-4.6164,-4.649131915118338e-07,1.154350597405083e-81,-0.9306601992669645,-6.442026150459967e-06,1.5995151075624719e-80,0.2040975113503123,0,70,255.0,255.0,255.0
116,5.800000000000001,7.499999971242141,7.140397975106982e-83,-4.662676392053464,-6.345945237965129e-07,1.5756588133633386e-81,-0.9203655624576681,-3.452271409270982e-07,8.571775627052739e-82,0.20768796102154252,0,70,255.0,255.0,255.0
117,5.8500000000000005,7.499999941621214,1.4495090340890178e-82,-4.708433564204374,-4.994359056045492e-07,1.2400683536756243e-81,-0.9098914031648102,5.751571868605663e-06,-1.4280795950213901e-80,0.2112784106927727,0,70,255.0,255.0,255.0
118,5.9,7.499999926379216,1.8279583719119928e-82,-4.753662540328552,-5.9437336935948463e-08,1.4757921834195347e-82,-0.8992377213883909,1.1848370878138424e-05,-2.941876946313308e-80,0.21486886036400288,0,70,255.0,255.0,255.0
119,5.95,7.499999940758145,1.470938473156646e-82,-4.79835434430182,6.854011822092888e-07,-1.7018085926376736e-81,-0.88840451712841,1.7945169887671183e-05,-4.455674297605226e-80,0.21845931003523306,0,70,255.0,255.0,255.0
120,6.0,7.5,0.0,-4.8425,1.7350796518311635e-06,-4.308095079263256e-81,-0.8773917903848676,2.4041968897203946e-05,-5.9694716488971426e-80,0.222049759706465,0,70,255.0,255.0,255.0
121,6.050000000000001,7.500000107325792,-2.664832802936119e-82,-4.886087956178768,2.3683390050135625e-06,-5.8804387468656675e-81,-0.866045033948957,1.2884052300916684e-06,-3.1990302151241423e-81,0.231820497729951,0,70,255.0,255.0,255.0
122,6.1000000000000005,7.500000217872598,-5.409641361250302e-82,-4.92909636111321,1.8639201748403513e-06,-4.627998100775723e-81,-0.8542097406118724,-2.1465158437020202e-05,5.329665605872214e-80,0.2415912357534368,0,70,255.0,255.0,255.0
123,6.15,7.500000274756507,-6.822033518096442e-82,-4.971500787958269,2.2182316131155035e-07,-5.50773140993474e-82,-0.8418859103736134,-4.421872210413208e-05,1.0979234233256842e-79,0.2513619737769226,0,70,255.0,255.0,255.0
124,6.2,7.500000221093611,-5.489617116628389e-82,-5.013276809868884,-2.5579520355728413e-06,6.351236132481081e-81,-0.8290735432341801,-6.697228577124394e-05,1.6628802860641468e-79,0.2611327118004084,0,70,255.0,255.0,255.0
125,6.25,7.5,0.0,-5.0544,-6.47540541581282e-06,1.607802971964794e-80,-0.8157726391935728,-8.972584943835581e-05,2.22783714880261e-79,0.2709034498238916,0,70,255.0,255.0,255.0
126,6.300000000000001,7.49999959945469,9.945291414233778e-82,-5.094850183231468,-8.838761496257738e-06,2.194609617409933e-80,-0.8022383017465077,-4.808393779439569e-06,1.193894329779127e-80,0.2704700480587059,0,70,255.0,255.0,255.0
127,6.3500000000000005,7.499999186888397,2.0189056410912192e-81,-5.134624191342789,-6.956244793756857e-06,1.7271924049427268e-80,-0.788725634387702,8.010906187947515e-05,-1.989058282846747e-79,0.2700366462935202,0,70,255.0,255.0,255.0
128,6.4,7.4999989745947575,2.5460175700473775e-81,-5.173723107838375,-8.278553083102481e-07,2.0555133456319322e-81,-0.7752346371171557,0.00016502651753838986,-4.097505998671407e-79,0.2696032445283345,0,70,255.0,255.0,255.0
129,6.45,7.499999174867413,2.0487529993356915e-81,-5.212148016222642,9.546406960082075e-06,-2.3703135937286656e-80,-0.7617653099348688,0.0002499439731973046,-6.205953714496067e-79,0.2691698427631488,0,70,255.0,255.0,255.0
130,6.5,7.5,0.0,-5.2499,2.4166542011420116e-05,-6.0004023799328506e-80,-0.748317652840841,0.0003348614288562192,-8.314401430320727e-79,0.2687364409979649,0,70,255.0,255.0,255.0
131,6.550000000000001,7.500001494855445,-3.711633285399899e-81,-5.286968910895363,3.298670698001739e-05,-8.190394594953168e-80,-0.7342177590650109,1.7945169887666603e-05,-4.455674297604109e-80,0.29525931003522693,0,70,255.0,255.0,255.0
132,6.6000000000000005,7.500003034573816,-7.534658428239846e-81,-5.3232996735156375,2.5961059000187078e-05,-6.4459698096933356e-80,-0.7187917218373181,-0.00029897108908088035,7.423266570799766e-79,0.32178217907248846,0,70,255.0,255.0,255.0
133,6.65,7.500003826864463,-9.501866928379864e-81,-5.358825980688231,3.0895980719294615e-06,-7.67128024153429e-81,-0.7020395411577622,-0.0006158873480494272,1.5292100571359944e-78,0.34830504810975005,0,70,255.0,255.0,255.0
134,6.7,7.50000307943674,-7.646050285679931e-81,-5.393481525240548,-3.5627675804755435e-05,8.846130761666555e-80,-0.6839612170263432,-0.0009328036070179742,2.3160934571920118e-78,0.3748279171470116,0,70,255.0,255.0,255.0
135,6.75,7.5,0.0,-5.4272,-9.019076262986764e-05,2.2393806547766608e-79,-0.6645567494430612,-0.001249719865986521,3.1029768572480284e-78,0.40135078618427844,0,70,255.0,255.0,255.0
136,6.800000000000001,7.499993621123528,1.3852004000176217e-80,-5.459911773187084,-0.0001711080664237013,3.0566968762402726e-79,-0.6436266619934436,-0.001986972285766779,1.662880286063725e-79,0.43585271180041113,0,70,255.0,255.0,255.0
137,6.8500000000000005,7.499982274816341,2.8119728071868168e-80,-5.4915339145946644,-0.000288887991206546,2.4056686833830602e-79,-0.6209714782630199,-0.002724224705547025,-2.7704008000352316e-78,0.47035463741654326,0,70,255.0,255.0,255.0
138,6.9,7.499964117947391,3.546145014347208e-80,-5.521980169408705,-0.00044353053697840285,2.8629607620504975e-80,-0.5965911982517895,-0.00346147712532727,-5.707089628676836e-78,0.5048565630326753,0,70,255.0,255.0,255.0
139,6.95,7.499937307385626,2.8535448143384017e-80,-5.551164282815163,-0.0006350357037392718,-3.3014209452937546e-79,-0.5704858219597526,-0.0041987295451075156,-8.643778457318439e-78,0.5393584886488074,0,70,255.0,255.0,255.0
140,7.0,7.4999,0.0,-5.579,-0.0008634034914891529,-8.357482381113358e-79,-0.5426553493869088,-0.004935981964887765,-1.1580467285960044e-77,0.5738604142649404,0,70,255.0,255.0,255.0
141,7.050000000000001,7.499851220650443,-5.169638271530498e-80,-5.605427196356307,-0.0010765544412816195,-1.1407748045465776e-78,-0.5146675929612066,-0.003590056026810782,-6.205953714494509e-79,0.5456498427631344,0,70,255.0,255.0,255.0
142,7.1000000000000005,7.4997934661608205,-1.0494425385923282e-79,-5.630490268105706,-0.0012224090941702341,-8.97807775256291e-79,-0.4880903651105951,-0.002244130088733823,1.0339276543060947e-77,0.517439271261329,0,70,255.0,255.0,255.0
143,7.15,7.499730101345976,-1.323439336455085e-79,-5.654259741676951,-0.001300967450155001,-1.0684715024048678e-79,-0.4629236658350739,-0.0008982041506568634,2.1299148457571345e-77,0.48922869975952366,0,70,255.0,255.0,255.0
144,7.2,7.499664491020753,-1.064957422878562e-79,-5.676806143498799,-0.0013122295092359202,1.2321070705008365e-78,-0.43916749513464287,0.00044772178742009516,3.225902037208174e-77,0.46101812825771826,0,70,255.0,255.0,255.0
145,7.25,7.4996,0.0,-5.6982,-0.0012561952714129916,3.119054886967677e-78,-0.41682185300930225,0.001793647725497052,4.3218892286592144e-77,0.43280755675591154,0,70,255.0,255.0,255.0
146,7.300000000000001,7.499539096274698,1.9293352686104366e-79,-5.7185058413876915,-0.0011866741684511259,4.2574295305622825e-78,-0.39552696616172883,0.00098719639297754,2.3160934571914298e-78,0.41898791714701233,0,70,255.0,255.0,255.0
147,7.3500000000000005,7.499480660540377,3.9165728736506313e-79,-5.737764212982515,-0.0011574756321152365,3.3506642326868585e-78,-0.3749230612946008,0.00018074506045804239,-3.8586705372208564e-77,0.4051682775381134,0,70,255.0,255.0,255.0
148,7.4,7.499422676668709,4.939142844385619e-79,-5.756009663883492,-0.0011685996624053215,3.987589933414402e-79,-0.3550101384079177,-0.0006257062720614551,-7.948950420160855e-77,0.3913486379292145,0,70,255.0,255.0,255.0
149,7.45,7.4993631285313604,3.9744752100804075e-79,-5.773276743189647,-0.0012200462593213817,-4.598286187473969e-78,-0.33578819750167943,-0.0014321576045809529,-1.2039230303100854e-76,0.37752899832031556,0,70,255.0,255.0,255.0
150,7.5,7.4993,0.0,-5.7896,-0.0013118154228634166,-1.164047130975937e-77,-0.31725723857588617,-0.0022386089371004524,-1.6129510186040857e-76,0.3637093587114153,0,70,255.0,255.0,255.0
151,7.550000000000001,7.4992323942507655,-7.200377247288696e-79,-5.805015838092931,-0.0013767488849184134,-1.5888943317702552e-77,-0.29952854239188015,-0.0003587295450993833,-8.643778457316272e-78,0.34543848864881593,0,70,255.0,255.0,255.0
152,7.6000000000000005,7.499163891677667,-1.4616848956010195e-78,-5.81956807996424,-0.0013476883773733568,-1.250484915549114e-77,-0.2827133897110044,0.0015211498469016524,1.4400754494577326e-76,0.3271676185862169,0,70,255.0,255.0,255.0
153,7.65,7.499099191979188,-1.843313204108739e-78,-5.8333024027890845,-0.0012246339002282486,-1.488188823125274e-78,-0.26681178053325855,0.0034010292389026883,2.9665886834886286e-76,0.3088967485236179,0,70,255.0,255.0,255.0
154,7.7,7.499042994853805,-1.483294341744306e-78,-5.846264483742619,-0.0010075854534830893,1.7161037679395038e-77,-0.2518237148586427,0.005280908630903723,4.493101917519524e-76,0.2906258784610189,0,70,255.0,255.0,255.0
155,7.75,7.499,0.0,-5.8585,-0.0006965430371378783,4.344283035206981e-77,-0.2377491926871568,0.007160788022904758,6.01961515155042e-76,0.2723550083984192,0,70,255.0,255.0,255.0
156,7.800000000000001,7.49897372672224,2.6872173720544352e-78,-5.870053206240585,-0.00036233029187966194,5.929834374024792e-77,-0.22450286427075283,0.0062077217874237055,3.225902037207359e-77,0.2574981282577314,0,70,255.0,255.0,255.0
157,7.8500000000000005,7.498962972748949,5.455082295039014e-78,-5.880962667160526,-7.577085839550351e-05,4.666873238927769e-77,-0.21199937986138354,0.005254655551942669,-5.3744347441088475e-76,0.24264124811704385,0,70,255.0,255.0,255.0
158,7.9,7.498965355414537,6.879338531996392e-78,-5.891265524960175,0.00016313526331460326,5.553996299159641e-78,-0.20023873945904855,0.004301589316461634,-1.1071459691938428e-75,0.2277843679763563,0,70,255.0,255.0,255.0
159,7.95,7.498978492053418,5.535729845969183e-78,-5.900998921839882,0.0003543880732506582,-6.4045864530106205e-77,-0.18922094306374798,0.0033485230809805976,-1.6768484639768012e-75,0.21292748783566873,0,70,255.0,255.0,255.0
160,8.0,7.499,0.0,-5.9102,0.0004979875714126617,-1.6213085009851987e-76,-0.17894599067548175,0.0023954568454995625,-2.2465509587597593e-75,0.1980706076949812,0,70,255.0,255.0,255.0
161,8.05,7.499028698860273,-1.002883176348887e-77,-5.918907336944728,0.0006660700524357209,-2.2130443164328916e-76,-0.16950000052509961,0.004327842395422705,-1.203923030309782e-76,0.17976899832029863,0,70,255.0,255.0,255.0
162,8.1,7.499068217326535,-2.0358644284554885e-77,-5.927165251393656,0.0009307718109549273,-1.7417008040162144e-76,-0.16096909084345193,0.006260227945345779,2.0057663526977273e-75,0.1614673889456167,0,70,255.0,255.0,255.0
163,8.15,7.49912338636266,-2.5674040923876835e-77,-5.935019497370219,0.0012920928469702998,-2.072779637351332e-77,-0.15335326163053803,0.008192613495268921,4.1319250084265083e-75,0.14316577957093415,0,70,255.0,255.0,255.0
164,8.200000000000001,7.499199036932523,-2.065962504213221e-77,-5.942515828897855,0.0017500331604818312,2.3902242044103524e-76,-0.14665251288635833,0.010124999045192064,6.258083664155289e-75,0.12486417019625158,0,70,255.0,255.0,255.0
165,8.25,7.4993,0.0,-5.9497,0.0023045927514894994,6.050805700420096e-76,-0.1408668446109129,0.012057384595115149,8.384242319883994e-75,0.10656256082156967,0,70,255.0,255.0,255.0
166,8.3,7.4994298778366675,3.742810968190105e-77,-5.956616645980502,0.0028820500821400696,8.259193828329085e-76,-0.13592913362884843,0.011040908630907335,4.4931019175183777e-76,0.09094587846100621,0,70,255.0,255.0,255.0
167,8.35,7.49958735794491,7.597949484318057e-77,-5.963305927264852,0.003408683614580231,6.500115892172073e-76,-0.13177225676481227,0.010024432666699556,-7.485621936380036e-75,0.07532919610044331,0,70,255.0,255.0,255.0
168,8.4,7.499769899134821,9.581682516351093e-77,-5.96980688555895,0.0038844933488100196,7.735718919489378e-77,-0.12839621401880413,0.009007956702491743,-1.5420554064512192e-74,0.05971251373987985,0,70,255.0,255.0,255.0
169,8.450000000000001,7.499974960216488,7.710277032255974e-77,-5.9761585625687,0.004309479284829418,-8.920438172340338e-76,-0.12580100539082423,0.00799148073828393,-2.3355486192644348e-74,0.044095831379316386,0,70,255.0,255.0,255.0
170,8.5,7.5002,0.0,-5.9824,0.004683641422638412,-2.2581914300695185e-75,-0.12398663088087247,0.006975004774076164,-3.1290418320776217e-74,0.028479149018753702,0,70,255.0,255.0,255.0
171,8.55,7.500443789793062,-1.396836069641153e-76,-5.988570879133263,0.005085729619014075,-3.082373099688345e-75,-0.12299146495951124,0.009108523080950158,-1.6768484639763817e-75,0.011327487835694972,0,70,255.0,255.0,255.0
172,8.6,7.500710350893824,-2.835593350881673e-76,-5.994713439546937,0.005594493730733421,-2.4258762764672086e-75,-0.12285388209730295,0.011242041387824076,2.79367213928224e-74,-0.005824173347363147,0,70,255.0,255.0,255.0
173,8.65,7.5010050170980564,-3.575932597301669e-76,-6.000870560393979,0.0062099337577964835,-2.8870096040606184e-76,-0.12357388229424758,0.013375559694698069,5.755029124962225e-74,-0.02297583453042188,0,70,255.0,255.0,255.0
174,8.700000000000001,7.501333122201527,-2.877514562481067e-76,-6.007085120827348,0.006932049700203246,3.3291528484950983e-75,-0.12515146555034518,0.015509078001572063,8.716386110642208e-74,-0.04012749571348061,0,70,255.0,255.0,255.0
175,8.75,7.5017,0.0,-6.0134,0.00776084155795368,8.427685150236064e-75,-0.12758663186559557,0.01764259630844598,1.1677743096322088e-73,-0.057279156896538064,0,70,255.0,255.0,255.0
176,8.8,7.5021093629910895,5.213063181745601e-76,-6.019858237486445,0.008599031441795158,1.1503573015920472e-74,-0.13088900653310306,0.01588499904521268,6.258083664153681e-75,-0.0748158298037603,0,70,255.0,255.0,255.0
177,8.85,7.502558438479793,1.0582578455094888e-75,-6.026503514547399,0.009349341462474946,9.053493516651626e-75,-0.13506821484597153,0.014127401781979446,-1.042612636349096e-73,-0.09235250271098192,0,70,255.0,255.0,255.0
178,8.9,7.503042832472952,1.3345562137571563e-75,-6.033379672865132,0.010011771619993094,1.0774466524293536e-75,-0.14012425680420126,0.012369804518746147,-2.1478061093397676e-73,-0.10988917561820413,0,70,255.0,255.0,255.0
179,8.950000000000001,7.5035581509774065,1.0739030546698667e-75,-6.04053055412191,0.010586321914349578,-1.2424567576746355e-74,-0.1460571324077921,0.010612207255512849,-3.2529995823304396e-73,-0.12742584852542638,0,70,255.0,255.0,255.0
180,9.0,7.5041,0.0,-6.048,0.011072992345544378,-3.1452549170874736e-74,-0.15286684165674383,0.008854609992279633,-4.358193055321072e-73,-0.14496252143264754,0,70,255.0,255.0,255.0
181,9.05,7.504665958242579,-1.9455416657341252e-75,-6.055830570920957,0.01159014461380868,-4.293191896399354e-74,-0.16047650890807727,0.011831480738292113,-2.3355486192638308e-74,-0.1594241686206864,0,70,255.0,255.0,255.0
182,9.1,7.5052614951870025,-3.9494720469497877e-75,-6.064059702263464,0.01225614041937358,-3.3788097790139294e-74,-0.16880925851881237,0.01480835148430449,3.891083331468159e-73,-0.17388581580872473,0,70,255.0,255.0,255.0
183,9.15,7.505894053010138,-4.980631595298459e-75,-6.072723548145494,0.013070979762239128,-4.0210856493113496e-75,-0.17786509048894972,0.01778522223031697,8.015721524862848e-73,-0.18834746299676355,0,70,255.0,255.0,255.0
184,9.200000000000001,7.506571073888849,-4.0078607624313604e-75,-6.081858262685016,0.014034662642405302,4.636911745849032e-74,-0.187644004818489,0.02076209297632945,1.214035971825754e-72,-0.2028091101848024,0,70,255.0,255.0,255.0
185,9.25,7.5073,0.0,-6.0915,0.015147189059872062,1.1738251153326287e-73,-0.19814600150742984,0.023738963722341813,1.6264997911652078e-72,-0.21727075737284052,0,70,255.0,255.0,255.0
186,9.3,7.508086004038596,7.260860344761939e-75,-6.1016778788297295,0.016272390102969585,1.6022410284005365e-73,-0.20894895783458806,0.021269078001558542,8.71638611063993e-74,-0.21484749571348202,0,70,255.0,255.0,255.0
187,9.35,7.508925180772197,1.473963034228966e-74,-6.112392876398743,0.017274096860027913,1.2609889764390553e-73,-0.21963075107877797,0.018799192280775354,-1.4521720689523544e-72,-0.2124242340541236,0,70,255.0,255.0,255.0
188,9.4,7.509811355486499,1.8587970167436677e-74,-6.123638934552891,0.018152309331047112,1.5006895944816033e-74,-0.23019138124000035,0.016329306559992082,-2.9915079990111627e-72,-0.2100009723947651,0,70,255.0,255.0,255.0
189,9.450000000000001,7.510738353467201,1.4957539995055568e-74,-6.135409995138026,0.018907027516027144,-1.73051902257215e-73,-0.24063084831825476,0.013859420839208807,-4.530843929069971e-72,-0.2075777107354066,0,70,255.0,255.0,255.0
190,9.5,7.5117,0.0,-6.1477,0.01953825141496799,-4.3807749696217675e-73,-0.2509491523135409,0.011389535118425498,-6.070179859128724e-72,-0.20515444907604818,0,70,255.0,255.0,255.0
191,9.55,7.512691625603037,-2.7097899713313635e-74,-6.160503513760127,0.020136294974316772,-5.979644923962211e-73,-0.2611836597535777,0.012532207255525445,-3.252999582329598e-73,-0.2042258485254174,0,70,255.0,255.0,255.0
192,9.600000000000001,7.513714581724213,-5.5009049322209696e-74,-6.173817592141567,0.020791472140520552,-4.706074927854731e-73,-0.2713717371660829,0.013674879392625393,5.419579942662805e-72,-0.2032972479747866,0,70,255.0,255.0,255.0
193,9.65,7.51477172504387,-6.937124907444824e-74,-6.187639913642943,0.021503782913579305,-5.600649812995272e-74,-0.2815133845510563,0.0148175515297253,1.1164459843558366e-71,-0.20236864742415586,0,70,255.0,255.0,255.0
194,9.700000000000001,7.515865912242352,-5.582229921779095e-74,-6.20196815676288,0.02227322729349308,6.458384915703693e-73,-0.29160860190849847,0.01596022366682525,1.6909339744454133e-71,-0.20144004687352507,0,70,255.0,255.0,255.0
195,9.75,7.517,0.0,-6.2168,0.023099805280261818,1.6349274763154442e-72,-0.30165738923840874,0.017102895803925072,2.265421964534969e-71,-0.2005114463228943,0,70,255.0,255.0,255.0
196,9.8,7.518176293549256,1.011307385084926e-73,-6.2321336661297675,0.023950429999767563,2.2316338667448307e-72,-0.31169240315110097,0.01692209297630424,1.2140359718254393e-72,-0.2008891101847893,0,70,255.0,255.0,255.0
197,9.850000000000001,7.519394892330954,2.052965669465489e-73,-6.247969555034995,0.024792014577892266,1.7563310734979895e-72,-0.321746300256888,0.01674129014868341,-2.022614770169881e-71,-0.2012667740466843,0,70,255.0,255.0,255.0
198,9.9,7.520655344338023,2.5889702613035632e-73,-6.26430861087534,0.0256245590146359,2.0901909657499547e-73,-0.3318190805557693,0.01656048732106258,-4.16663313752223e-71,-0.20164443790857928,0,70,255.0,255.0,255.0
199,9.950000000000001,7.521957197563395,2.083316568761082e-73,-6.281151777810457,0.02644806330999852,-2.4103020640242635e-72,-0.34191074404774585,0.01637968449344175,-6.310651504874655e-71,-0.20202210177047428,0,70,255.0,255.0,255.0
200,10.0,7.5233,0.0,-6.2985,0.02726252746398007,-6.101632408299599e-72,-0.3520212907328167,0.016198881665820952,-8.454669872227001e-71,-0.20239976563236928,0,70,255.0,255.0,255.0
201,10.05,7.524683200199937,-3.774250543206567e-73,-6.316353021720808,0.02806198502660614,-8.328570974583101e-72,-0.36207872764201166,0.015779420839221386,-4.530843929068797e-72,-0.1998977107354245,0,70,255.0,255.0,255.0
202,10.100000000000001,7.526105848951972,-7.661772184639857e-73,-6.334705787718454,0.028840469547902235,-6.554716801206485e-72,-0.37201106180635946,0.01535996001262182,7.548501086413242e-71,-0.19739565583847976,0,70,255.0,255.0,255.0
203,10.15,7.5275668976040375,-9.662168554469768e-73,-6.353552042855696,0.02959798102786832,-7.800698881700247e-73,-0.3818182932258596,0.014940499186022268,1.555008656573308e-70,-0.19489360094153507,0,70,255.0,255.0,255.0
204,10.200000000000001,7.5290652975040695,-7.775043282866415e-73,-6.372885531995292,0.030334519466504454,8.995369764526678e-72,-0.3915004219005129,0.014521038359422702,2.3551672045053202e-70,-0.1923915460445903,0,70,255.0,255.0,255.0
205,10.25,7.5306,0.0,-6.3927,0.03105008486381058,2.2771602156882953e-71,-0.40105744783031855,0.014101577532823067,3.155325752437304e-70,-0.18988949114764475,0,70,255.0,255.0,255.0
206,10.3,7.532170105650995,1.4085694787741343e-72,-6.412991046987003,0.031753629893802336,3.108265003158757e-71,-0.41060068628084806,0.01404022366684668,1.6909339744449782e-71,-0.19184004687353007,0,70,255.0,255.0,255.0
207,10.350000000000001,7.533775311861159,2.859412306909394e-72,-6.43376169409119,0.032454107230495265,2.446253613132795e-71,-0.4202414525176718,0.01397886980087029,-2.8171389575483084e-70,-0.19379060259941538,0,70,255.0,255.0,255.0
208,10.4,7.535415465245824,3.6059703956575513e-72,-6.455016817701875,0.033151516873889356,2.911260456105116e-72,-0.4299797465407895,0.013917515934893904,-5.803371312541009e-70,-0.19574115832530065,0,70,255.0,255.0,255.0
209,10.450000000000001,7.5370904124203255,2.90168565627046e-72,-6.476761294208374,0.03384585882398466,-3.3571176994082465e-71,-0.43981556835020186,0.013856162068917514,-8.789603667533815e-70,-0.19769171405118596,0,70,255.0,255.0,255.0
210,10.5,7.5388,0.0,-6.499,0.03453713308078111,-8.49847762192322e-71,-0.449748917945908,0.013794808202941045,-1.1775836022526515e-69,-0.1996422697770699,0,70,255.0,255.0,255.0
211,10.55,7.54054437719608,-5.25685286077588e-72,-6.521735590331181,0.035243495398190376,-1.1600202915176718e-70,-0.45964652723459665,0.01445968449342918,-6.310651504873007e-71,-0.19626210177047052,0,70,255.0,255.0,255.0
212,10.600000000000001,7.542324903603395,-1.067147200917359e-71,-6.544961835916788,0.03598310153012405,-9.12954277241053e-71,-0.46937512812295534,0.015124560783917315,1.0513705721551913e-69,-0.19288193376387114,0,70,255.0,255.0,255.0
213,10.65,7.544143241412668,-1.3457664727183227e-71,-6.568670286336804,0.0367559514765821,-1.0864971936250426e-71,-0.4789347206109837,0.015789437074405426,2.1658476593590732e-69,-0.1895017657572719,0,70,255.0,255.0,255.0
214,10.700000000000001,7.546001052814629,-1.0829238296795195e-71,-6.592852491171214,0.03756204523756459,1.2528933821180317e-70,-0.4883253046986824,0.01645431336489356,3.2803247465629945e-69,-0.18612159775067252,0,70,255.0,255.0,255.0
215,10.75,7.5479,0.0,-6.6175,0.03840138281307144,3.1716750272004585e-70,-0.4975468803860509,0.017119189655381395,4.3948018337668746e-69,-0.18274142974407415,0,70,255.0,255.0,255.0
216,10.8,7.549841185564683,1.9618841964329386e-71,-6.642606591688274,0.03924038851344102,4.329254665754811e-70,-0.5067332047807677,0.016441038359401063,2.355167204504709e-70,-0.1847115460445915,0,70,255.0,255.0,255.0
217,10.850000000000001,7.551823473725265,3.982647572978496e-71,-6.668174962241661,0.04004548664901157,3.407191747650933e-70,-0.5160180349905102,0.01576288706342073,-3.923768392865933e-69,-0.18668166234510886,0,70,255.0,255.0,255.0
218,10.9,7.5538451691035045,5.022468851307536e-71,-6.694210036950909,0.04081667721978308,4.054862728889674e-71,-0.5254013710152785,0.015084735767440422,-8.083053506182189e-69,-0.18865177864562616,0,70,255.0,255.0,255.0
219,10.950000000000001,7.555904576321162,4.0415267530910306e-71,-6.720716741106773,0.04155396022575561,-4.6758617585313e-70,-0.5348832128550728,0.01440658447146009,-1.2242338619498592e-68,-0.1906218949461435,0,70,255.0,255.0,255.0
220,11.0,7.558,0.0,-6.7477,0.04225733566692909,-1.183685234660951e-69,-0.5444635605098929,0.01372843317547967,-1.6401623732814848e-68,-0.19259201124666525,0,70,255.0,255.0,255.0
221,11.05,7.560130080545188,-7.321851499654165e-71,-6.775162842915722,0.04294695054803945,-1.6156998371501573e-69,-0.5540286536423393,0.013856162068934565,-8.789603667531529e-70,-0.190011714051187,0,70,255.0,255.0,255.0
222,11.100000000000001,7.562294801495548,-1.4863443090996622e-70,-6.803100715116572,0.04364295187382256,-1.2715812713362675e-69,-0.5634647319150119,0.013983890962389459,1.4643702999308542e-68,-0.18743141685570877,0,70,255.0,255.0,255.0
223,11.15,7.564494482173314,-1.874410893251182e-70,-6.83150716585956,0.0443453396442784,-1.5132953721933615e-70,-0.5727717953279101,0.014111619855844349,3.0166366365369683e-68,-0.1848511196602306,0,70,255.0,255.0,255.0
224,11.200000000000001,7.566729441900721,-1.5083183182684606e-70,-6.8603757444017,0.04505411385940699,1.745055365200717e-69,-0.5819498438810348,0.014239348749299243,4.568902973143138e-68,-0.18227082246475235,0,70,255.0,255.0,255.0
225,11.25,7.569,0.0,-6.8897,0.045769274519208314,4.417573435923758e-69,-0.5909988775743854,0.014367077642754023,6.1211693097492505e-68,-0.17969052526927332,0,70,255.0,255.0,255.0
226,11.3,7.571306492254565,2.7325521802183724e-70,-6.91947483664884,0.04649180929439962,6.029873882025147e-69,-0.6000001806498836,0.014534313364897857,3.280324746562137e-69,-0.1803615977506505,0,70,255.0,255.0,255.0
227,11.350000000000001,7.5736493202925415,5.547112479100799e-70,-6.949700577292058,0.04722270585569812,4.745605910579977e-69,-0.6090350373494507,0.014701549087041693,-5.465104360436823e-68,-0.18103267023202765,0,70,255.0,255.0,255.0
228,11.4,7.5760289022032365,6.995396687873972e-70,-6.980378899610853,0.04796196420310379,5.6476952158844735e-70,-0.6181034476730863,0.014868784809185522,-1.1258241195529654e-67,-0.1817037427134048,0,70,255.0,255.0,255.0
229,11.450000000000001,7.578445656075954,5.6291205977647393e-70,-7.011511481286434,0.048709584336616665,-6.512635284949737e-69,-0.6272054116207911,0.015036020531329356,-1.7051378030622688e-67,-0.182374815194782,0,70,255.0,255.0,255.0
230,11.5,7.5809,0.0,-7.0431,0.04946556625623671,-1.648660850903408e-68,-0.6363409291925645,0.015203256253472908,-2.2844514865715522e-67,-0.18304588767615915,0,70,255.0,255.0,255.0
231,11.55,7.583391950436552,-1.019802357090807e-69,-7.075145010488919,0.050205812274360044,-2.250379569095043e-68,-0.6454426237581223,0.014406584471459993,-1.2242338619495434e-68,-0.18102189494615126,0,70,255.0,255.0,255.0
232,11.600000000000001,7.585919917334284,-2.0702105607303536e-69,-7.1076425757152055,0.05090622470338273,-1.7710842370983637e-68,-0.6544431186871799,0.013609912689447078,2.0396047141816435e-67,-0.17899790221614337,0,70,255.0,255.0,255.0
233,11.65,7.588481909013739,-2.610717585824471e-69,-7.140587635697029,0.05156680354330475,-2.1077485491344491e-69,-0.6633424139797366,0.012813240907434192,4.2016328145581646e-67,-0.17697390948613553,0,70,255.0,255.0,255.0
234,11.700000000000001,7.591075933795463,-2.10081640727905e-69,-7.173975130452569,0.05218754879412614,2.430548577459823e-68,-0.6721405096357934,0.012016569125421279,6.363660914934763e-67,-0.17494991675612764,0,70,255.0,255.0,255.0
235,11.75,7.5937,0.0,-7.2078,0.05276846045584687,6.152886060021256e-68,-0.6808374056553493,0.011219897343408503,8.52568901531128e-67,-0.17292592402611984,0,70,255.0,255.0,255.0
236,11.8,7.596352905999224,3.8059542103413907e-69,-7.242057921395483,0.05335694160816469,8.398530888177655e-68,-0.6894773243176218,0.012319348749303786,4.56890297314195e-68,-0.17267082246477497,0,70,255.0,255.0,255.0
237,11.850000000000001,7.599036610370322,7.726130995011332e-69,-7.276747519847127,0.054000395330777266,6.609776357335456e-68,-0.6981044879018271,0.01341880015519907,-7.61190842068289e-67,-0.17241572090343008,0,70,255.0,255.0,255.0
238,11.9,7.601753861741806,9.743330674510484e-69,-7.3118681576010305,0.054698821623684585,7.866224674949355e-69,-0.7067188964079648,0.014518251561094316,-1.5680707138679688e-66,-0.1721606193420852,0,70,255.0,255.0,255.0
239,11.950000000000001,7.604507408742195,7.840353569339723e-69,-7.3474191969032905,0.055452220486886694,-9.070930781344317e-68,-0.7153205498360354,0.0156177029669896,-2.3749505856676776e-66,-0.17190551778074034,0,70,255.0,255.0,255.0
240,12.0,7.6073,0.0,-7.3834,0.05626059192038354,-2.2962883389181614e-67,-0.7239094481860389,0.016717154372884846,-3.181830457467357e-66,-0.17165041621939459,0,70,255.0,255.0,255.0
241,12.05,7.610133225566552,-1.4204014484274755e-68,-7.4198097039291495,0.057054421292988475,-3.134374398361558e-67,-0.7324720789713932,0.01503602053131211,-1.705137803061822e-67,-0.17085481519477383,0,70,255.0,255.0,255.0
242,12.100000000000001,7.613004041184432,-2.8834313419314975e-68,-7.456646544896287,0.057764193973514774,-2.4668021192243453e-67,-0.7409949297055164,0.013354886689739373,2.8408028968549925e-66,-0.17005921417015307,0,70,255.0,255.0,255.0
243,12.15,7.615908244019035,-3.6362605112217465e-68,-7.493908533898848,0.05838990996196241,-2.9357150150662956e-68,-0.7494780003884084,0.011673752848166696,5.85211957401606e-66,-0.16926361314553232,0,70,255.0,255.0,255.0
244,12.200000000000001,7.618841631235759,-2.926059787007984e-68,-7.531593681934273,0.058931569258331436,3.3853174547917444e-67,-0.7579212910200697,0.00999261900659396,8.863436251177234e-66,-0.16846801212091156,0,70,255.0,255.0,255.0
245,12.25,7.6218,0.0,-7.5697,0.05938917186262181,8.56986474967052e-67,-0.7663248016004995,0.008311485165021115,1.1874752928338302e-65,-0.1676724110962926,0,70,255.0,255.0,255.0
246,12.3,7.624780591734571,5.301010372675763e-68,-7.608225662887921,0.05984937321988256,1.1697644504628466e-66,-0.7746983597968098,0.010096569125408687,6.363660914933116e-67,-0.16726991675611239,0,70,255.0,255.0,255.0
247,12.350000000000001,7.627786424891956,1.0761112268224858e-67,-7.647169500567732,0.06039882877516269,9.206230841163837e-67,-0.783051793276111,0.011881653085796258,-1.0602020745351679e-65,-0.16686742241593214,0,70,255.0,255.0,255.0
248,12.4,7.630821962182054,1.357070897743594e-67,-7.6865305068035825,0.06103753852846218,1.095623759277024e-67,-0.791385102038403,0.013666737046183765,-2.184040758219627e-65,-0.16646492807575192,0,70,255.0,255.0,255.0
249,12.450000000000001,7.633891666314768,1.092020379109796e-67,-7.726307675359622,0.06176550247978107,-1.2634176741032552e-66,-0.7996982860836861,0.015451821006571335,-3.3078794419041263e-65,-0.1660624337355717,0,70,255.0,255.0,255.0
250,12.5,7.637,0.0,-7.7665,0.0625827206291193,-3.1983170659763917e-66,-0.80799134541196,0.01723690496695862,-4.4317181255885855e-65,-0.1656599393953897,0,70,255.0,255.0,255.0
251,12.55,7.640150007495165,-1.9783640042275573e-67,-7.80710604451917,0.06340408582746887,-4.365620362015231e-66,-0.8162384818413638,0.015617702967023604,-2.3749505856670667e-66,-0.16422551778075734,0,70,255.0,255.0,255.0
252,12.600000000000001,7.643339059247746,-4.016101773096793e-67,-7.848122652832792,0.0641444909258217,-3.4358121245431003e-66,-0.824413897190036,0.013998500967088589,3.956728008455172e-65,-0.16279109616612497,0,70,255.0,255.0,255.0
253,12.65,7.646563107252747,-5.0646575398522015e-67,-7.889546238886827,0.06480393592417774,-4.088923535601473e-67,-0.8325175914579762,0.012379298967153628,8.150951075476903e-65,-0.16135667455149266,0,70,255.0,255.0,255.0
254,12.700000000000001,7.649818103505164,-4.075475537738385e-67,-7.931373216627244,0.06538242082253705,4.7151389509338467e-66,-0.8405495646451853,0.010760096967218611,1.2345174142498781e-64,-0.1599222529368603,0,70,255.0,255.0,255.0
255,12.75,7.6531,0.0,-7.9736,0.06587994562089959,1.1936281788938515e-65,-0.8485098167516623,0.00914089496728343,1.6539397209520515e-64,-0.15848783132222977,0,70,255.0,255.0,255.0
256,12.8,7.65640577828477,7.383354979642655e-67,-8.016223759035404,0.06635828347024654,1.6292716997598083e-65,-0.8564437128377407,0.00999261900659393,8.863436251174978e-66,-0.15886801212090162,0,70,255.0,255.0,255.0
257,12.850000000000001,7.659736538117058,1.4988295865564692e-66,-8.059244688101108,0.066879207521559,1.2822625414056022e-65,-0.8643966179637526,0.010844343045904427,-1.476670995928552e-64,-0.15924819291957348,0,70,255.0,255.0,255.0
258,12.9,7.663094408806959,1.8901559261665213e-66,-8.102663737649111,0.06744271777483696,1.526007038312889e-66,-0.8723685321296979,0.011696067085214895,-3.041976354368798e-64,-0.15962837371824534,0,70,255.0,255.0,255.0
259,12.950000000000001,7.666481519664574,1.520988177184375e-66,-8.14648185813141,0.06804881423008048,-1.7597138129632123e-65,-0.8803594553355771,0.012547791124525394,-4.6072817128091e-64,-0.1600085545169172,0,70,255.0,255.0,255.0
260,13.0,7.6699,0.0,-8.1907,0.06869749688728952,-4.454681008977767e-65,-0.8883693875813897,0.013399515163835973,-6.172587071249348e-64,-0.16038873531558817,0,70,255.0,255.0,255.0
261,13.05,7.673351679365753,-2.7555055914343066e-66,-8.235318119339222,0.06937078029154896,-6.080524762837709e-65,-0.8963386668076688,0.013531821006541602,-3.307879441903288e-65,-0.15838243373557057,0,70,255.0,255.0,255.0
262,13.100000000000001,7.676837188284024,-5.593708168916198e-66,-8.280332194762785,0.0700506789879437,-4.785468953168101e-65,-0.904207630954947,0.01366412684924723,5.5110111828686906e-64,-0.15637613215555296,0,70,255.0,255.0,255.0
263,13.15,7.680356857519417,-7.054157950680866e-66,-8.325737210516735,0.07073719297647368,-5.695135799691394e-66,-0.9119762800232241,0.013796432691952855,1.1352810309927503e-63,-0.15436983057553544,0,70,255.0,255.0,255.0
264,13.200000000000001,7.68391101783654,-5.676405154963663e-66,-8.371528150847123,0.07143032225713897,6.567341356759463e-65,-0.9196446140125005,0.013928738534658484,1.7194609436986524e-63,-0.1523635289955178,0,70,255.0,255.0,255.0
265,13.25,7.6875,0.0,-8.4177,0.07213006682993953,1.6625095857017218e-64,-0.9272126329227757,0.014061044377364329,2.3036408564045335e-63,-0.15035722741548874,0,70,255.0,255.0,255.0
266,13.3,7.691123504252214,1.028368686777296e-65,-8.464248563607711,0.07279859536355442,2.2692827351591023e-64,-0.9347296199315847,0.012680096967231182,1.2345174142495577e-64,-0.15032225293686247,0,70,255.0,255.0,255.0
267,13.350000000000001,7.694778708746847,2.0876003089108315e-65,-8.511172932847762,0.07339807652666266,1.7859613271266787e-64,-0.9422448582164621,0.011299149557098036,-2.056737373554622e-63,-0.15028727845823617,0,70,255.0,255.0,255.0
268,13.4,7.698462161115372,2.632647587655694e-65,-8.558473020283955,0.07392851031926423,2.125453616045266e-65,-0.9497583477774081,0.00991820214696494,-4.2369264885341226e-63,-0.1502523039796099,0,70,255.0,255.0,255.0
269,13.450000000000001,7.702170408989265,2.1184632442670264e-65,-8.606148738480101,0.07438989674135915,-2.450965161407466e-64,-0.9572700886144231,0.008537254736831795,-6.4171156035137e-63,-0.1502173295009836,0,70,255.0,255.0,255.0
270,13.5,7.7059,0.0,-8.6542,0.0747822357929474,-6.20457024190911e-64,-0.9647800807275063,0.0071563073266986965,-8.5973047184932e-63,-0.15018235502234756,0,70,255.0,255.0,255.0
271,13.55,7.709648703625388,-3.837924187965753e-65,-8.702626826229944,0.07517883825422825,-8.46907846435264e-64,-0.9722948534659882,0.008707791124534413,-4.607281712807912e-64,-0.15040855451692164,0,70,255.0,255.0,255.0
272,13.600000000000001,7.713419176728587,-7.791030418751708e-65,-8.751429673846179,0.07565301490540086,-6.665298413189908e-64,-0.9798209361791987,0.01025927492237013,7.675848375931618e-63,-0.1506347540114957,0,70,255.0,255.0,255.0
273,13.65,7.7172152980190925,-9.825174555554688e-65,-8.800609108347441,0.07620476574646524,-7.932300884211952e-65,-0.9873583288671377,0.011810758720205794,1.5812424923143737e-62,-0.1508609535060698,0,70,255.0,255.0,255.0
274,13.700000000000001,7.721040946206399,-7.906212461571742e-65,-8.850165695232471,0.07683409077742143,9.147126509953918e-64,-0.9949070315298056,0.013362242518041512,2.394900147035615e-62,-0.15108715300064388,0,70,255.0,255.0,255.0
275,13.75,7.7249,0.0,-8.9001,0.07754098999826939,2.315577138193472e-63,-1.002467044167202,0.014913726315877396,3.208557801756827e-62,-0.15131335249520994,0,70,255.0,255.0,255.0
276,13.8,7.728795281246232,1.432332806508572e-64,-8.950411331472521,0.0782620516195328,3.1607031122251465e-63,-1.0099629662044702,0.013928738534658643,1.7194609436982096e-63,-0.1485235289955209,0,70,255.0,255.0,255.0
277,13.850000000000001,7.732725384338803,2.9076521366095997e-64,-9.001093971767531,0.07893386385173527,2.487523232563295e-63,-1.0173193970667542,0.012943750753439892,-2.864665613017185e-62,-0.14573370549583187,0,70,255.0,255.0,255.0
278,13.9,7.7366878468082545,3.6668050634563074e-64,-9.05214094632628,0.0795564266948768,2.9603749920802562e-64,-1.0245363367540534,0.011958762972221175,-5.901277320404083e-62,-0.14294388199614294,0,70,255.0,255.0,255.0
279,13.950000000000001,7.7406802061851385,2.9506386602019966e-64,-9.103545280590021,0.08012974014895738,-3.4137540878408195e-63,-1.0316137852663683,0.010973775191002424,-8.937889027791088e-62,-0.1401540584964539,0,70,255.0,255.0,255.0
280,14.0,7.7447,0.0,-9.1553,0.08065380421397704,-8.641851528582977e-63,-1.0385517426036988,0.009988787409783817,-1.1974500735177985e-61,-0.13736423499676498,0,70,255.0,255.0,255.0
281,14.05,7.748745371389681,-5.3455388072377114e-64,-9.207399847879975,0.08116495526764232,-1.1795904602465319e-62,-1.0454532817161415,0.010457254736827288,-6.417115603512037e-63,-0.1386973295009394,0,70,255.0,255.0,255.0
282,14.100000000000001,7.752816885916204,-1.0851505504563229e-63,-9.259846439083702,0.08169952968765978,-9.28356308893419e-63,-1.0524214755537928,0.01092572206387076,1.0691077614475577e-61,-0.14003042400511387,0,70,255.0,255.0,255.0
283,14.15,7.756915714747886,-1.3684702798269756e-63,-9.31264310634744,0.0822575274740294,-1.1048269879899797e-63,-1.0594563241166528,0.011394189390914215,2.2023866789301958e-61,-0.14136351850928827,0,70,255.0,255.0,255.0
284,14.200000000000001,7.761043029053045,-1.1011933394650804e-63,-9.365793182407456,0.0828389486267512,1.274030370036789e-62,-1.0665578274047216,0.011862656717957686,3.335665596412874e-61,-0.1426966130134627,0,70,255.0,255.0,255.0
285,14.25,7.7652,0.0,-9.4193,0.08344379314582516,3.2251828976138436e-62,-1.0737259854179992,0.012331124045000696,4.468944513895511e-61,-0.14402970751763888,0,70,255.0,255.0,255.0
286,14.3,7.769387233195045,1.9949822422442275e-63,-9.473165277007581,0.08403812730990133,4.402291529763613e-62,-1.0808639069309567,0.01144224251804583,2.394900147034993e-62,-0.1414871530006621,0,70,255.0,255.0,255.0
287,14.350000000000001,7.7736030719963845,4.0498369881643315e-63,-9.527384271897667,0.08458801739762975,3.464672912317346e-62,-1.0878747007180656,0.010553360991090962,-3.9899644844885126e-61,-0.13894459848368534,0,70,255.0,255.0,255.0
288,14.4,7.777845294200202,5.107200612962271e-63,-9.581950628283955,0.08509346340901042,4.1232704527519073e-63,-1.0947583667793253,0.009664479464136127,-8.219418983680372e-61,-0.13640204396670866,0,70,255.0,255.0,255.0
289,14.450000000000001,7.78211167760268,4.1097094918401216e-63,-9.636857989780168,0.08555446534404336,-4.754746071363072e-62,-1.1015149051147366,0.00877559793718126,-1.2448873482872386e-60,-0.1338594894497319,0,70,255.0,255.0,255.0
290,14.5,7.7864,0.0,-9.6921,0.08597102320272854,-1.2036546437597076e-61,-1.1081443157242985,0.007886716410225869,-1.667832798206425e-60,-0.1313169349327552,0,70,255.0,255.0,255.0
291,14.55,7.790708895830141,-7.445375088253139e-63,-9.7476718440897,0.08639453549275893,-1.642957565880792e-61,-1.1147390905600292,0.009053775190989927,-8.937889027788803e-62,-0.13247405849647154,0,70,255.0,255.0,255.0
292,14.600000000000001,7.795040426098261,-1.5114197402201002e-62,-9.80357487332564,0.08687640072182755,-1.2930335340375967e-61,-1.1213917215739457,0.010220833971753985,1.489075017650649e-60,-0.13363118206018787,0,70,255.0,255.0,255.0
293,14.65,7.7993975084513085,-1.9060332172022117e-62,-9.85981198051673,0.08741661888993432,-1.5388254823017606e-62,-1.128102208766048,0.011387892752518,3.0675289255791303e-60,-0.13478830562390415,0,70,255.0,255.0,255.0
294,14.700000000000001,7.8037830605362375,-1.5337644627895413e-62,-9.91638605847188,0.08801518999707934,1.7744953915415502e-61,-1.1348705521363363,0.012554951533282057,4.645982833507668e-60,-0.13594542918762048,0,70,255.0,255.0,255.0
295,14.75,7.8082,0.0,-9.9733,0.08867211404326254,4.492100285277446e-61,-1.1416967516848102,0.013722010314046407,6.224436741436149e-60,-0.1371025527513421,0,70,255.0,255.0,255.0
296,14.8,7.81264998348439,2.778651811076833e-62,-10.030555346633625,0.08931173071906265,6.131601110546808e-61,-1.1484997308289302,0.011862656717957649,3.335665596412018e-61,-0.13501661301344928,0,70,255.0,255.0,255.0
297,14.850000000000001,7.817129623610576,5.6406952620639685e-62,-10.088148234799782,0.08985837971505832,4.825666844918651e-61,-1.1551984129861554,0.010003303121868892,-5.557303622153746e-60,-0.1329306732755565,0,70,255.0,255.0,255.0
298,14.9,7.821634271994567,7.113412807512618e-62,-10.146073449649123,0.09031206103124954,5.742974883931864e-62,-1.1617927981564855,0.008143949525780202,-1.1448173803948485e-59,-0.13084473353766377,0,70,255.0,255.0,255.0
299,14.950000000000001,7.826159280252372,5.724086901974157e-62,-10.204325776332313,0.09067277466763633,-6.622506959029896e-61,-1.1682828863399215,0.006284595929691444,-1.7339043985743433e-59,-0.12875879379977095,0,70,255.0,255.0,255.0
300,15.0,7.8307,0.0,-10.2629,0.09094052062421869,-1.6764746497350078e-60,-1.1746686775364625,0.0044252423336029745,-2.3229914167538172e-59,-0.12667285406186934,0,70,255.0,255.0,255.0
301,15.05,7.835253570232296,-1.0370069735482018e-61,-10.321791569375813,0.0912225416309884,-2.2883446876306437e-60,-1.180989986124252,0.006855597937185522,-1.2448873482869208e-60,-0.12617948944971216,0,70,255.0,255.0,255.0
302,15.100000000000001,7.839824279459436,-2.1051361308035776e-61,-10.38099858747525,0.09162608041793725,-1.8009633845637018e-60,-1.187286626481434,0.009285953540768069,2.074013947096433e-59,-0.125686124837555,0,70,255.0,255.0,255.0
303,15.15,7.844418203570426,-2.6547618012848265e-61,-10.440519820886779,0.0921511369850652,-2.1433074053425702e-61,-1.1935585986080077,0.01171630914435053,4.27251662902148e-59,-0.12519276022539785,0,70,255.0,255.0,255.0
304,15.200000000000001,7.849041418454278,-2.136258314510707e-61,-10.500354036198873,0.09279771133237232,2.4715532444578018e-60,-1.1998059025039736,0.014146664747933076,6.471019310946606e-59,-0.12469939561324067,0,70,255.0,255.0,255.0
305,15.25,7.8537,0.0,-10.5605,0.09356580345985852,6.256688570412287e-60,-1.2060285381693314,0.016577020351515204,8.66952199287165e-59,-0.12420603100107463,0,70,255.0,255.0,255.0
306,15.3,7.858398135586425,3.870162713085124e-61,-10.620956775863128,0.09434210275697877,8.540218639467892e-60,-1.2122443246740497,0.014474951533294537,4.645982833506446e-60,-0.12442542918764979,0,70,255.0,255.0,255.0
307,15.350000000000001,7.863132458551682,7.856474997007912e-61,-10.68172461529923,0.095013298613188,6.721286853762938e-60,-1.2184710810880968,0.01237288271507387,-7.7403254261703615e-59,-0.12464482737422494,0,70,255.0,255.0,255.0
308,15.4,7.867897713723729,9.907705924388042e-61,-10.74280406680376,0.09557939102848616,7.998932132977067e-61,-1.224708807411472,0.010270813896853278,-1.5945249135691074e-58,-0.12486422556080008,0,70,255.0,255.0,255.0
309,15.450000000000001,7.872688645930516,7.972624567845409e-61,-10.804195678872196,0.09604038000287332,-9.223962281928226e-60,-1.2309575036441764,0.00816874507863261,-2.4150172845212077e-58,-0.12508362374737522,0,70,255.0,255.0,255.0
310,15.5,7.8775,0.0,-10.8659,0.09639626553634942,-2.3350279631914136e-59,-1.2372171697862095,0.006066676260412018,-3.235509655473279e-58,-0.12530302193395038,0,70,255.0,255.0,255.0
311,15.55,7.882327487422006,-1.4443643878792288e-60,-10.927916527171673,0.0967050473411016,-3.187252987024093e-59,-1.243424715179553,0.006284595929674589,-1.7339043985738965e-59,-0.12299879379978154,0,70,255.0,255.0,255.0
312,15.600000000000001,7.8871706863338344,-2.932076385722807e-60,-10.990240551327844,0.09702472512931688,-2.5084184030488063e-59,-1.2495170491661878,0.006502515598937159,2.8887287757585e-58,-0.12069456566561272,0,70,255.0,255.0,255.0
313,15.65,7.892030141534661,-3.6976061896267334e-60,-11.052866311898178,0.0973552989009953,-2.9852421126565846e-60,-1.2554941717461143,0.006720435268199722,5.950847991374281e-58,-0.11839033753144397,0,70,255.0,255.0,255.0
314,15.700000000000001,7.89690639782366,-2.975423995687093e-60,-11.115788048312345,0.09769676865613686,3.4424295883255055e-59,-1.2613560829193322,0.0069383549374622926,9.01296720699017e-58,-0.11608610939727515,0,70,255.0,255.0,255.0
315,15.75,7.9018,0.0,-11.179,0.09804913439474154,8.714442995724426e-59,-1.2671027826858419,0.007156274606724744,1.2075086422605952e-57,-0.11378188126310818,0,70,255.0,255.0,255.0
316,15.8,7.906711914725554,5.390441280208404e-60,-11.242497915450185,0.09843770787860791,1.1894990084149582e-58,-1.2728248146077494,0.008386664747929234,6.47101931094492e-59,-0.1150993956131899,0,70,255.0,255.0,255.0
317,15.850000000000001,7.911644796112978,1.0942658043190437e-59,-11.306283579389401,0.09888780086953447,9.361544926818926e-59,-1.278612722247161,0.009617054889133727,-1.0780882560416968e-57,-0.1164169099632716,0,70,255.0,255.0,255.0
318,15.9,7.916601720137625,1.3799654166068136e-59,-11.370360285603526,0.09939941336752127,1.114107523732857e-59,-1.2844665056040765,0.010847445030338174,-2.220886705192802e-57,-0.11773442431335326,0,70,255.0,255.0,255.0
319,15.950000000000001,7.921585762774848,1.1104433525963837e-59,-11.434731327878435,0.09997254537256829,-1.2847322125109216e-58,-1.2903861646784962,0.012077835171542664,-3.363685154343948e-57,-0.11905193866343498,0,70,255.0,255.0,255.0
320,16.0,7.9266,0.0,-11.4994,0.10060719688467554,-3.252274401970629e-58,-1.29637169947042,0.013308225312747224,-4.506483603495051e-57,-0.12036945301351665,0,70,255.0,255.0,255.0
321,16.05,7.931646453675778,-2.0117400732954387e-59,-11.564367811027594,0.10124012114446067,-4.439270734957423e-58,-1.3023160263894429,0.012008745078657793,-2.415017284520585e-58,-0.11740362374739273,0,70,255.0,255.0,255.0
322,16.1,7.936722929214251,-4.083855578703894e-59,-11.629629131114559,0.10180807139254133,-3.49377613042269e-58,-1.3081120618451594,0.010709264844568363,4.023480146590934e-57,-0.11443779448126881,0,70,255.0,255.0,255.0
323,16.150000000000002,7.941826177914836,-5.150101047464585e-59,-11.695176545687724,0.10231104762891752,-4.157905883664304e-59,-1.31375980583757,0.009409784610478932,8.288462021633926e-57,-0.1114719652151449,0,70,255.0,255.0,255.0
324,16.2,7.946952951076947,-4.144231010816907e-59,-11.761002640173922,0.10274904985358922,4.794685891210908e-58,-1.3192592583666736,0.008110304376389595,1.2553443896676617e-56,-0.10850613594902118,0,70,255.0,255.0,255.0
325,16.25,7.9521,0.0,-11.8271,0.10312207806655645,1.2137653308310072e-57,-1.3246104194324715,0.00681082414229961,1.681842577171961e-56,-0.10554030668289549,0,70,255.0,255.0,255.0
326,16.3,7.957264670571337,7.507916165160915e-59,-11.893462840439442,0.1034658075435505,1.6567583931414732e-57,-1.3299110798344764,0.006938354937462134,9.012967206987807e-58,-0.10648610939729972,0,70,255.0,255.0,255.0
327,16.35,7.962446687030019,1.5241156510496528e-58,-11.96009189615238,0.10381591356030268,1.3038950029008867e-57,-1.3352590303722016,0.007065885732624659,-1.501583233032205e-56,-0.10743191211170394,0,70,255.0,255.0,255.0
328,16.400000000000002,7.96764636820303,1.9220438773251528e-58,-12.026989531645594,0.10417239611681298,1.5517516010924706e-58,-1.3406542710456468,0.007193416527787183,-3.0932961381342875e-56,-0.10837771482610815,0,70,255.0,255.0,255.0
329,16.45,7.972864032917362,1.5466480690671218e-58,-12.094158111425868,0.10453525521308137,-1.789401135233279e-57,-1.3460968018548123,0.007320947322949699,-4.685009043236258e-56,-0.10932351754051231,0,70,255.0,255.0,255.0
330,16.5,7.9781,0.0,-12.1616,0.10490449084910793,-4.529833883126966e-57,-1.351586622799698,0.007448478118112001,-6.276721948338338e-56,-0.11026932025491654,0,70,255.0,255.0,255.0
331,16.55,7.983354864038875,-2.8019924587348215e-58,-12.22931682721464,0.10529664868134868,-6.183106499070151e-57,-1.3570796542726564,0.008237835171517627,-3.36368515434307e-57,-0.10945193866342356,0,70,255.0,255.0,255.0
332,16.6,7.9886303226656805,-5.688077046328222e-58,-12.297307284275941,0.1057282743662597,-4.866202398561278e-57,-1.3625318166660405,0.009027192224923253,5.603984917469724e-56,-0.1086345570719306,0,70,255.0,255.0,255.0
333,16.650000000000002,7.993928349273046,-7.173165404554153e-58,-12.36556932772992,0.10619936790384102,-5.7912158160034435e-58,-1.3679431099798498,0.009816549278328878,1.1544338350373756e-55,-0.10781717548043762,0,70,255.0,255.0,255.0
334,16.7,7.999250917253609,-5.7721691751868e-58,-12.434100914122597,0.10670992929409256,6.678135951812021e-57,-1.373313534214084,0.010605906331734449,1.7484691783277366e-55,-0.1069997938889447,0,70,255.0,255.0,255.0
335,16.75,8.0046,0.0,-12.5029,0.10725995853701444,1.6905570201676856e-56,-1.378643089368744,0.011395263385139631,2.342504521618139e-55,-0.10618241229744463,0,70,255.0,255.0,255.0
336,16.8,8.009976673273162,1.0457178218423194e-57,-12.571964250701997,0.10779559773105298,2.3075667603139124e-56,-1.383914303074905,0.010030304376401714,1.2553443896673481e-56,-0.10466613594899135,0,70,255.0,255.0,255.0
337,16.85,8.015378422307263,2.1228192534263236e-57,-12.64129016674387,0.10826298897465463,1.8160914591344223e-56,-1.3891097029636434,0.008665345367663797,-2.0914356436846693e-55,-0.10314985960053806,0,70,255.0,255.0,255.0
338,16.900000000000002,8.020801834704788,2.677061774089145e-57,-12.71087395743474,0.10866213226781937,2.161311166292141e-57,-1.394229289034959,0.0073003863589258785,-4.308405726336072e-55,-0.10163358325208478,0,70,255.0,255.0,255.0
339,16.95,8.026243498068206,2.1542028631680066e-57,-12.780711832083737,0.1089930276105472,-2.4923142672014795e-56,-1.3992730612888515,0.0059354273501880574,-6.525375808987319e-55,-0.1001173069036316,0,70,255.0,255.0,255.0
340,17.0,8.0317,0.0,-12.8508,0.10925567500283817,-6.309244692358045e-56,-1.404241019725322,0.004570468341450251,-8.742345891638721e-55,-0.09860103055517833,0,70,255.0,255.0,255.0
341,17.05,8.037168842868478,-3.9026720414957954e-57,-12.921134969977372,0.10950496039444828,-8.611956391348637e-56,-1.409151133427715,0.005400947322954165,-4.685009043235085e-56,-0.09780351754054059,0,70,255.0,255.0,255.0
342,17.1,8.042651188105264,-7.92246930907247e-57,-12.991714448748596,0.1097957697351336,-6.777745596681562e-56,-1.414021371479376,0.006231426304458078,7.805344082991705e-55,-0.09700600452590284,0,70,255.0,255.0,255.0
343,17.150000000000002,8.048149111907808,-9.990930555901166e-57,-13.062536442531133,0.11012810302489409,-8.06612308356822e-57,-1.4188517338803053,0.007061905285961991,1.6079189070306916e-54,-0.0962084915112651,0,70,255.0,255.0,255.0
344,17.2,8.053664690473571,-8.039594535153343e-57,-13.133598957542445,0.11050196026372978,9.301443473624721e-56,-1.4236422206305024,0.007892384267465845,2.435303405762154e-54,-0.09541097849662741,0,70,255.0,255.0,255.0
345,17.25,8.0592,0.0,-13.2049,0.11091734145164067,2.3546421749264494e-55,-1.428392831729968,0.008722863248969537,3.2626879044936754e-54,-0.09461346548198968,0,70,255.0,255.0,255.0
346,17.3,8.06475675525293,1.4564970344140862e-56,-13.276438269388523,0.11135256069115711,3.2140258805080628e-55,-1.433145163214241,0.008685906331687487,1.7484691783273027e-55,-0.0954797938889346,0,70,255.0,255.0,255.0
347,17.35,8.070335225271686,2.956705798286356e-56,-13.348215238261766,0.11178593208480944,2.5294890927591824e-55,-1.4379408111188616,0.008648949414405437,-2.912994068828215e-54,-0.09634612229587954,0,70,255.0,255.0,255.0
348,17.400000000000002,8.07593531766398,3.7286660449515515e-56,-13.42023307244075,0.11221745563259766,3.0103181167980657e-56,-1.4427797754438292,0.008611992497123386,-6.000835055489159e-54,-0.09721245070282446,0,70,255.0,255.0,255.0
349,17.45,8.081556940037514,3.0004175277445376e-56,-13.492493937746485,0.11264713133452176,-3.471345962729739e-55,-1.4476620561891438,0.00857503557984134,-9.088676042149885e-54,-0.09807877910976934,0,70,255.0,255.0,255.0
350,17.5,8.0872,0.0,-13.565,0.11307495919058178,-8.787644230469993e-55,-1.4525876533548059,0.008538078662559068,-1.2176517028810833e-53,-0.09894510751670715,0,70,255.0,255.0,255.0
351,17.55,8.092864136119811,-5.435720933506766e-56,-13.637751952468548,0.11348479684090206,-1.199490788289739e-54,-1.4574682137153145,0.007855427350251833,-6.525375808985721e-55,-0.09627730690363766,0,70,255.0,255.0,255.0
352,17.6,8.098547910807996,-1.1034576262238179e-55,-13.710744598204355,0.11386050192560697,-9.440181811368574e-55,-1.4622153840451697,0.007172776037944598,1.0871441867013689e-53,-0.09360950629056816,0,70,255.0,255.0,255.0
353,17.650000000000002,8.104249617436277,-1.3915571124216094e-55,-13.78397126770589,0.11420207444469653,-1.123466015883547e-55,-1.4668291643443714,0.006490124725637363,2.239542131492595e-53,-0.09094170567749867,0,70,255.0,255.0,255.0
354,17.7,8.109967549376373,-1.1197710657462823e-55,-13.857425291471612,0.1145095143981707,1.295523950355649e-54,-1.4713095546129196,0.005807473413330176,3.3919400762837394e-53,-0.08827390506442935,0,70,255.0,255.0,255.0
355,17.75,8.1157,0.0,-13.9311,0.11478282178602951,3.2795934746953524e-54,-1.4756565548508143,0.005124822101023052,4.5443380210749655e-53,-0.0856061044513492,0,70,255.0,255.0,255.0
356,17.8,8.121445900267831,2.0286386699612974e-55,-14.004989920737293,0.11506025194524185,4.4765605651081506e-54,-1.4799419819245134,0.005972384267470411,2.435303405761561e-54,-0.08581097849661283,0,70,255.0,255.0,255.0
357,17.85,8.12720673149633,4.118159925066636e-55,-14.079094368920824,0.11538006021277657,3.523123815271511e-54,-1.4842376527004757,0.006819946433917769,-4.0572773399226533e-53,-0.08601585254187648,0,70,255.0,255.0,255.0
358,17.900000000000002,8.132984612590914,5.1933618451912824e-55,-14.153413856735714,0.11574224658863365,4.192832251854389e-55,-1.488543567178701,0.007667508600365127,-8.358085020421463e-53,-0.08622072658714011,0,70,255.0,255.0,255.0
359,17.95,8.138781662456998,4.1790425102106745e-55,-14.227948896367062,0.11614681107281306,-4.8349612051496195e-54,-1.4928597253591895,0.008515070766812426,-1.2658892700919968e-52,-0.08642560063240375,0,70,255.0,255.0,255.0
360,18.0,8.1446,0.0,-14.3027,0.11659375366531485,-1.223960947573441e-53,-1.4971861272419411,0.009362632933258785,-1.6959700381418777e-52,-0.0866304746776585,0,70,255.0,255.0,255.0
361,18.05,8.150441062808868,-7.570982586494515e-55,-14.377667564582293,0.11704219537814065,-1.670675147214286e-53,-1.5015158585866266,0.008575035579772673,-9.088676042147672e-54,-0.08655877910975888,0,70,255.0,255.0,255.0
362,18.1,8.156303563206686,-1.5369182074042725e-54,-14.452851526112358,0.11745125722329214,-1.3148477079949193e-53,-1.505842005152917,0.007787438226286558,1.5141965172989243e-52,-0.08648708354185927,0,70,255.0,255.0,255.0
363,18.150000000000002,8.162185532200072,-1.9381890268343516e-54,-14.528251705351279,0.11782093920076932,-1.5647862991534022e-54,-1.5101645669408128,0.006999840872800445,3.1192797950193257e-52,-0.08641538797395966,0,70,255.0,255.0,255.0
364,18.2,8.168085000795637,-1.559639897509642e-54,-14.603867923060129,0.11815124131057217,1.8044320870242833e-53,-1.5144835439503128,0.006212243519314387,4.724363072739612e-52,-0.08634369240606006,0,70,255.0,255.0,255.0
365,18.25,8.174,0.0,-14.6797,0.11844216355270072,4.567884442824229e-53,-1.5187989361814183,0.005424646165827274,6.329446350460015e-52,-0.08627199683815867,0,70,255.0,255.0,255.0
366,18.3,8.179929048496696,2.825529167601676e-54,-14.755747020933548,0.11872296654218051,6.235044532346329e-53,-1.5230665837289832,0.005807473413364123,3.3919400762829127e-53,-0.08443390506443611,0,70,255.0,255.0,255.0
367,18.35,8.185872615676924,5.735856837110426e-54,-14.832005126629756,0.11902291089403715,4.907078450452525e-53,-1.527242326687862,0.006190300660900971,-5.6510583352034324e-52,-0.08259581329071354,0,70,255.0,255.0,255.0
368,18.400000000000002,8.191831658608805,7.23341992281828e-54,-14.908469721859191,0.1193419966082706,5.839861971428183e-54,-1.5313261650580547,0.0065731279084378195,-1.1641310678035155e-51,-0.08075772151699098,0,70,255.0,255.0,255.0
369,18.45,8.197807134360458,5.820655339017498e-54,-14.985136211392414,0.11968022368488092,-6.734232227582172e-53,-1.535318098839561,0.006955955155974641,-1.7631563020866452e-51,-0.07891962974326855,0,70,255.0,255.0,255.0
370,18.5,8.2038,0.0,-15.062,0.12003759212386807,-1.7047576823723475e-52,-1.5392181280323813,0.007338782403511046,-2.362181536369818e-51,-0.07708153796954598,0,70,255.0,255.0,255.0
371,18.55,8.209810743204349,-1.0545018411757254e-53,-15.139057151683524,0.12038593845312712,-2.3269502982171032e-52,-1.5430658064974299,0.006595070766850565,-1.265889270091688e-52,-0.07682560063238775,0,70,255.0,255.0,255.0
372,18.6,8.215837974085614,-2.1406509141037434e-53,-15.216306367368631,0.12069709920055315,-1.831346609381518e-52,-1.5469006880956202,0.005851359130190082,2.1090036823514805e-51,-0.0765696632952295,0,70,255.0,255.0,255.0
373,18.650000000000002,8.221879833364708,-2.699549066443877e-53,-15.293747007211975,0.12097107436614613,-2.179466158655917e-53,-1.5507227728269528,0.005107647493529601,4.34459629171213e-51,-0.07631372595807127,0,70,255.0,255.0,255.0
374,18.7,8.227934461762533,-2.172298145856034e-53,-15.371378431370207,0.12120786394990608,2.5132496823304404e-52,-1.5545320606914272,0.004363935856869172,6.580188901072622e-51,-0.07605778862091306,0,70,255.0,255.0,255.0
375,18.75,8.234,0.0,-15.4492,0.12140746795183303,6.362242285206968e-52,-1.558328551689044,0.003620224220208468,8.815781510433269e-51,-0.07580185128375128,0,70,255.0,255.0,255.0
376,18.8,8.240075178685908,3.935454447942733e-53,-15.527210772332358,0.12160527964532035,8.684296739633778e-52,-1.5620941902812908,0.004292243519284288,4.724363072738436e-52,-0.0748236924061178,0,70,255.0,255.0,255.0
377,18.85,8.246161087980614,7.989017972703931e-53,-15.605408603895732,0.12183669230376147,6.834678592480816e-52,-1.5658109209296558,0.004964262818360107,-7.870908895885581e-51,-0.07384553352848433,0,70,255.0,255.0,255.0
378,18.900000000000002,8.25225940793237,1.0074854273493677e-52,-15.683791049292928,0.12210170592715637,8.133878437480854e-53,-1.5694787436341393,0.005636282117435927,-1.6214254099045005e-50,-0.07286737465085084,0,70,255.0,255.0,255.0
379,18.95,8.258371818589413,8.107127049522388e-53,-15.762355663126746,0.12240032051550505,-9.379575506563547e-52,-1.5730976583947407,0.006308301416511699,-2.455759930220384e-50,-0.07188921577321744,0,70,255.0,255.0,255.0
380,19.0,8.2645,0.0,-15.8411,0.12273253606880755,-2.3744211458455523e-51,-1.576667665211461,0.006980320715587185,-3.290094450536326e-50,-0.07091105689559285,0,70,255.0,255.0,255.0
381,19.05,8.270645342052019,-1.4687315950595208e-52,-15.920022158987049,0.12308094296559659,-3.241023666031801e-51,-1.5802214323774315,0.006955955155974313,-1.7631563020862084e-51,-0.0712396297432214,0,70,255.0,255.0,255.0
382,19.1,8.276808073991928,-2.9815420976711983e-52,-15.999122417048453,0.123428131584405,-2.550736776054176e-51,-1.5837916281857831,0.006931589596361442,2.937463190119084e-50,-0.07156820259084996,0,70,255.0,255.0,255.0
383,19.150000000000002,8.282988134905825,-3.759986802753084e-52,-16.078401595616334,0.12377410192523274,-3.035604759126747e-52,-1.5873782526365166,0.00690722403674857,6.051242010446789e-50,-0.07189677543847851,0,70,255.0,255.0,255.0
384,19.200000000000003,8.289185463879816,-3.025621005223229e-52,-16.15786051612281,0.12411885398807984,3.500505234392701e-51,-1.5909813057296314,0.006882858477135699,9.165020830774494e-50,-0.07222534828610706,0,70,255.0,255.0,255.0
385,19.25,8.2954,0.0,-16.2375,0.12446238777294628,8.861460354861513e-51,-1.5946007874651271,0.006858492917522496,1.2278799651101977e-49,-0.0725539211337427,0,70,255.0,255.0,255.0
386,19.3,8.30163145310602,5.48138093544381e-52,-16.317319791719463,0.12479094849230596,1.2095664990163828e-50,-1.5981720802089932,0.00628393585686459,6.580188901070982e-51,-0.07029778862089199,0,70,255.0,255.0,255.0
387,19.35,8.307878616051681,1.11272665934144e-51,-16.397315327910476,0.12509078135863275,9.519479244968621e-51,-1.6016305663272166,0.005709378796206682,-1.096276187088778e-49,-0.06804165610804128,0,70,255.0,255.0,255.0
388,19.400000000000002,8.314140052444332,1.4032461783662967e-51,-16.47748096824176,0.12536188637192663,1.1329031192758923e-51,-1.6049762458197974,0.005134821735548776,-2.2583542631882653e-49,-0.06578552359519056,0,70,255.0,255.0,255.0
389,19.450000000000003,8.320414325891322,1.1291771315940708e-51,-16.55781107238203,0.12560426353218762,-1.3064063386914359e-50,-1.6082091186867356,0.0045602646748908685,-3.4204323392877538e-49,-0.06352939108233985,0,70,255.0,255.0,255.0
390,19.5,8.3267,0.0,-16.6383,0.12581791283941574,-3.30714202736005e-50,-1.6113291849280313,0.003985707614233558,-4.582510415387158e-49,-0.06127325856948751,0,70,255.0,255.0,255.0
391,19.55,8.332996045523908,-2.045679214671572e-51,-16.718943474135116,0.12602726306518364,-4.514163629462351e-50,-1.6144182467865986,0.004388301416482237,-2.455759930219777e-50,-0.06228921577320713,0,70,255.0,255.0,255.0
392,19.6,8.339303061801354,-4.1527524275986405e-51,-16.799742671309666,0.12625674298106396,-3.5527180203820306e-50,-1.6175581065053521,0.004790895218730918,4.0913584293432025e-49,-0.06330517297692675,0,70,255.0,255.0,255.0
393,19.650000000000002,8.34562205531685,-5.236986033189878e-51,-16.880700131416656,0.12650635258705673,-4.228052001190891e-51,-1.6207487640842917,0.005193489020979597,8.428292851708384e-49,-0.06432113018064638,0,70,255.0,255.0,255.0
394,19.700000000000003,8.351954032554895,-4.2141464258539596e-51,-16.961818394349102,0.1267760918831619,4.875574831326473e-50,-1.6239902195234168,0.005596082823228278,1.2765227274073564e-48,-0.065337087384366,0,70,255.0,255.0,255.0
395,19.75,8.3583,0.0,-17.0431,0.12706596086937957,1.2342422073954048e-49,-1.627282472822728,0.005998676625477595,1.7102161696438433e-48,-0.0663530445880749,0,70,255.0,255.0,255.0
396,19.8,8.364660364798358,7.634578765141905e-51,-17.12454631174008,0.12733999924694586,1.6847088018833021e-49,-1.630554932644583,0.004962858477174089,9.165020830771993e-50,-0.06454534828612386,0,70,255.0,255.0,255.0
397,19.85,8.371033136742906,1.549828305105312e-50,-17.206153986850875,0.12756224671709698,1.3258924157031262e-49,-1.6337370076513404,0.003927040328870583,-1.5269157530284035e-48,-0.06273765198417282,0,70,255.0,255.0,255.0
398,19.900000000000002,8.377415726288277,1.9544697954393215e-50,-17.28791850609163,0.12773270327983294,1.577930488548768e-50,-1.6368286978430002,0.002891222180567077,-3.145481714364527e-48,-0.06092995568222178,0,70,255.0,255.0,255.0
399,19.950000000000003,8.383805543889096,1.5727408571821764e-50,-17.369835350221592,0.1278513689351537,-1.819589298661446e-49,-1.6398300032195627,0.0018554040322635709,-4.76404767570065e-48,-0.05912225938027074,0,70,255.0,255.0,255.0
400,20.0,8.3902,0.0,-17.4519,0.12791824368305932,-4.606254626845614e-49,-1.642740923781027,0.0008195858839603609,-6.382613637036656e-48,-0.05731456307831451,0,70,255.0,255.0,255.0
401,20.05,8.396597695282672,-2.8492635845896046e-50,-17.53410887890457,0.1280047399470307,-6.287418844586971e-49,-1.6456180226350456,0.0026402646748955134,-3.4204323392868224e-49,-0.05776939108242304,0,70,255.0,255.0,255.0
402,20.1,8.40300199122703,-5.784037977661382e-50,-17.616462181286842,0.1281822701505489,-4.9482978607743005e-49,-1.6485178628892694,0.004460943465830666,5.698527169179292e-48,-0.05822421908653156,0,70,255.0,255.0,255.0
403,20.150000000000002,8.409417439530051,-7.294180578438298e-50,-17.698961044216833,0.12845083429361379,-5.888916754075962e-50,-1.651440444543699,0.0062816222567658175,1.1739097572287267e-47,-0.05867904709064009,0,70,255.0,255.0,255.0
404,20.200000000000003,8.415848591888716,-5.869548786143308e-50,-17.78160660476455,0.12881043237622547,6.790799711513135e-49,-1.6543857675983336,0.008102301047700971,1.777966797539524e-47,-0.059133875094748614,0,70,255.0,255.0,255.0
405,20.25,8.4223,0.0,-17.8644,0.1292610643983839,1.719077629998705e-48,-1.6573538320531735,0.009922979838636659,2.3820238378502783e-47,-0.05958870309885356,0,70,255.0,255.0,255.0
406,20.3,8.428774454070961,1.0633596461844231e-49,-17.947341372641652,0.12969704096493043,2.3464966576464586e-48,-1.6602849768152528,0.007516082823224234,1.2765227274070084e-48,-0.05765708738431098,0,70,255.0,255.0,255.0
407,20.35,8.43526769834898,2.158632360554022e-49,-18.030426888001767,0.13001267268070632,1.8467299027394074e-48,-1.6631195407916046,0.005109185807811809,-2.1267192923688766e-47,-0.05572547166976841,0,70,255.0,255.0,255.0
408,20.400000000000002,8.441773715591518,2.7222252518313866e-49,-18.113651717041055,0.13020795954571163,2.1977736527755127e-49,-1.6658575239822297,0.0027022887923993846,-4.381090857478454e-47,-0.05379385595522584,0,70,255.0,255.0,255.0
409,20.450000000000003,8.448286488556038,2.1905454287391065e-49,-18.197011030720226,0.13028290155994626,-2.5343609547391086e-48,-1.6684989263871273,0.0002953917769869599,-6.635462422588031e-47,-0.05186224024068327,0,70,255.0,255.0,255.0
410,20.5,8.4548,0.0,-18.2805,0.13023749872341034,-6.415685057310258e-48,-1.6710437480062978,-0.002111505238425515,-8.889833987697448e-47,-0.04993062452614083,0,70,255.0,255.0,255.0
411,20.55,8.461310088433486,-3.968512226278731e-49,-18.36411443052883,0.13018309619325555,-8.757244746127137e-48,-1.6735300701039568,-6.459596776610529e-05,-4.764047675699353e-48,-0.04952225938022252,0,70,255.0,255.0,255.0
412,20.6,8.467820015377052,-8.056125644449948e-49,-18.447852666706112,0.13023103912663372,-6.892089824880199e-48,-1.6759959739443202,0.0019823133028933045,7.937024452557577e-47,-0.0491138942343042,0,70,255.0,255.0,255.0
413,20.650000000000002,8.474334898103875,-1.0159482949481716e-48,-18.531713687618975,0.1303813275235449,-8.202202935694455e-49,-1.6784414595273875,0.004029222573552714,1.6350453672685092e-46,-0.048705529088385886,0,70,255.0,255.0,255.0
414,20.700000000000003,8.480859853887134,-8.175226836342096e-49,-18.61569647235456,0.130633961383989,9.458363847805125e-48,-1.6808665268531586,0.006076131844212124,2.4763882892812603e-46,-0.048297163942467566,0,70,255.0,255.0,255.0
415,20.75,8.4874,0.0,-18.6998,0.13098894070796607,2.3943662599242325e-47,-1.6832711759216343,0.008123041114871388,3.317731211293951e-46,-0.04788879879655461,0,70,255.0,255.0,255.0
416,20.8,8.493958792195098,1.4810689258930498e-48,-18.784023305243032,0.13134657426203136,3.2682482326862086e-47,-1.6856587427689176,0.006182301047739864,1.7779667975390407e-47,-0.04761387509477508,0,70,255.0,255.0,255.0
417,20.85,8.500533040142813,3.006587021724577e-48,-18.86836564517381,0.13160717081274007,2.5721629396781384e-47,-1.688032563431112,0.0042415609806083394,-2.962137851786143e-46,-0.04733895139299554,0,70,255.0,255.0,255.0
418,20.900000000000002,8.507117891992982,3.791570654609548e-48,-18.952826332483063,0.1317707303600922,3.0611038090002415e-48,-1.6903926379082173,0.0023008209134768145,-6.1020723833261895e-46,-0.047064027691216016,0,70,255.0,255.0,255.0
419,20.950000000000003,8.513708495895434,3.051036191662925e-48,-19.037404679861545,0.13183725290408776,-3.5299094436481373e-47,-1.6927389662002335,0.00036008084634529033,-9.242006914866237e-46,-0.04678910398943648,0,70,255.0,255.0,255.0
420,21.0,8.5203,0.0,-19.1221,0.13180673844472673,-8.935896533965904e-47,-1.695071548307161,-0.00158065922078654,-1.2381941446406057e-45,-0.046514180287655194,0,70,255.0,255.0,255.0
421,21.05,8.526889142786128,-5.527424480944327e-48,-19.20691154849903,0.13177460675863173,-1.2197268456132121e-46,-1.6973869588203698,0.0002953917769869907,-6.635462422586206e-47,-0.046102240240693954,0,70,255.0,255.0,255.0
422,21.1,8.533479024051696,-1.1220735522453312e-47,-19.291838352598667,0.13183627762242545,-9.599442776224533e-47,-1.6996817723312305,0.0021714427747605214,1.1054848961888816e-45,-0.045690300193732714,0,70,255.0,255.0,255.0
423,21.150000000000002,8.5400743339242,-1.415033432349002e-47,-19.376879382448784,0.1319917510361078,-1.1424194942431494e-47,-1.701955988839743,0.0040474937725340525,2.277324416603625e-45,-0.045278360146771474,0,70,255.0,255.0,255.0
424,21.200000000000003,8.546679762531138,-1.1386622083017497e-47,-19.46203360819927,0.13224102699967882,1.3173801389812046e-46,-1.7042096083459077,0.005923544770307583,3.449163937018369e-45,-0.044866420099810234,0,70,255.0,255.0,255.0
425,21.25,8.5533,0.0,-19.5473,0.13258410551313854,3.334921987593938e-46,-1.706442630849724,0.007799595768080092,4.621003457433028e-45,-0.04445448005284547,0,70,255.0,255.0,255.0
426,21.3,8.559938236660399,2.0628628997884252e-47,-19.632676900760842,0.132930998703445,4.552082559184227e-46,-1.7086174219496073,0.00607613184417761,2.476388289280585e-46,-0.04253716394248312,0,70,255.0,255.0,255.0
427,21.35,8.566591663650408,4.1876355068088674e-47,-19.718160144431536,0.1331917186975563,3.582560816522e-46,-1.7106963472439725,0.004352667920275128,-4.125725799576911e-45,-0.04061984783212077,0,70,255.0,255.0,255.0
428,21.400000000000002,8.573255972310218,5.280976663935051e-47,-19.803744937721817,0.1333662654954725,4.263567596072579e-47,-1.7126794067328195,0.002629203996372646,-8.499090428081881e-45,-0.03870253172175842,0,70,255.0,255.0,255.0
429,21.450000000000003,8.57992685398002,4.2495452140407045e-47,-19.889426487341396,0.13345463909719357,-4.916529611560002e-46,-1.7145666004161482,0.0009057400724701648,-1.287245505658685e-44,-0.036785215611396076,0,70,255.0,255.0,255.0
430,21.5,8.5866,0.0,-19.9752,0.13345683950271953,-1.2446098296979161e-45,-1.7163579282939592,-0.000817723851432639,-1.7245819685091508e-44,-0.034867899501032085,0,70,255.0,255.0,255.0
431,21.55,8.593272310572281,-7.69870915105927e-47,-20.061061648457613,0.13344539842759234,-1.6988603391123695e-45,-1.7181113533812198,0.00036008084634524,-9.242006914863738e-46,-0.03526910398939443,0,70,255.0,255.0,255.0
432,21.6,8.599945521346676,-1.5628468474990139e-46,-20.1470114696752,0.13349284758735405,-1.3370298988465549e-45,-1.7198848386928987,0.001537885544123119,1.539741830211876e-44,-0.035670308477756776,0,70,255.0,255.0,255.0
433,21.650000000000002,8.60662257683493,-1.970887322339121e-46,-20.23305046666398,0.13359918698200465,-1.5911850890047187e-46,-1.7216783842289956,0.0027156902419009977,3.1719037295723895e-44,-0.036071512966119115,0,70,255.0,255.0,255.0
434,21.700000000000003,8.61330642154879,-1.5859518647861083e-46,-20.319179642435174,0.13376441661154417,1.8348738307258793e-45,-1.7234919899895105,0.003893494939678877,4.804065628932903e-44,-0.03647271745448146,0,70,255.0,255.0,255.0
435,21.75,8.62,0.0,-20.4054,0.13398853647597253,4.6449471200322704e-45,-1.7253256559744437,0.005071299637456228,6.436227528293301e-44,-0.03687392194283312,0,70,255.0,255.0,255.0
436,21.8,8.626705321050483,2.873197370444865e-46,-20.49171170540872,0.13421540758616757,6.340233100531055e-45,-1.7271291645255102,0.004003544770345598,3.4491639370174374e-45,-0.03526642009982728,0,70,255.0,255.0,255.0
437,21.85,8.633420650962893,5.8326238393151685e-46,-20.578111576867684,0.1343888909530071,4.989863513734018e-45,-1.7288522979844263,0.002935789903234967,-5.746394740889813e-44,-0.033658918256821435,0,70,255.0,255.0,255.0
438,21.900000000000002,8.640143320350061,7.355451622962979e-46,-20.664595595622295,0.13450898657649107,5.9383835964116215e-46,-1.7304950563511923,0.0018680350361243371,-1.1837705875481372e-43,-0.03205141641381559,0,70,255.0,255.0,255.0
439,21.950000000000003,8.64687065982482,5.918852937740361e-46,-20.751159742917938,0.13457569445661954,-6.847842361747524e-45,-1.7320574396258082,0.0008002801690137062,-1.7929017010072929e-43,-0.030443914570809746,0,70,255.0,255.0,255.0
440,22.0,8.6536,0.0,-20.8378,0.13458901459339248,-1.7335178650431166e-44,-1.733539447808273,-0.0002674746980970699,-2.4020328144664044e-43,-0.02883641272778803,0,70,255.0,255.0,255.0
441,22.05,8.660329605225787,-1.0722918566673532e-45,-20.924513129907528,0.1346049712277518,-2.366207206301185e-44,-1.7349879885167512,0.0009057400724699683,-1.2872455056583326e-44,-0.029105215611343032,0,70,255.0,255.0,255.0
442,22.1,8.667061474801752,-2.176764850976166e-45,-21.011299022854082,0.13467958860063947,-1.8622424156089516e-44,-1.7364499693694073,0.0020789548430370066,2.144583713334738e-43,-0.02937401849489803,0,70,255.0,255.0,255.0
443,22.150000000000002,8.673798541764826,-2.7450919169512785e-45,-21.098158350846877,0.1348128667120555,-2.2162349296641636e-45,-1.737925390366241,0.003252169613604045,4.417891977235309e-43,-0.029642821378453033,0,70,255.0,255.0,255.0
444,22.200000000000003,8.680543739151933,-2.2089459886175328e-45,-21.18509178589311,0.13500480556199987,2.5556495616264193e-44,-1.7394142515072528,0.004425384384171083,6.69120024113588e-43,-0.029911624262008035,0,70,255.0,255.0,255.0
445,22.25,8.6873,0.0,-21.2721,0.13525540515047257,6.469576748169239e-44,-1.7409165527924417,0.005598599154736927,8.964508505036288e-43,-0.030180427145557687,0,70,255.0,255.0,255.0
446,22.3,8.694069058046379,4.001847689624926e-45,-21.359182974961183,0.13549270750283124,8.830805515151635e-44,-1.742390881407445,0.0038934949396101292,4.804065628931608e-44,-0.0287927174545654,0,70,255.0,255.0,255.0
447,22.35,8.700847849830105,8.123797019973146e-45,-21.446337931716002,0.1356447546444336,6.949983311062405e-44,-1.7437958245378984,0.0021883907244833315,-8.003695379249966e-43,-0.027405007763573113,0,70,255.0,255.0,255.0
448,22.400000000000002,8.707632112590643,1.0244822505508818e-44,-21.53356140099023,0.1357115465752796,8.271101359015527e-45,-1.7451313821838021,0.0004832865093565338,-1.6487797321393094e-42,-0.026017298072580824,0,70,255.0,255.0,255.0
449,22.450000000000003,8.714417583567453,8.243898660696092e-45,-21.62084991350964,0.13569308329536925,-9.537814010330926e-44,-1.7463975543451564,-0.0012218177057702643,-2.497189926353622e-42,-0.02462958838158854,0,70,255.0,255.0,255.0
450,22.5,8.7212,0.0,-21.7082,0.13558936480470257,-2.4144789127633838e-43,-1.7475943410219608,-0.002926921920896941,-3.345600120567875e-42,-0.023241878690594575,0,70,255.0,255.0,255.0
451,22.55,8.727976562588704,-1.493509890183235e-44,-21.795608570247747,0.1354881987609073,-3.2957014854305353e-43,-1.7487444858534962,-0.0011197198309132537,-1.792901701006807e-43,-0.02276391457082169,0,70,255.0,255.0,255.0
452,22.6,8.734750325877831,-3.0318423228916417e-44,-21.883074050281923,0.13547739282161125,-2.5937690828640675e-43,-1.7498707324790428,0.0006874822590704336,2.9870197803665135e-42,-0.022285950451048805,0,70,255.0,255.0,255.0
453,22.650000000000002,8.741525807872607,-3.823419810508399e-44,-21.97059524519222,0.13555694698681436,-3.0868170506397866e-44,-1.750973080898601,0.002494684349054121,6.153329730833707e-42,-0.02180798633127592,0,70,255.0,255.0,255.0
454,22.700000000000003,8.748307526578255,-3.0766648654166837e-44,-22.058170960068352,0.13572686125651665,3.5595606479697284e-43,-1.7520515311121707,0.004301886439037808,9.319639681300902e-42,-0.021330022211503038,0,70,255.0,255.0,255.0
455,22.75,8.7551,0.0,-22.1458,0.13598713563071813,9.01095797623661e-43,-1.7531060831197514,0.006109088529021367,1.2485949631767867e-41,-0.02085205809173374,0,70,255.0,255.0,255.0
456,22.8,8.761906291598805,5.573854791770448e-44,-22.23348114404784,0.1362504974535471,1.2299725390206975e-42,-1.754135175178592,0.004425384384136309,6.6912002411340624e-43,-0.02031162426189254,0,70,255.0,255.0,255.0
457,22.85,8.768723646658568,1.1314989589569251e-43,-22.32121306715634,0.13642967406913178,9.680078000350025e-43,-1.7551372455459406,0.0027416802392512506,-1.1147709583541055e-41,-0.01977119043205134,0,70,255.0,255.0,255.0
458,22.900000000000002,8.77554785591893,1.4269196991482712e-43,-22.408994418240916,0.1365246654774722,1.1520158066657586e-43,-1.756112294221797,0.0010579760943661923,-2.296453919119552e-41,-0.01923075660221014,0,70,255.0,255.0,255.0
459,22.950000000000003,8.782374710119527,1.1482269595597131e-43,-22.496823846216998,0.1365354716785684,-1.3284461190845822e-42,-1.7570603212061615,-0.0006257280505188659,-3.4781368798849977e-41,-0.018690322772368942,0,70,255.0,255.0,255.0
460,23.0,8.7892,0.0,-22.5847,0.13646209267242032,-3.3629352992183055e-42,-1.757981326499034,-0.0023094321954042485,-4.659819840650359e-41,-0.018149888942517123,0,70,255.0,255.0,255.0
461,23.05,8.79602067101608,-2.0801909276898553e-43,-22.672621253560898,0.13637381142489097,-4.590320007539736e-42,-1.758858813432137,-0.0012218177057703296,-2.4971899263529475e-42,-0.01694958838159975,0,70,255.0,255.0,255.0
462,23.1,8.802838287487896,-4.222811603538536e-43,-22.76058488109275,0.1363399109018433,-3.612654291853604e-42,-1.7596762853371941,-0.0001342032161364107,4.1603818553797695e-41,-0.015749287820682377,0,70,255.0,255.0,255.0
463,23.150000000000002,8.809655568451673,-5.325336815542245e-43,-22.848587881844153,0.13636039110327733,-4.2993815215990715e-43,-1.7604337422142053,0.0009534112734975084,8.570482703394835e-41,-0.014548987259765004,0,70,255.0,255.0,255.0
464,23.200000000000003,8.816475232943631,-4.2852413516971825e-43,-22.936627255063705,0.13643525202919304,4.957828411541353e-42,-1.7611311840631705,0.002041025763131427,1.2980583551409898e-40,-0.013348686698847631,0,70,255.0,255.0,255.0
465,23.25,8.8233,0.0,-23.0247,0.13656449367959045,1.255064539924956e-41,-1.76176861088409,0.003128640252764825,1.739068439942465e-40,-0.01214838613792324,0,70,255.0,255.0,255.0
466,23.3,8.830131824336874,7.763378231582375e-43,-23.11280344170858,0.13670225684688647,1.7131307491138247e-41,-1.762365571092826,0.0023818864390761866,9.319639681298361e-42,-0.011730022211526142,0,70,255.0,255.0,255.0
467,23.35,8.836969603389845,1.5759747455197214e-42,-23.20093620847268,0.13680268232349807,1.3482609367379408e-41,-1.7629416131052424,0.0016351326253875485,-1.5526756463164977e-40,-0.011311658285129044,0,70,255.0,255.0,255.0
468,23.400000000000002,8.843811470274378,1.9874427563020707e-42,-23.289097254382497,0.13686577010942524,1.6045510279730445e-42,-1.7634967369213392,0.0008883788116989103,-3.198547689445979e-40,-0.010893294358731946,0,70,255.0,255.0,255.0
469,23.450000000000003,8.85065555810594,1.5992738447229012e-42,-23.37728553352821,0.13689152020466797,-1.8502867527080828e-41,-1.7640309425411158,0.000141624998010272,-4.8444197325754605e-40,-0.010474930432334849,0,70,255.0,255.0,255.0
470,23.5,8.8575,0.0,-23.4655,0.1368799326092263,-4.683964629777993e-41,-1.7645442299645726,-0.000605128815678091,-6.490291775704824e-40,-0.010056566505930675,0,70,255.0,255.0,255.0
471,23.55,8.864343231636427,-2.897332199863965e-42,-23.553739379604806,0.1368491611875705,-6.393490995701326e-41,-1.7650229021965322,-0.0006257280505530097,-3.4781368798840566e-41,-0.00909032277245386,0,70,255.0,255.0,255.0
472,23.6,8.871184898952729,-5.881617821725034e-42,-23.642001485016543,0.136817359804171,-5.031778317766404e-41,-1.765453262241818,-0.0006463272854279284,5.794664399728013e-40,-0.008124079038977045,0,70,255.0,255.0,255.0
473,23.650000000000002,8.878024950450817,-7.41723734365406e-42,-23.730283900625878,0.13678452845902772,-5.988265959732285e-42,-1.7658353101004298,-0.0006669265203028471,1.1937142487444431e-39,-0.00715783530550023,0,70,255.0,255.0,255.0
474,23.700000000000003,8.884863334632602,-5.968571243721887e-42,-23.81858421082348,0.1367506671521407,6.9053641696782e-41,-1.766169045772368,-0.0006875257551777658,1.807962057516085e-39,-0.0061915915720234145,0,70,255.0,255.0,255.0
475,23.75,8.8917,0.0,-23.9069,0.13671577588350994,1.7480793979187017e-40,-1.766454469257632,-0.0007081249900535713,2.4222098662876833e-39,-0.005225347838551997,0,70,255.0,255.0,255.0
476,23.8,8.898535249117417,1.0812990976297622e-41,-23.995229439872205,0.13670109840283698,2.3860833233691476e-40,-1.7667268201210657,0.00012102576313527467,1.2980583551406393e-40,-0.00566868669879917,0,70,255.0,255.0,255.0
477,23.85,8.905370800799245,2.195049654138041e-41,-24.08357305146116,0.13672787845982345,1.877885233432767e-40,-1.767021337927512,0.0009501765163241207,-2.1625981952595554e-39,-0.006112025559046342,0,70,255.0,255.0,255.0
478,23.900000000000002,8.912208727922362,2.7681506618314154e-41,-24.17193194311401,0.13679611605446942,2.2348512810956074e-41,-1.7673380226769706,0.0017793272695129669,-4.455002226033174e-39,-0.006555364419293516,0,70,255.0,255.0,255.0
479,23.950000000000003,8.919051103363653,2.2275011130164643e-41,-24.26030722317791,0.13690581118677478,-2.5771169926004715e-40,-1.7676768743694413,0.0026084780227018127,-6.747406256806794e-39,-0.0069987032795406886,0,70,255.0,255.0,255.0
480,24.0,8.9259,0.0,-24.3487,0.13705696385673954,-6.523921128697007e-40,-1.7680378930049245,0.0034376287758899338,-9.039810287580249e-39,-0.007442042139798488,0,70,255.0,255.0,255.0
481,24.05,8.9327565718939,-4.035463170532652e-41,-24.437110060906377,0.13719444520108692,-8.904984193906457e-40,-1.7683418173192267,0.002061624998006087,-4.844419732574146e-40,-0.004714930432280402,0,70,255.0,255.0,255.0
482,24.1,8.939618297850293,-8.19203683437966e-41,-24.525531909138838,0.13726312635654014,-7.00836310195443e-40,-1.7685093860481524,0.0006856212201222399,8.07092634106542e-39,-0.001987818724762314,0,70,255.0,255.0,255.0
483,24.150000000000002,8.94648173785974,-1.0330878912960259e-40,-24.613958726918106,0.13726300732309915,-8.340578528409215e-41,-1.7685405991917027,-0.0006903825577616075,1.6626294655388252e-38,0.0007392929827557734,0,70,255.0,255.0,255.0
484,24.200000000000003,8.95334345191279,-8.313147327693667e-41,-24.70238369646492,0.137194088100764,9.617931553434064e-40,-1.7684354567498768,-0.002066386335645454,2.518166296971109e-38,0.00346640469027386,0,70,255.0,255.0,255.0
485,24.25,8.9602,0.0,-24.7908,0.13705636868953464,2.4347605116869325e-39,-1.7681939587226754,-0.0034423901135296475,3.3737031284033315e-38,0.006193516397791754,0,70,255.0,255.0,255.0
486,24.3,8.967048863306983,1.5060553584500844e-40,-24.879202316502294,0.13690512079281705,3.323385345225668e-39,-1.7679059106020318,-0.002607525755173678,1.8079620575155956e-39,0.005328408427950736,0,70,255.0,255.0,255.0
487,24.35,8.973891207799582,3.0573097683380596e-40,-24.967591311983515,0.13679561611401728,2.615556717438495e-39,-1.7676611178798802,-0.001772661396817708,-3.0121107169002124e-38,0.004463300458109718,0,70,255.0,255.0,255.0
488,24.400000000000002,8.980729120638685,3.855536499000962e-40,-25.055969149213592,0.13672785465313528,3.112746283254128e-40,-1.767459580556221,-0.0009377970384617383,-6.205017639551983e-38,0.0035981924882687,0,70,255.0,255.0,255.0
489,24.450000000000003,8.987564688985195,3.102508819775821e-40,-25.144337990962445,0.13670183641017108,-3.589460922113577e-39,-1.7673012986310535,-0.0001029326801057686,-9.397924562203756e-38,0.0027330845184276816,0,70,255.0,255.0,255.0
490,24.5,8.9944,0.0,-25.2327,0.13671756138512473,-9.08664993387803e-39,-1.7671862721043783,0.0007319316782499197,-1.2590831484855298e-37,0.0018679765485885014,0,70,255.0,255.0,255.0
491,24.55,9.001236774878166,-5.620675116747072e-40,-25.321056673084467,0.13675307162764863,-1.2403042961512023e-38,-1.767074540272651,0.0006884780227057069,-6.747406256804955e-39,0.0026012967205026986,0,70,255.0,255.0,255.0
492,24.6,9.008075270951386,-1.1410035389914275e-39,-25.409406842927126,0.13678640918739532,-9.761390559558533e-39,-1.766926142432328,0.000645024367161494,1.1241350233494307e-37,0.003334616892416896,0,70,255.0,255.0,255.0
493,24.650000000000002,9.014915379585526,-1.4389058104707817e-39,-25.49774867622756,0.13681757406436476,-1.1616927280175544e-39,-1.7667410785834092,0.0006015707116172812,2.3157441092669107e-37,0.004067937064331093,0,70,255.0,255.0,255.0
494,24.700000000000003,9.021756992146443,-1.157872054633392e-39,-25.586080339685328,0.136846566258557,1.3396050533110906e-38,-1.766519348725895,0.0005581170560730684,3.5073531951843914e-37,0.0048012572362452904,0,70,255.0,255.0,255.0
495,24.75,9.0286,0.0,-25.6744,0.13687338576997204,3.3911839223825184e-38,-1.7662609528597848,0.0005146634005277484,4.698962281101787e-37,0.005534577408155883,0,70,255.0,255.0,255.0
496,24.8,9.03544403718036,2.0976645108538206e-39,-25.762705391159862,0.13688259269659311,4.6288786500822437e-38,-1.765939928307326,-0.00014638633568441026,2.518166296970426e-38,0.007306404690194793,0,70,255.0,255.0,255.0
497,24.85,9.04228770839488,4.258283179131904e-39,-25.850992516308,0.13685874713640359,3.6430005520795635e-38,-1.7655303123907653,-0.0008074360718965689,-4.195329021707702e-37,0.009078231972233702,0,70,255.0,255.0,255.0
498,24.900000000000002,9.04912936101922,5.3700695919830315e-39,-25.939256945876206,0.1368018490894035,4.33549628374483e-39,-1.7650321051101026,-0.0014684858081087273,-8.642474673112446e-37,0.010850059254272612,0,70,255.0,255.0,255.0
499,24.950000000000003,9.05596734242904,4.321237336555984e-39,-26.027494250296275,0.13671189855559274,-4.999474121033006e-38,-1.764445306465338,-0.002129535544320886,-1.308962032451719e-36,0.012621886536311522,0,70,255.0,255.0,255.0
500,25.0,9.0628,0.0,-26.1157,0.13658889553497136,-1.265607069614227e-37,-1.7637699164564717,-0.00279058528053322,-1.7536765975921622e-36,0.014393713818344978,0,70,255.0,255.0,255.0
501,25.05,9.069626276400397,-7.828590531740574e-39,-26.203870562276094,0.13646855758595636,-1.7275210304177773e-37,-1.7630537464980531,-0.0020229326800669137,-9.397924562201248e-38,0.01425308451840017,0,70,255.0,255.0,255.0
502,25.1,9.076447495469097,-1.5892129177536187e-38,-26.292005491840893,0.13638660226696467,-1.3595863152362408e-37,-1.7623446080046317,-0.0012552800796006072,1.5657181063481372e-36,0.014112455218455363,0,70,255.0,255.0,255.0
503,25.150000000000002,9.083265576337594,-2.0041372557461351e-38,-26.38010514026764,0.1363430295779963,-1.6180292406961806e-38,-1.7616425009762073,-0.00048762747913430127,3.225415458318287e-36,0.013971825918510554,0,70,255.0,255.0,255.0
504,25.200000000000003,9.090082438137395,-1.6127077291590551e-38,-26.4681698591296,0.13633783951905123,1.865829143082092e-37,-1.7609474254127808,0.00028002512133200536,4.885112810288437e-36,0.013831196618565748,0,70,255.0,255.0,255.0
505,25.25,9.0969,0.0,-26.5562,0.1363710320901295,4.7233098862186564e-37,-1.7602593813143512,0.001047677721799145,6.544810162258468e-36,0.013690567318626279,0,70,255.0,255.0,255.0
506,25.3,9.103719657218049,2.921669761610848e-38,-26.644195559735774,0.13641117695957716,6.447196256662884e-37,-1.7595570857004765,0.0005581170561069923,3.507353195183445e-37,0.014401257236362151,0,70,255.0,255.0,255.0
507,25.35,9.110540709728737,5.931023353101285e-38,-26.732155116328453,0.1364268437957402,5.074045205737005e-37,-1.758819255590715,6.855639041483956e-05,-5.843339523221779e-36,0.015111947154098025,0,70,255.0,255.0,255.0
508,25.400000000000002,9.1173619336304,7.479542063786234e-38,-26.82007689305325,0.13641803259861862,6.038567334410217e-38,-1.7580458909850665,-0.0004210042752773133,-1.2037414365961904e-35,0.015822637071833897,0,70,255.0,255.0,255.0
509,25.450000000000003,9.124182105021378,6.018707182980624e-38,-26.907959113185367,0.13638474336821246,-6.9633691602250685e-37,-1.7572369918835316,-0.000910564940969466,-1.8231489208702026e-35,0.01653332698956977,0,70,255.0,255.0,255.0
510,25.5,9.131,0.0,-26.9958,0.1363269761045217,-1.7627632475260398e-36,-1.75639255828611,-0.0014001256066618062,-2.4425564051441713e-35,0.017244016907303816,0,70,255.0,255.0,255.0
511,25.55,9.137814294727411,-1.0903819993269332e-37,-27.083597598780827,0.13623873457574542,-2.4061263996233762e-36,-1.7555019107000218,-0.0021295355443896927,-1.3089620324513649e-36,0.018381886536225894,0,70,255.0,255.0,255.0
512,25.6,9.14462326561596,-2.213488049465152e-37,-27.171349242845313,0.13611402255008276,-1.8936594507711786e-36,-1.7545543696324872,-0.0028589454821175793,2.1807639986538983e-35,0.01951975616514797,0,70,255.0,255.0,255.0
513,25.650000000000002,9.151425089140803,-2.7914030999398797e-37,-27.259052087519386,0.13595284002753366,-2.253624009694461e-37,-1.7535499350835069,-0.003588355419845466,4.492424200552933e-35,0.020657625794070048,0,70,255.0,255.0,255.0
514,25.700000000000003,9.1582179417771,-2.2462121002763427e-37,-27.346703288128975,0.1357551870080982,2.5987647497818178e-36,-1.7524886070530803,-0.004317765357573352,6.804084402451968e-35,0.021795495422992126,0,70,255.0,255.0,255.0
515,25.75,9.165,0.0,-27.4343,0.13552106349177634,6.578722001482294e-36,-1.7513703855412077,-0.0050471752953025195,9.115744604350838e-35,0.02293336505192478,0,70,255.0,255.0,255.0
516,25.8,9.171770363872309,4.0693610211466485e-37,-27.52183964514093,0.13530588473742816,8.979785972827214e-36,-1.7502112714994458,-0.003559974878625095,4.885112810287122e-36,0.023431196618549074,0,70,255.0,255.0,255.0
517,25.85,9.178531827807422,8.260849862550478e-37,-27.60932071229031,0.13516506600391381,7.067233282511014e-36,-1.7490272658793529,-0.0020727744619476705,-8.138722042293414e-35,0.023929028185173364,0,70,255.0,255.0,255.0
518,25.900000000000002,9.18528810980638,1.04176581933809e-36,-27.69674195686923,0.13509860729123338,8.41063930533685e-37,-1.7478183686809285,-0.000585574045270246,-1.676595536561554e-34,0.024426859751797658,0,70,255.0,255.0,255.0
519,25.950000000000003,9.192042927870228,8.382977682807308e-37,-27.784102134298763,0.1351065085993868,-9.698722083104765e-36,-1.746584579904173,0.0009016263714071784,-2.5393188688937666e-34,0.024924691318421947,0,70,255.0,255.0,255.0
520,26.0,9.1988,0.0,-27.8714,0.13518876992837406,-2.4552124758403135e-35,-1.7453258995490863,0.002388826788084719,-3.4020422012259175e-34,0.025422522885042653,0,70,255.0,255.0,255.0
521,26.05,9.205561849783349,-1.518706208525966e-36,-27.958634220655476,0.13527372647455183,-3.3513017491685484e-35,-1.7440370033022183,0.0010094350590266004,-1.8231489208697058e-35,0.026133326989678463,0,70,255.0,255.0,255.0
522,26.1,9.212326223154347,-3.082991140073676e-36,-28.04580310799347,0.13528971343427673,-2.6375273679272866e-35,-1.7427125668501184,-0.0003699566700315184,3.0374124170519763e-34,0.02684413109431427,0,70,255.0,255.0,255.0
523,26.150000000000002,9.219089671633672,-3.8879229673583715e-36,-28.132904885003736,0.13523673080754867,-3.1388933211652916e-36,-1.7413525901927867,-0.0017493483990896376,6.257139726190922e-34,0.027554935198950078,0,70,255.0,255.0,255.0
524,26.200000000000003,9.225848746741997,-3.12856986309529e-36,-28.219937774675998,0.13511477859436777,3.619612358263726e-35,-1.7399570733302232,-0.003128740128147756,9.47686703532987e-34,0.028265739303585887,0,70,255.0,255.0,255.0
525,26.25,9.2326,0.0,-28.3069,0.13492385679473393,9.162977703213024e-35,-1.7385260162624283,-0.004508131857205333,1.2696594344468584e-33,0.02897654340822875,0,70,255.0,255.0,255.0
526,26.3,9.239340636994289,5.6678887319891985e-36,-28.39378987223719,0.13470320936436359,1.2507228399391469e-34,-1.7370647152916499,-0.004317765357607814,6.804084402450114e-35,0.029475495422913774,0,70,255.0,255.0,255.0
527,26.35,9.246070479575186,1.1505879574039654e-35,-28.48060605573582,0.13449208025897313,9.843386143458046e-35,-1.7355784667201368,-0.004127398858010295,-1.1335777463978561e-33,0.0299744474375988,0,70,255.0,255.0,255.0
528,26.400000000000002,9.252790003658937,1.4509926050095388e-35,-28.56734730311586,0.13429046947856255,1.1714509354127444e-35,-1.7340672705478897,-0.003937032358412776,-2.335196336820213e-33,0.03047339945228382,0,70,255.0,255.0,255.0
529,26.450000000000003,9.259499685161792,1.1675981684100426e-35,-28.654012366997268,0.13409837702313185,-1.3508577224744427e-34,-1.7325311267749084,-0.0037466658588152573,-3.5368149272425705e-33,0.030972351466968844,0,70,255.0,255.0,255.0
530,26.5,9.2662,0.0,-28.7406,0.133915802892681,-3.419669833701178e-34,-1.7309700354011932,-0.0035562993592184178,-4.738433517664843e-33,0.031471303481648505,0,70,255.0,255.0,255.0
531,26.55,9.27289160223949,-2.1152848719430827e-35,-28.82710869039578,0.1337534360679868,-4.667761184839734e-34,-1.7293681355311918,-0.0029383736285501084,-2.539318868893085e-34,0.03260469131840013,0,70,255.0,255.0,255.0
532,26.6,9.279575858544908,-4.294052715608495e-35,-28.913535869063256,0.133621965529826,-3.6736017205904903e-34,-1.7277095662693531,-0.002320447897881799,4.230569743886226e-33,0.03373807915515176,0,70,255.0,255.0,255.0
533,26.650000000000002,9.28625431373058,-5.415178123302322e-35,-28.99987870253285,0.13352139127819862,-4.371914409534456e-35,-1.7259943276156766,-0.0017025221672134897,8.71507137466176e-33,0.03487146699190338,0,70,255.0,255.0,255.0
534,26.700000000000003,9.292928512610837,-4.357535687330642e-35,-29.086134357334963,0.13345171331310465,5.041469654071395e-34,-1.7242224195701628,-0.0010845964365451804,1.3199573005437294e-32,0.03600485482865501,0,70,255.0,255.0,255.0
535,26.75,9.2996,0.0,-29.1723,0.1334129316345441,1.2762381564483409e-33,-1.7223938421328113,-0.000466670705877803,1.7684074636212514e-32,0.03713824266539589,0,70,255.0,255.0,255.0
536,26.8,9.306269754047753,7.894350614573411e-35,-29.25837296617971,0.13337104636369335,1.7420321899419785e-33,-1.7205187425835855,-0.0012087401281522074,9.476867035327308e-34,0.03786573930363134,0,70,255.0,255.0,255.0
537,26.85,9.312936486245183,1.6025622905030013e-34,-29.344351268011163,0.13329205762172888,1.3710068268016154e-33,-1.7186072682024482,-0.001950809550426612,-1.5788701229147052e-32,0.03859323594186679,0,70,255.0,255.0,255.0
538,26.900000000000002,9.31959834141874,2.020971988819974e-34,-29.43023308675276,0.13317596540865068,1.631620670272504e-34,-1.7166594189893989,-0.0026928789727010166,-3.252508916182683e-32,0.039320732580102234,0,70,255.0,255.0,255.0
539,26.950000000000003,9.326253464394865,1.626254458091252e-34,-29.516016603662905,0.13302276972445876,-1.8815020893811147e-33,-1.7146751949444379,-0.003434948394975421,-4.926147709450662e-32,0.04004822921833768,0,70,255.0,255.0,255.0
540,27.0,9.3329,0.0,-29.6017,0.13283247056915315,-4.7629856424232456e-33,-1.7126545960675652,-0.004177017817249329,-6.59978650271852e-32,0.040775725856587286,0,70,255.0,255.0,255.0
541,27.05,9.339536581569503,-2.9462117586350563e-34,-29.68728184488539,0.13263437847725068,-6.501352641283941e-33,-1.7106208941344767,-0.0037466658588494123,-3.536814927241616e-33,0.04057235146695106,0,70,255.0,255.0,255.0
542,27.1,9.346163796474357,-5.980843890451155e-34,-29.772762258892108,0.1324578039832682,-5.116667135147413e-33,-1.70859736092087,-0.0033163139004494958,5.892423517270197e-32,0.040368977077314835,0,70,255.0,255.0,255.0
543,27.150000000000002,9.352782720594462,-7.542370142949663e-34,-29.858141750456134,0.1323027470872057,-6.089291240136596e-34,-1.706583996426745,-0.0028859619420495792,1.2138528527264555e-31,0.0401656026876786,0,70,255.0,255.0,255.0
544,27.200000000000003,9.359394429809711,-6.069264263631945e-34,-29.943420828013444,0.13216920778906324,7.021861392117314e-33,-1.7045808006521022,-0.0024556099836496627,1.8384633537258913e-31,0.03996222829804238,0,70,255.0,255.0,255.0
545,27.25,9.366,0.0,-30.0286,0.13205718608884076,1.777570441324464e-32,-1.7025877735969408,-0.0020252580252497765,2.463073854725283e-31,0.03975885390840439,0,70,255.0,255.0,255.0
546,27.3,9.372599919674238,1.0995411973082883e-33,-30.11367885427875,0.13193143972729598,2.4263378375193782e-32,-1.700549680878513,-0.003004596436541199,1.3199573005433747e-32,0.041764854828700876,0,70,255.0,255.0,255.0
547,27.35,9.379192327857385,2.2320813271301617e-33,-30.198653296420417,0.13175672644518666,1.909566171378803e-32,-1.6984112881140707,-0.0039839348478326216,-2.199082394616608e-31,0.04377085574899736,0,70,255.0,255.0,255.0
548,27.400000000000002,9.385774776203416,2.814850858297868e-33,-30.283518311422725,0.13153304624251272,2.272554429027386e-33,-1.6961725953036133,-0.004963273259124043,-4.530160519287554e-31,0.04577685666929385,0,70,255.0,255.0,255.0
549,27.450000000000003,9.392344816366295,2.2650802596436533e-33,-30.368268884283353,0.1312603991192742,-2.620594347908816e-32,-1.6938336024471412,-0.005942611670415466,-6.8612386439585e-31,0.04778285758959033,0,70,255.0,255.0,255.0
550,27.5,9.3989,0.0,-30.4529,0.1309387850754712,-6.633983201055532e-32,-1.6913943095446544,-0.006921950081706374,-9.19231676862928e-31,0.04978885850988313,0,70,255.0,255.0,255.0
551,27.55,9.405438939733541,-4.103543613369648e-33,-30.537407537999634,0.1306318626135551,-9.055216085949119e-32,-1.6889083823514492,-0.00535494839493642,-4.926147709449326e-32,0.049648229218319885,0,70,255.0,255.0,255.0
552,27.6,9.411964492096095,-8.330240919475532e-33,-30.62179095542622,0.13040329023597755,-7.126597972000471e-32,-1.6864294866228222,-0.0037879467081664672,8.207087226739415e-31,0.049507599926756636,0,70,255.0,255.0,255.0
