idx,t,px,py,pz,vx,vy,vz,ax,ay,az,yaw,mode,ledr,ledg,ledb
0,0.0,-13.5,3.0,0.0,-7.336551845693495e-21,2.9637788444819624e-19,0.019030436776039605,8.803862214832195e-20,-3.5565346133783545e-18,-0.5155652413124753,0,70,255.0,255.0,255.0
1,0.05,-13.5,3.0,0.0003090957239374257,-3.374813849019007e-21,1.3633382684617026e-19,-0.006625999083021784,7.043089771865755e-20,-2.8452276907026836e-18,-0.5106921930499801,0,70,255.0,255.0,255.0
2,0.1,-13.5,3.0,-0.0006585390347500995,-2.934620738277386e-22,1.185511537792786e-20,-0.03203878252895842,5.2823173288993165e-20,-2.1339207680270126e-18,-0.5058191447874851,0,70,255.0,255.0,255.0
3,0.15000000000000002,-13.5,3.0,-0.0028907216554063375,1.9075034798803107e-21,-7.705824995653099e-20,-0.0572079135617703,3.521544885932877e-20,-1.4226138453513416e-18,-0.50094609652499,0,70,255.0,255.0,255.0
4,0.2,-13.5,3.0,-0.006375269517375051,3.2280828121051397e-21,-1.304062691572063e-19,-0.08213339218145743,1.7607724429664382e-20,-7.113069226756706e-19,-0.49607304826249493,0,70,255.0,255.0,255.0
5,0.25,-13.5,3.0,-0.0111,3.6682759228467476e-21,-1.4818894222409812e-19,-0.1068152183880198,0.0,0.0,-0.49119999999999986,0,70,255.0,255.0,255.0
6,0.30000000000000004,-13.5,3.0,-0.017052730482624956,3.228082812105137e-21,-1.304062691572063e-19,-0.13125339218145746,-1.7607724429664407e-20,7.113069226756716e-19,-0.48632695173750495,0,70,255.0,255.0,255.0
7,0.35000000000000003,-13.5,3.0,-0.02422127834459367,1.9075034798803073e-21,-7.705824995653098e-20,-0.15544791356177032,-3.521544885932879e-20,1.4226138453513424e-18,-0.4814539034750101,0,70,255.0,255.0,255.0
8,0.4,-13.5,3.0,-0.032593460965249905,-2.9346207382774086e-22,1.1855115377927883e-20,-0.17939878252895844,-5.282317328899318e-20,2.133920768027013e-18,-0.4765808552125152,0,70,255.0,255.0,255.0
9,0.45,-13.5,3.0,-0.04215709572393743,-3.374813849019009e-21,1.363338268461703e-19,-0.20310599908302182,-7.043089771865757e-20,2.845227690702684e-18,-0.47170780695002035,0,70,255.0,255.0,255.0
10,0.5,-13.5,3.0,-0.0529,-7.336551845693495e-21,2.9637788444819624e-19,-0.22656956322396044,-8.803862214832194e-20,3.5565346133783545e-18,-0.4668347586875261,0,70,255.0,255.0,255.0
11,0.55,-13.5,3.0,-0.06480937379343764,-9.537517399401543e-21,3.8529124978265516e-19,-0.24975243219114862,8.425943506694157e-35,-3.851859888774472e-33,-0.46048000000000017,0,70,255.0,255.0,255.0
12,0.6000000000000001,-13.5,3.0,-0.07786994758687528,-7.336551845693488e-21,2.963778844481959e-19,-0.27261756322396047,8.80386221483221e-20,-3.556534613378362e-18,-0.4541252413124742,0,70,255.0,255.0,255.0
13,0.65,-13.5,3.0,-0.09206583448359407,-7.336551845693488e-22,2.9637788444819384e-20,-0.29516495632239603,1.760772442966439e-19,-7.113069226756712e-18,-0.44777048262494834,0,70,255.0,255.0,255.0
14,0.7000000000000001,-13.5,3.0,-0.10738114758687527,1.0271172583970913e-20,-4.149290382274756e-19,-0.3173946114864553,2.6411586644496594e-19,-1.066960384013507e-17,-0.4414157239374224,0,70,255.0,255.0,255.0
15,0.75,-13.5,3.0,-0.1238,2.567793145992723e-20,-1.0373225955686868e-18,-0.3393065287161383,3.5215448859328775e-19,-1.4226138453513418e-17,-0.4350609652498987,0,70,255.0,255.0,255.0
16,0.8,-13.5,3.0,-0.14130657434362454,3.4921986785501034e-20,-1.4107587299734143e-18,-0.3609048790539482,1.7607724429664082e-20,-7.113069226756583e-19,-0.42887304826249545,0,70,255.0,255.0,255.0
17,0.8500000000000001,-13.5,3.0,-0.15988533130790536,2.743870390289364e-20,-1.1084532878362527e-18,-0.3821938335423879,-3.169390397339596e-19,1.2803524608162102e-17,-0.42268513127509216,0,70,255.0,255.0,255.0
18,0.9,-13.5,3.0,-0.17952080110037383,3.228082812105132e-21,-1.3040626915720563e-19,-0.40317339218145737,-6.514858038975824e-19,2.6318356138999834e-17,-0.41649721428768893,0,70,255.0,255.0,255.0
19,0.9500000000000001,-13.5,3.0,-0.20019751392856158,-3.770987648686464e-20,1.5233823260637324e-18,-0.4238435549711568,-9.86032568061206e-19,3.983318766983759e-17,-0.4103092973002857,0,70,255.0,255.0,255.0
20,1.0,-13.5,3.0,-0.2219,-9.537517399401544e-20,3.852912497826551e-18,-0.444204321911486,-1.320579332224829e-18,5.334801920067533e-17,-0.4041213803128847,0,70,255.0,255.0,255.0
21,1.05,-13.5,3.0,-0.24461232883206424,-1.301504297426026e-19,5.2577436701110015e-18,-0.4642280515930587,-7.043089771865633e-20,2.8452276907026393e-18,-0.3968278069500214,0,70,255.0,255.0,255.0
22,1.1,-13.5,3.0,-0.2683167271815035,-1.0241826376588107e-19,4.137435266896816e-18,-0.4838871026064882,1.1797175367875163e-18,-4.765756381927005e-17,-0.38953423358715816,0,70,255.0,255.0,255.0
23,1.1500000000000001,-13.5,3.0,-0.29299496111491063,-1.2178676063850837e-20,4.919872881839915e-19,-0.5031814749517745,2.429865971293689e-18,-9.816035532924275e-17,-0.38224066022429487,0,70,255.0,255.0,255.0
24,1.2000000000000002,-13.5,3.0,-0.3186287966988786,1.4056833336348802e-19,-5.6786002660274675e-18,-0.5221111686289177,3.680014405799862e-18,-1.4866314683921543e-16,-0.3749470868614316,0,70,255.0,255.0,255.0
25,1.25,-13.5,3.0,-0.3452,3.558227645161345e-19,-1.4374327395737518e-17,-0.5406761836379177,4.930162840306029e-18,-1.9916593834918787e-16,-0.36765351349857056,0,70,255.0,255.0,255.0
26,1.3,-13.5,3.0,-0.37269131032811864,4.856797321849094e-19,-1.9620215950470593e-17,-0.5589349145738176,2.6411586644496195e-19,-1.0669603840134883e-17,-0.3626957239374228,0,70,255.0,255.0,255.0
27,1.35,-13.5,3.0,-0.4010893599660808,3.822343511606307e-19,-1.544128777975101e-17,-0.5769457560316601,-4.401931107416105e-18,1.778267306689181e-16,-0.35773793437627505,0,70,255.0,255.0,255.0
28,1.4000000000000001,-13.5,3.0,-0.4303817544399838,4.548662144329855e-20,-1.8375428835787723e-18,-0.594708708011445,-9.067978081277172e-18,3.663230651779711e-16,-0.35278014481512726,0,70,255.0,255.0,255.0
29,1.4500000000000002,-13.5,3.0,-0.4605560992759245,-5.245634569670874e-19,2.1191018738046126e-17,-0.6122237705131728,-1.3734025055138238e-17,5.548193996870241e-16,-0.3478223552539795,0,70,255.0,255.0,255.0
30,1.5,-13.5,3.0,-0.4916,-1.3279158840705226e-18,5.3644397085123516e-17,-0.629490943536843,-1.8400072028999287e-17,7.43315734196076e-16,-0.3428645656928335,0,70,255.0,255.0,255.0
31,1.55,-13.5,3.0,-0.5235000298554614,-1.8125684989970353e-18,7.322312013177135e-17,-0.6464482901116709,-9.860325680611913e-19,3.983318766983684e-17,-0.33542929730028737,0,70,255.0,255.0,255.0
32,1.6,-13.5,3.0,-0.5562386329541734,-1.4265191408766417e-18,5.76277158521072e-17,-0.6630338732668718,1.6428006892876905e-17,-6.636493588564023e-16,-0.32799402890774126,0,70,255.0,255.0,255.0
33,1.6500000000000001,-13.5,3.0,-0.5897972211251548,-1.6976780970934299e-19,6.85818424613105e-18,-0.6792476930024451,3.3842046353815e-17,-1.3671319053826414e-15,-0.3205587605151951,0,70,255.0,255.0,255.0
34,1.7000000000000002,-13.5,3.0,-0.6241572061974242,1.9576854945048613e-18,-7.908547468615703e-17,-0.6950897493183913,5.12560858147531e-17,-2.070614451908881e-15,-0.31312349212264895,0,70,255.0,255.0,255.0
35,1.75,-13.5,3.0,-0.6593,4.955840771765956e-18,-2.0020326094475654e-16,-0.7105600422147099,6.867012527569113e-17,-2.7740969984351157e-15,-0.30568822373010196,0,70,255.0,255.0,255.0
36,1.8,-13.5,3.0,-0.6952077702500361,6.764594263803231e-18,-2.732722645766148e-16,-0.7257039249794983,3.680014405799819e-18,-1.486631468392124e-16,-0.3000670868614323,0,70,255.0,255.0,255.0
37,1.85,-13.5,3.0,-0.731865708217226,5.323842212345938e-18,-2.1506957562867776e-16,-0.7405667509008531,-6.131009646409149e-17,2.476770704756691e-15,-0.29444594999276263,0,70,255.0,255.0,255.0
38,1.9000000000000001,-13.5,3.0,-0.7692597610593976,6.335846173940753e-19,-2.559519410094542e-17,-0.7551485199787745,-1.263002073339828e-16,5.1022045563525935e-15,-0.28882481312409297,0,70,255.0,255.0,255.0
39,1.9500000000000002,-13.5,3.0,-0.8073758759343798,-7.306178521052357e-18,2.9515088000658207e-16,-0.7694492322132626,-1.912903182038741e-16,7.727638407948498e-15,-0.2832036762554233,0,70,255.0,255.0,255.0
40,2.0,-13.5,3.0,-0.8462,-1.84954472029933e-17,7.471686466939026e-16,-0.783468887604317,-2.562804290737652e-16,1.0353072259544389e-14,-0.2775825393867546,0,70,255.0,255.0,255.0
41,2.0500000000000003,-13.5,3.0,-0.8857176891443942,-2.5245808556215893e-17,1.019865938174688e-15,-0.7971840099703354,-1.3734025055136933e-17,5.548193996869704e-16,-0.27102235525398116,0,70,255.0,255.0,255.0
42,2.1,-13.5,3.0,-0.9259129341769228,-1.98688497085071e-17,8.026505866626039e-16,-0.8105711231297151,2.2881237896348916e-16,-9.24343346017036e-15,-0.26446217112120785,0,70,255.0,255.0,255.0
43,2.15,-13.5,3.0,-0.9667693346372548,-2.364570659867054e-18,9.552259215765522e-17,-0.8236302270824561,4.713587829821153e-16,-1.904168632002769e-14,-0.2579019869884345,0,70,255.0,255.0,255.0
44,2.2,-13.5,2.9999999999999996,-1.008270490065058,2.7267028589704563e-17,-1.1015180453401712e-15,-0.8363613218285586,7.139051870007435e-16,-2.883993917988511e-14,-0.2513418028556611,0,70,255.0,255.0,255.0
45,2.25,-13.5,3.0,-1.0504,6.902594804020725e-17,-2.788471325830854e-15,-0.8487644073680222,9.564515910193693e-16,-3.8638192039742444e-14,-0.24478161872289217,0,70,255.0,255.0,255.0
46,2.3000000000000003,-13.5,3.0,-1.093141473172388,9.421863996106034e-17,-3.806191488122138e-15,-0.8608400351391609,5.125608581474805e-17,-2.070614451908683e-15,-0.23824349212265097,0,70,255.0,255.0,255.0
47,2.35,-13.5,2.9999999999999996,-1.1364785550750827,7.415155662168246e-17,-2.9955327710217392e-15,-0.8725887565802873,-8.539394193898653e-16,3.449696313592475e-14,-0.23170536552240983,0,70,255.0,255.0,255.0
48,2.4000000000000004,-13.5,2.9999999999999996,-1.1803949003915835,8.82469802207333e-18,-3.564951745296435e-16,-0.8840105716914018,-1.7591349245944866e-15,7.106454072375852e-14,-0.22516723892216867,0,70,255.0,255.0,255.0
49,2.45,-13.5,2.9999999999999996,-1.2248741638053893,-1.0176193583776594e-16,4.1109213013541025e-15,-0.8951054804725042,-2.6643304297991e-15,1.0763211831159194e-13,-0.21862911232192753,0,70,255.0,255.0,255.0
50,2.5,-13.5,3.0,-1.2699,-2.576083449578357e-16,1.0406716656629512e-14,-0.9058734829235946,-3.5695259350037126e-15,1.441996958994254e-13,-0.21209098572169616,0,70,255.0,255.0,255.0
51,2.5500000000000003,-13.5,3.0000000000000004,-1.3154564181660546,-3.5162875128802535e-16,1.4204900014313862e-14,-0.9163358494730226,-1.9129031820385517e-16,7.727638407947784e-15,-0.20640367625542236,0,70,255.0,255.0,255.0
52,2.6,-13.5,3.0000000000000013,-1.361528845522747,-2.767373767782227e-16,1.1179480497424353e-14,-0.9265138505491369,3.1869452985959723e-15,-1.2874441908352861e-13,-0.20071636678914861,0,70,255.0,255.0,255.0
53,2.6500000000000004,-13.5,3.000000000000002,-1.4081030637964131,-3.293422142842639e-17,1.3304581059609251e-15,-0.9364074861519375,6.56518091539583e-15,-2.6521647657500625e-13,-0.19502905732287484,0,70,255.0,255.0,255.0
54,2.7,-13.5,3.0000000000000013,-1.4551648547133855,3.797807147613594e-16,-1.5342167160076237e-14,-0.9460167562814243,9.943416532195657e-15,-4.016885340664826e-13,-0.1893417478566011,0,70,255.0,255.0,255.0
55,2.75,-13.5,3.0,-1.5027,9.614074317911356e-16,-3.8838395300687196e-14,-0.9553416609375975,1.3321652148995484e-14,-5.38160591557959e-13,-0.18365443839032913,0,70,255.0,255.0,255.0
56,2.8000000000000003,-13.5,2.9999999999999973,-1.5506936541633953,1.3122963651910415e-15,-5.3013408569133303e-14,-0.9643445669687474,7.139051870006766e-16,-2.883993917988232e-14,-0.1764618028556629,0,70,255.0,255.0,255.0
57,2.85,-13.5,2.999999999999995,-1.5991284628339293,1.032797950491209e-15,-4.1722389218675654e-14,-0.9729878412231638,-1.1893841774994018e-14,4.804807131981899e-13,-0.16926916732099676,0,70,255.0,255.0,255.0
58,2.9000000000000004,-13.5,2.999999999999994,-1.647986444422766,1.2291218769163271e-16,-4.965337249314052e-15,-0.981271483700847,-2.4501588736988827e-14,9.898013655762666e-13,-0.16207653178633052,0,70,255.0,255.0,255.0
59,2.95,-13.5,2.9999999999999956,-1.6972496173410685,-1.4173609232076706e-15,5.725774733895087e-14,-0.9891954944017969,-3.710933569898352e-14,1.4991220179543388e-12,-0.15488389625166438,0,70,255.0,255.0,255.0
60,3.0,-13.5,3.0,-1.7469,-3.588021382206707e-15,1.4494686454611928e-13,-0.9967598733260133,-4.971708266097824e-14,2.0084426703324102e-12,-0.14769126071699556,0,70,255.0,255.0,255.0
61,3.0500000000000003,-13.5,3.000000000000009,-1.796920165180366,-4.897556709476141e-15,1.9784873426221933e-13,-1.0039978826519866,-2.6643304297988495e-15,1.0763211831158158e-13,-0.14182911232193526,0,70,255.0,255.0,255.0
62,3.1,-13.5,3.0000000000000187,-1.8472949031415362,-3.854454425186614e-15,1.5571007637727828e-13,-1.010942784558207,4.438842180138011e-14,-1.7931784337092301e-12,-0.13596696392687502,0,70,255.0,255.0,255.0
63,3.1500000000000004,-13.5,3.000000000000023,-1.898009558512524,-4.58714529338103e-16,1.853089089129524e-14,-1.0175945790446743,9.14411740325595e-14,-3.6939889857300596e-12,-0.1301048155318147,0,70,255.0,255.0,255.0
64,3.2,-13.5,3.000000000000018,-1.9490494759223411,5.2896629780693256e-15,-2.1368882219572716e-13,-1.0239532661113884,1.3849392626373845e-13,-5.5947995377508705e-12,-0.12424266713675444,0,70,255.0,255.0,255.0
65,3.25,-13.5,3.0,-2.0004,1.3390678097035692e-14,-5.409490628837899e-13,-1.0300188457583495,1.8554667849491743e-13,-7.495610089771685e-12,-0.11838051874169331,0,70,255.0,255.0,255.0
66,3.3000000000000003,-13.5,2.9999999999999667,-2.0520464851151425,1.8277930472713524e-14,-7.383815284797441e-13,-1.0357919024233069,9.94341653219472e-15,-4.016885340664444e-13,-0.11254174785659818,0,70,255.0,255.0,255.0
67,3.35,-13.499999999999996,2.999999999999932,-2.103974324599927,1.4385019750255242e-14,-5.811179162904375e-13,-1.0412730205440093,-1.6565984543052642e-13,6.692233021638733e-12,-0.10670297697150309,0,70,255.0,255.0,255.0
68,3.4000000000000004,-13.499999999999998,2.9999999999999143,-2.1561689215271396,1.7119459296607848e-15,-6.915822631586711e-14,-1.046462200120457,-3.412631073932492e-13,1.3786154577343974e-11,-0.10086420608640796,0,70,255.0,255.0,255.0
69,3.45,-13.499999999999998,2.9999999999999307,-2.208615678969568,-1.9741290989069632e-14,7.97497541443958e-13,-1.0513594411526501,-5.168663693559703e-13,2.088007613304915e-11,-0.09502543520131287,0,70,255.0,255.0,255.0
70,3.5,-13.5,3.0,-2.2613,-4.997469100593606e-14,2.0188493869890404e-12,-1.0559647436405883,-6.924696313186915e-13,2.7973997688754333e-11,-0.0891866643162178,0,70,255.0,255.0,255.0
71,3.5500000000000003,-13.500000000000002,3.000000000000125,-2.3142066943590645,-6.821416518137795e-14,2.7556773796567574e-12,-1.0602425076547854,-3.710933569898007e-14,1.4991220179541993e-12,-0.08192389625166246,0,70,255.0,255.0,255.0
72,3.6,-13.500000000000007,3.0000000000002536,-2.367318198458758,-5.368562457583437e-14,2.168761588784472e-12,-1.0641571332657547,6.182509599207255e-13,-2.4975753652845702e-11,-0.07466112818710718,0,70,255.0,255.0,255.0
73,3.6500000000000004,-13.500000000000007,3.0000000000003197,-2.42061635537892,-6.38906918930503e-15,2.581020143721733e-13,-1.0677086204734962,1.2736112555404371e-12,-5.1450629323645836e-11,-0.06739836012255185,0,70,255.0,255.0,255.0
74,3.7,-13.500000000000007,3.000000000000257,-2.474083008199387,7.367550097820915e-14,-2.976301343580104e-12,-1.0708969692780097,1.9289715511601427e-12,-7.792550499444573e-11,-0.06013559205799657,0,70,255.0,255.0,255.0
75,3.75,-13.5,3.0,-2.5277,1.8650808592670855e-13,-7.534448485072372e-12,-1.073722179679296,2.5843318467798485e-12,-1.044003806652456e-10,-0.052872823993446616,0,70,255.0,255.0,255.0
76,3.8000000000000003,-13.49999999999999,2.999999999999534,-2.5814499374486,2.5457873025279827e-13,-1.0284327990147285e-11,-1.076230066957551,1.3849392626372558e-13,-5.5947995377503244e-12,-0.047442667136758813,0,70,255.0,255.0,255.0
77,3.85,-13.499999999999979,2.999999999999054,-2.635318481565041,2.0035747855308225e-13,-8.093928438847448e-12,-1.0784664463929718,-2.3073439942523755e-12,9.321078158974408e-11,-0.04201251028007106,0,70,255.0,255.0,255.0
78,3.9000000000000004,-13.49999999999997,2.9999999999988067,-2.689292056957183,2.384433082755931e-14,-9.632498311728259e-13,-1.0804313179855582,-4.753181914768499e-12,1.9201636271723935e-10,-0.03658235342338326,0,70,255.0,255.0,255.0
79,3.95,-13.499999999999977,2.99999999999904,-2.7433570882328833,-2.7496071292376697e-13,1.1107707832876458e-11,-1.08212468173531,-7.1990198352845995e-12,2.9082194384473377e-10,-0.031152196566695503,0,70,255.0,255.0,255.0
80,4.0,-13.5,3.0,-2.7975,-6.960576527008981e-13,2.8118944553300443e-11,-1.0835465376422277,-9.6448577558007e-12,3.896275249722282e-10,-0.02572203971000775,0,70,255.0,255.0,255.0
81,4.05,-13.500000000000044,3.0000000000017395,-2.8517063558465368,-9.501007558298149e-13,3.838163458093237e-11,-1.0846452245150107,-5.168663693560012e-13,2.0880076133050504e-11,-0.018225435201311795,0,70,255.0,255.0,255.0
82,4.1000000000000005,-13.500000000000087,3.000000000003531,-2.9059582752810775,-7.477442896364904e-13,3.020695216660518e-11,-1.0853690811623589,8.61112501708886e-12,-3.478673727061338e-10,-0.010728830692615708,0,70,255.0,255.0,255.0
83,4.15,-13.50000000000011,3.000000000004453,-2.960237016792349,-8.898825412093203e-14,3.5948973103191335e-12,-1.0857181075842723,1.7739116403533556e-11,-7.166148215453115e-10,-0.003232226183919752,0,70,255.0,255.0,255.0
84,4.2,-13.500000000000089,3.000000000003583,-3.0145238388690805,1.0261673507168586e-12,-4.145452998792572e-11,-1.0856923037807509,2.686710778997826e-11,-1.0853622703844893e-09,0.004264378324776202,0,70,255.0,255.0,255.0
85,4.25,-13.5,3.0,-3.0688,2.597722524876884e-12,-1.049413297281294e-10,-1.0852916697517947,3.5995099176422955e-11,-1.454109719223667e-09,0.011760982833475708,0,70,255.0,255.0,255.0
86,4.3,-13.49999999999984,2.9999999999935087,-3.123047839165253,3.5458242930664614e-12,-1.432422103335822e-10,-1.0845810349824077,1.928971551160259e-12,-7.792550499445054e-11,0.016664407942001684,0,70,255.0,255.0,255.0
87,4.3500000000000005,-13.499999999999675,2.9999999999868225,-3.177254017310651,2.7906196799928806e-12,-1.1273388022757328e-10,-1.0836252289575945,-3.2137156074103044e-11,1.2982587092347904e-09,0.02156783305052775,0,70,255.0,255.0,255.0
88,4.4,-13.49999999999959,2.999999999983382,-3.231406275873422,3.3210868565617073e-13,-1.3416339410103718e-11,-1.082424251677355,-6.620328369936574e-11,2.6744429234640065e-09,0.026471258159053726,0,70,255.0,255.0,255.0
89,4.45,-13.49999999999967,2.999999999986628,-3.285492356290795,-3.829708689943671e-12,1.5471041211882644e-10,-1.0809781031416892,-1.0026941132462842e-10,4.050627137693223e-09,0.0313746832675797,0,70,255.0,255.0,255.0
90,4.5,-13.5,3.0,-3.3395,-9.694832446806637e-12,3.9164637435921717e-10,-1.0792867833505972,-1.3433553894989112e-10,5.426811351922439e-09,0.036278108376107454,0,70,255.0,255.0,255.0
91,4.55,-13.5000000000006,3.0000000000242255,-3.3934158874924525,-1.3233196416436026e-11,5.345872067533964e-10,-1.0772866355553619,-7.199019835285038e-12,2.908219438447516e-10,0.04372780343331006,0,70,255.0,255.0,255.0
92,4.6000000000000005,-13.500000000001217,3.0000000000491784,-3.4472224554763224,-1.0414734430335034e-11,4.207285687436879e-10,-1.0749140030072664,1.1993749927932332e-10,-4.8451674642330265e-09,0.0511774984905128,0,70,255.0,255.0,255.0
93,4.65,-13.500000000001537,3.0000000000620184,-3.500901079713966,-1.2394464885037477e-12,5.0070460330095725e-11,-1.0721688857063105,2.470740183939294e-10,-9.981156872310715e-09,0.0586271935477154,0,70,255.0,255.0,255.0
94,4.7,-13.500000000001235,3.000000000049906,-3.5544331359677392,1.429266740905782e-11,-5.773871184873799e-10,-1.0690512836524946,3.742105375085355e-10,-1.5117146280388402e-08,0.066076888604918,0,70,255.0,255.0,255.0
95,4.75,-13.5,3.0,-3.6078,3.6181607262349665e-11,-1.4616441677087392e-09,-1.0655611968458187,5.013470566231415e-10,-2.0253135688466086e-08,0.07352658366212417,0,70,255.0,255.0,255.0
96,4.800000000000001,-13.499999999997762,2.9999999999095874,-3.660983810864938,4.9386961372677676e-11,-1.9951066166800043e-09,-1.061744422796146,2.6867107789971493e-11,-1.085362270384215e-09,0.07914437832478328,0,70,255.0,255.0,255.0
97,4.8500000000000005,-13.499999999995456,2.9999999998164624,-3.7139697607840634,3.886831804134726e-11,-1.5701803947471783e-09,-1.0576467590133403,-4.4761284104319004e-10,1.8082411147697312e-08,0.0847621729874423,0,70,255.0,255.0,255.0
98,4.9,-13.499999999994271,2.9999999997685425,-3.76674380527072,4.625677268358826e-12,-1.8686550191027892e-10,-1.0532682054974019,-9.220927898763517e-10,3.7250184565778845e-08,0.09037996765010131,0,70,255.0,255.0,255.0
99,4.95,-13.499999999995389,2.999999999813749,-3.8192918998382503,-5.3340960946287595e-11,2.1548380618306934e-09,-1.0486087622483302,-1.3965727387095133e-09,5.641795798386038e-08,0.09599776231276033,0,70,255.0,255.0,255.0
100,5.0,-13.5,3.0,-3.8716,-1.3503159660259202e-10,5.454930296475739e-09,-1.043668429266126,-1.871052687542675e-09,7.558573140194191e-08,0.10161555697541758,0,70,255.0,255.0,255.0
101,5.050000000000001,-13.500000000008354,3.0000000003374225,-3.9236536690477997,-1.8431464907427466e-10,7.44583925996662e-09,-1.0384236732600511,-1.0026941132460336e-10,4.050627137692205e-09,0.10817468326757913,0,70,255.0,255.0,255.0
102,5.1000000000000005,-13.500000000016957,3.0000000006849716,-3.975436901387429,-1.4505853773505396e-10,5.859993010245024e-09,-1.0328509609393681,1.6705138648934368e-09,-6.748447712655623e-08,0.11473380955974058,0,70,255.0,255.0,255.0
103,5.15,-13.500000000021382,3.000000000863809,-4.026933299203159,-1.726326258493155e-11,6.973915473110189e-10,-1.026950292304077,3.4412971411114766e-09,-1.3901958139080467e-07,0.12129293585190201,0,70,255.0,255.0,255.0
104,5.2,-13.500000000017206,3.0000000006950978,-4.078126464679259,1.9907117637609247e-10,-8.041965128835394e-09,-1.020721667354178,5.212080417329517e-09,-2.105546856550531e-07,0.12785206214406347,0,70,255.0,255.0,255.0
105,5.25,-13.5,3.0,-4.129,5.039447791480184e-10,-2.0358077018194216e-08,-1.014165086089671,6.982863693547557e-09,-2.820897899193015e-07,0.13441118843622313,0,70,255.0,255.0,255.0
106,5.300000000000001,-13.499999999968827,2.9999999987407224,-4.179537512943868,6.878716349244209e-10,-2.7788250423186472e-08,-1.007280884163643,3.74210537508441e-10,-1.5117146280384544e-08,0.14095688860489916,0,70,255.0,255.0,255.0
107,5.3500000000000005,-13.499999999936719,2.999999997443652,-4.229722633666224,5.413658328988685e-10,-2.1869791646232917e-08,-1.000069397229181,-6.234442618530557e-09,2.5185549735852766e-07,0.14750258877357508,0,70,255.0,255.0,255.0
108,5.4,-13.499999999920199,2.9999999967762205,-4.279538997916646,6.442737307136755e-11,-2.6027006873337894e-09,-0.9925306252862853,-1.2843095774569555e-08,5.1882814099744e-07,0.15404828894225103,0,70,255.0,255.0,255.0
109,5.45,-13.499999999935785,2.999999997405859,-4.328970241444711,-7.42943744558082e-10,3.0013022453510896e-08,-0.984664568334956,-1.9451748930608553e-08,7.858007846363522e-07,0.16059398911092695,0,70,255.0,255.0,255.0
110,5.5,-13.5,3.0,-4.378,-1.8807475199894814e-09,7.597737777630113e-08,-0.9764712263751926,-2.6060402086647552e-08,1.0527734282752642e-06,0.16713968927960376,0,70,255.0,255.0,255.0
111,5.550000000000001,-13.500000000116335,3.0000000046996878,-4.42661227917673,-2.567171890623409e-09,1.0370716243277929e-07,-0.9679727900853832,-1.3965727387091612e-09,5.6417957983845946e-08,0.1727977623127674,0,70,255.0,255.0,255.0
112,5.6000000000000005,-13.500000000236165,3.00000000954042,-4.474792563947679,-2.0204047938604203e-09,8.161917357468666e-08,-0.9591914501439157,2.3267256609228793e-08,-9.399375123075545e-07,0.17845583534593093,0,70,255.0,255.0,255.0
113,5.65,-13.500000000297822,3.000000012031309,-4.52252670913026,-2.4044622970053776e-10,9.713411202024172e-09,-0.9501272065507901,4.793108595716675e-08,-1.936292982598955e-06,0.18411390837909444,0,70,255.0,255.0,255.0
114,5.7,-13.500000000239655,3.000000009681465,-4.569800569541896,2.772703801856238e-09,-1.1201012468520813e-07,-0.9407800593060064,7.25949153051047e-08,-2.9326484528903554e-06,0.18977198141225798,0,70,255.0,255.0,255.0
115,5.75,-13.5,3.0,-4.6166,7.019045300809907e-09,-2.835514340870103e-07,-0.9311500084095644,9.725874465304266e-08,-3.929003923181754e-06,0.19543005444541972,0,70,255.0,255.0,255.0
116,5.800000000000001,-13.499999999565826,2.9999999824605275,-4.662910170349215,9.580815927569214e-09,-3.8704039930793064e-07,-0.9211959554948269,5.212080417328203e-09,-2.1055468565499913e-07,0.20273206214407394,0,70,255.0,255.0,255.0
117,5.8500000000000005,-13.499999999118625,2.9999999643946675,-4.708713510543067,7.540253342542812e-09,-3.046069026525136e-07,-0.9108768021951569,-8.683458381838462e-08,3.5078945518716894e-06,0.21003406984272804,0,70,255.0,255.0,255.0
118,5.9,-13.499999998888507,2.9999999550985446,-4.753991765562315,8.973575457307839e-10,-3.625094412076287e-08,-0.9001925485105542,-1.7888124805409745e-07,7.2263437893983775e-06,0.21733607754138215,0,70,255.0,255.0,255.0
119,5.95,-13.499999999105594,2.999999963868281,-4.798726680387707,-1.0347871462866871e-08,4.180274762873216e-07,-0.8891431944410189,-2.709279122898103e-07,1.0944793026925066e-05,0.22463808524003623,0,70,255.0,255.0,255.0
120,6.0,-13.5,3.0,-4.8429,-2.6195433683250147e-08,1.0582283585717399e-06,-0.8777287399865507,-3.6297457652552317e-07,1.4663242264451755e-05,0.23194009293869566,0,70,255.0,255.0,255.0
121,6.050000000000001,-13.500000001620355,3.0000000654582037,-4.886494239426416,-3.575609181965345e-08,1.444454434798943e-06,-0.8659953879353101,-1.9451748930603673e-08,7.858007846361552e-07,0.2373939891109219,0,70,255.0,255.0,255.0
122,6.1000000000000005,-13.50000000328934,3.000000132880909,-4.929494993880055,-2.814060857631083e-08,1.1368084370353684e-06,-0.8539893410754583,3.240710786643097e-07,-1.3091640695179198e-05,0.24284788528314807,0,70,255.0,255.0,255.0
123,6.15,-13.500000004148148,3.0000001675745125,-4.971888628620485,-3.3489839532225995e-09,1.3529036528102805e-07,-0.8417105994069953,6.675939062592231e-07,-2.696908217499455e-05,0.24830178145537424,0,70,255.0,255.0,255.0
124,6.2,-13.50000000333797,3.000000134845411,-5.013661508907277,3.8618782049611236e-08,-1.5600997804640776e-06,-0.829159162929921,1.0111167338541363e-06,-4.0846523654809905e-05,0.25375567762760043,0,70,255.0,255.0,255.0
125,6.25,-13.5,3.0,-5.0548,9.776268943219068e-08,-3.949362000199949e-06,-0.8163350316442354,1.3546395614490498e-06,-5.472396513462526e-05,0.25920957379982656,0,70,255.0,255.0,255.0
126,6.300000000000001,-13.499999993952752,2.999999755706659,-5.095289671945125,1.334435513510446e-07,-5.3907773398878415e-06,-0.803190492763933,7.259491530508626e-08,-2.9326484528896155e-06,0.26657198141226485,0,70,255.0,255.0,255.0
127,6.3500000000000005,-13.499999987724017,2.9999995040816967,-5.135112913936717,1.050221809627005e-07,-4.242626845488959e-06,-0.7896778335030088,-1.2094497308388544e-06,4.8858668228845107e-05,0.2739343890247031,0,70,255.0,255.0,255.0
128,6.4,-13.499999984518903,2.999999374603405,-5.174251319955748,1.2498578267159607e-08,-5.049105170033474e-07,-0.7757970538614627,-2.491494376982795e-06,0.00010064998491057984,0.28129679663714124,0,70,255.0,255.0,255.0
129,6.45,-13.499999987542529,2.9999994967500756,-5.212686483983186,-1.4412725673557813e-07,5.8223716455689875e-06,-0.7615481538392948,-3.7735390231267358e-06,0.00015244130159231456,0.2886592042495794,0,70,255.0,255.0,255.0
130,6.5,-13.5,3.0,-5.2504,-3.648553240455126e-07,1.4739219642228056e-05,-0.7469311334365047,-5.055583669270676e-06,0.00020423261827404927,0.296021611862022,0,70,255.0,255.0,255.0
131,6.550000000000001,-13.500000022568639,3.000000911715161,-5.28737507279309,-4.980181135845249e-07,2.011865492475242e-05,-0.732042641008953,-2.7092791228974186e-07,1.0944793026922297e-05,0.29951808524003565,0,70,255.0,255.0,255.0
132,6.6000000000000005,-13.500000045814598,3.0000018507923047,-5.323601350373081,-3.9194811527449125e-07,1.5833698944920467e-05,-0.7169793249125009,4.513727844691107e-06,-0.00018234303222020126,0.3030145586180492,0,70,255.0,255.0,255.0
133,6.65,-13.500000057776237,3.000002334011868,-5.359070091556526,-4.6645329115415764e-08,1.8843517027323646e-06,-0.7017411851471482,9.298383601671955e-06,-0.00037563085746732474,0.3065110319960628,0,70,255.0,255.0,255.0
134,6.7,-13.50000004649192,3.0000018781542876,-5.3937725551599796,5.378902448927011e-07,-2.1729386801811875e-05,-0.6863282217128949,1.4083039358652805e-05,-0.0005689186827144483,0.31000750537407634,0,70,255.0,255.0,255.0
135,6.75,-13.5,3.0,-5.4277,1.3616586067498596e-06,-5.5007516568712275e-05,-0.6707404346097406,1.8867695115633653e-05,-0.000762206507961572,0.31350397875209257,0,70,255.0,255.0,255.0
136,6.800000000000001,-13.499999915772692,2.9999965974326965,-5.460838036882516,1.8586289029870552e-06,-7.508384235912184e-05,-0.6546389432002483,1.0111167338538837e-06,-4.0846523654799734e-05,0.3305556776275918,0,70,255.0,255.0,255.0
137,6.8500000000000005,-13.499999829017593,2.9999930927490843,-5.4931496845709615,1.4627702801352646e-06,-5.909216893419291e-05,-0.6376848668469813,-1.6845461647925568e-05,0.0006805134606519597,0.34760737650309076,0,70,255.0,255.0,255.0
138,6.9,-13.499999784376147,2.9999912893491234,-5.52459231381815,1.7408273819450377e-07,-7.032496293926118e-06,-0.6198782055499393,-3.470204002970502e-05,0.001401873444958719,0.3646590753785897,0,70,255.0,255.0,255.0
139,6.95,-13.499999826489798,2.9999929906327756,-5.555123295376894,-2.007433722835226e-06,8.10951755616785e-05,-0.6012189593091225,-5.255861841148448e-05,0.0021232334292654786,0.3817107742540886,0,70,255.0,255.0,255.0
140,7.0,-13.5,3.0,-5.5847,-5.081779102953926e-06,0.00020529084663262103,-0.5817071281245307,-7.041519679326394e-05,0.0028445934135722375,0.3987624731295867,0,70,255.0,255.0,255.0
141,7.050000000000001,-13.500000314340593,3.000013498554052,-5.613279179676848,-6.936497498363695e-06,0.00032821671451183754,-0.5613055861900514,-3.773539023125782e-06,0.002072441301596355,0.4172992042495717,0,70,255.0,255.0,255.0
142,7.1000000000000005,-13.500000638115036,3.0000321782113577,-5.640815111343072,-5.4591330052665665e-06,0.00041253497679225834,-0.5399772076995734,6.286811874701119e-05,0.0013002891896204862,0.4358359353695564,0,70,255.0,255.0,255.0
143,7.15,-13.500000804719178,3.000054108591638,-5.667261453170871,-6.496856236625991e-07,0.0004582456334738858,-0.517721992653096,0.00012950977651714817,0.0005281370776446174,0.45437266648954105,0,70,255.0,255.0,255.0
144,7.2,-13.500000647548882,3.000077359314612,-5.692571863332447,7.491844646448205e-06,0.0004653486845567198,-0.49453994105061944,0.00019615143428728518,-0.0002440150343312516,0.4729093976095258,0,70,255.0,255.0,255.0
145,7.25,-13.5,3.0001,-5.7167,1.8965457805065845e-05,0.0004338441300407606,-0.4704310528921437,0.000262793092057422,-0.0010161671463071197,0.491446128729506,0,70,255.0,255.0,255.0
146,7.300000000000001,-13.499998826864934,3.000120608351096,-5.739615644410094,2.5887361090467722e-05,0.0003942169843150079,-0.44636271203955336,1.4083039358649173e-05,-0.0005689186827229672,0.4712875053740929,0,70,255.0,255.0,255.0
147,7.3500000000000005,-13.499997618522267,3.0001397944054844,-5.761353070056751,2.037376174093099e-05,0.0003769522617684632,-0.42330230235473415,-0.0002346270133401192,-0.0001216702191388227,0.4511288820186802,0,70,255.0,255.0,255.0
148,7.4,-13.499996996747138,3.0001586762843253,-5.781962673498363,2.4246597564558773e-06,0.00038204996240112567,-0.40124982383768554,-0.0004833370660388876,0.0003255782444453218,0.4309702586632675,0,70,255.0,255.0,255.0
149,7.45,-13.499997583314668,3.0001783721087776,-5.8014948512933175,-2.795994486295759e-05,0.00040951008621299527,-0.3802052764884076,-0.0007320471187376561,0.0007728267080294665,0.4108116353078548,0,70,255.0,255.0,255.0
150,7.5,-13.5,3.0002,-5.82,-7.078005211730945e-05,0.0004593326332040721,-0.36016866030690026,-0.0009807571714364246,0.0012200751716136115,0.3906530119524425,0,70,255.0,255.0,255.0
151,7.550000000000001,-13.500004378199673,3.000224068041565,-5.83752544268278,-9.661294686350721e-05,0.0004949153482261613,-0.3409555656517365,-5.255861841147141e-05,0.00020323342926993593,0.37787077425409776,0,70,255.0,255.0,255.0
152,7.6000000000000005,-13.500008887795891,3.000248644166704,-5.854106208429923,-7.603591395845747e-05,0.00047965597613106677,-0.3223815828814902,0.0008756399346134653,-0.0008136083130737214,0.3650885365557533,0,70,255.0,255.0,255.0
153,7.65,-13.500011208292275,3.0002711862710596,-5.869774252835676,-9.04895340216101e-06,0.00041355451691878935,-0.30444671199616125,0.0018038384876384018,-0.001830450055417379,0.3523062988574088,0,70,255.0,255.0,255.0
154,7.7,-13.50000901919244,3.0002891522502773,-5.884561531494287,0.0001043479348053821,0.00029661097058932944,-0.2871509529957495,0.0027320370406633387,-0.002847291797761037,0.3395240611590643,0,70,255.0,255.0,255.0
155,7.75,-13.5,3.0003,-5.8985,0.00026415475066417194,0.0001288253371426867,-0.27049430588025497,0.003660235593688275,-0.003864133540104696,0.32674182346072067,0,70,255.0,255.0,255.0
156,7.800000000000001,-13.499982860336376,3.000301519482643,-5.9116217848587915,0.0004085644263634506,-6.987837721820425e-05,-0.2544870253534987,0.002116151434282788,-0.00408401503433083,0.31354939760951966,0,70,255.0,255.0,255.0
157,7.8500000000000005,-13.499960430294163,3.0002928289277,-5.92395969622356,0.0004757698940924532,-0.00027957616629039825,-0.2391393661193028,0.0005720672748773283,-0.00430389652855696,0.30035697175831894,0,70,255.0,255.0,255.0
158,7.9,-13.499936570083765,3.000273378631435,-5.935546715158932,0.0004657711538511832,-0.0005002680300738987,-0.22445132817766694,-0.0009720168845281313,-0.00452377802278309,0.2871645459071182,0,70,255.0,255.0,255.0
159,7.95,-13.499915139915577,3.000242618890114,-5.946415822729536,0.00037856820563964043,-0.0007319539685687056,-0.2104229115285911,-0.002516101043933591,-0.004743659517009219,0.2739721200559174,0,70,255.0,255.0,255.0
160,8.0,-13.4999,3.0002,-5.9566,0.000214161049457825,-0.0009746339817748189,-0.1970541161720753,-0.004060185203339051,-0.004963541011235351,0.2607796942047167,0,70,255.0,255.0,255.0
161,8.05,-13.49989378045483,3.0001450540278634,-5.9661322178820555,4.635524140601732e-05,-0.0012234018393550603,-0.18434433293426114,-0.0026520471187331607,-0.004987173291974165,0.24761163530784253,0,70,255.0,255.0,255.0
162,8.1,-13.499894191027456,3.000077640122497,-5.975045406675839,-5.104366241549262e-05,-0.0014733513109722333,-0.1722929526412911,-0.00124390903412732,-0.005010805572712976,0.23444357641096883,0,70,255.0,255.0,255.0
163,8.15,-13.499897711372666,2.999997699203199,-5.983372486528597,-7.803566200671177e-05,-0.0017244823966263564,-0.16089997529316435,0.0001642290504785711,-0.005034437853451789,0.22127551751409466,0,70,255.0,255.0,255.0
164,8.200000000000001,-13.499900821145253,2.9999051721892678,-5.991146377587571,-3.462075736763537e-05,-0.0019767950963174197,-0.15016540088988134,0.0015723671350844617,-0.005058070134190602,0.2081074586172205,0,70,255.0,255.0,255.0
165,8.25,-13.4999,2.9998,-5.9984,7.920105150173142e-05,-0.0022302894100454146,-0.14008922943144236,0.0029805052196903033,-0.0050817024149294,0.1949393997203459,0,70,255.0,255.0,255.0
166,8.3,-13.499892417844308,2.999681464405903,-6.0051669436129895,0.00022201460801057435,-0.0025245142653624562,-0.13071164290945708,0.002732037040663332,-0.006687291797752101,0.18016406115906036,0,70,255.0,255.0,255.0
167,8.35,-13.499878005596015,2.9995462105823116,-6.011483477073081,0.0003524047555680641,-0.0028990185898206196,-0.12207282331553636,0.00248356886163637,-0.008292881180574745,0.16538872259777532,0,70,255.0,255.0,255.0
168,8.4,-13.499857384425567,2.9993902245557686,-6.017386538726677,0.00047037149417421004,-0.0033538023834199307,-0.11417277064967962,0.002235100682609399,-0.009898470563397446,0.15061338403648977,0,70,255.0,255.0,255.0
169,8.450000000000001,-13.499831175503413,2.9992094923528168,-6.022913066920182,0.0005759148238290071,-0.003888865646160378,-0.10701148491188718,0.001986632503582428,-0.011504059946220148,0.13583804547520423,0,70,255.0,255.0,255.0
170,8.5,-13.4998,2.999,-6.0281,0.0006690347445324526,-0.004504208378041938,-0.10058896610215923,0.0017381643245554645,-0.013109649329042787,0.12106270691391918,0,70,255.0,255.0,255.0
171,8.55,-13.499764548167937,2.998758688348525,-6.03298320766599,0.0007455863265486294,-0.005142541099193439,-0.09484109542791257,0.001323898956091564,-0.012423659517016895,0.1088521200559442,0,70,255.0,255.0,255.0
172,8.6,-13.499725786588487,2.9984863175482577,-6.03759428503184,0.0008014246401416092,-0.005746574329743625,-0.08970375409656482,0.0009096335876276783,-0.011737669704991025,0.09664153319796967,0,70,255.0,255.0,255.0
173,8.65,-13.499684750925065,2.9981846025737275,-6.041963758564695,0.0008365496853113962,-0.006316308069692536,-0.08517694210811565,0.0004953682191637778,-0.011051679892965132,0.08443094633999468,0,70,255.0,255.0,255.0
174,8.700000000000001,-13.499642476841096,2.997855258399465,-6.0461221547317,0.0008509614620579879,-0.006851742319040154,-0.08126065946256524,8.110285069987729e-05,-0.010365690080939238,0.07222035948201971,0,70,255.0,255.0,255.0
175,8.75,-13.4996,2.9975,-6.0501,0.0008446599703813845,-0.007352877077786458,-0.0779549061599137,-0.0003331625177640076,-0.009679700268913329,0.060009772624045055,0,70,255.0,255.0,255.0
176,8.8,-13.49955818948394,2.997119782199997,-6.053928225723052,0.0008276400858136542,-0.007865321337864155,-0.07528397537888244,-0.00034763286494519826,-0.010818070134194224,0.046827458617203915,0,70,255.0,255.0,255.0
177,8.85,-13.49951724805004,2.9967125192246593,-6.05763938279956,0.0008098966838868648,-0.008434684091205874,-0.0732721602981933,-0.00036210321212638846,-0.011956439999475082,0.033645144610363234,0,70,255.0,255.0,255.0
178,8.9,-13.499477211874172,2.996275365149322,-6.0612664270145435,0.0007914297646010154,-0.00906096533781166,-0.07191946091784615,-0.0003765735593075792,-0.013094809864755978,0.020462830603522095,0,70,255.0,255.0,255.0
179,8.950000000000001,-13.499438117132202,2.9958054740493236,-6.064842314153018,0.0007722393279561064,-0.00974416507768149,-0.07122587723784106,-0.0003910439064887699,-0.014233179730036875,0.0072805165966809485,0,70,255.0,255.0,255.0
180,9.0,-13.4994,2.9953,-6.0684,0.0007523253739521387,-0.01048428331081534,-0.07119140925817803,-0.0004055142536699592,-0.015371549595317724,-0.005901797410159726,0,70,255.0,255.0,255.0
181,9.05,-13.499362693896304,2.9947565828514855,-6.0719734894418025,0.0007438533301992098,-0.011252173549353572,-0.07187900305655257,6.663250355280807e-05,-0.015344059946211169,-0.021601954524820968,0,70,255.0,255.0,255.0
182,9.1,-13.499325221211349,2.9941748055531052,-6.075600983769918,0.0007589886243074186,-0.012018689305436451,-0.07335160471066009,0.0005387792607755586,-0.015316570297104615,-0.03730211163948165,0,70,255.0,255.0,255.0
183,9.15,-13.49928640157824,2.9935547368289828,-6.079321733377131,0.0007977312562767662,-0.012783830579064029,-0.07560921422050074,0.0010109260179983258,-0.01528908064799806,-0.05300226875414289,0,70,255.0,255.0,255.0
184,9.200000000000001,-13.499245054630089,2.99289644540324,-6.083174988656229,0.0008600812261072527,-0.013547597370236279,-0.07865183158607446,0.001483072775221093,-0.015261590998891504,-0.06870242586880414,0,70,255.0,255.0,255.0
185,9.25,-13.4992,2.9922,-6.0872,0.0009460385337988743,-0.014309989678953174,-0.0824794568073811,0.001955219532443846,-0.015234101349784923,-0.08440258298346481,0,70,255.0,255.0,255.0
186,9.3,-13.499150234930845,2.9914650863940606,-6.091433816509738,0.0010449465933782098,-0.015093984464721166,-0.0869600123949165,0.0020011028507295183,-0.01612569008093434,-0.09481964051794911,0,70,255.0,255.0,255.0
187,9.35,-13.499095467104562,2.9906898585629187,-6.0959046821207705,0.0011461488188718252,-0.0159225586870466,-0.09196142085917595,0.0020469861690151888,-0.01701727881208373,-0.10523669805243302,0,70,255.0,255.0,255.0
188,9.4,-13.499035581812858,2.9898720875347466,-6.1006386394769345,0.001249645210279728,-0.016795712345929536,-0.0974836822001598,0.002092869487300861,-0.017908867543233148,-0.11565375558691732,0,70,255.0,255.0,255.0
189,9.450000000000001,-13.498970464347439,2.9890095443377165,-6.105661731222065,0.0013554357676019144,-0.01771344544136994,-0.10352679641786786,0.002138752805586533,-0.01880045627438257,-0.12607081312140161,0,70,255.0,255.0,255.0
190,9.5,-13.4989,2.9881,-6.111,0.0014635204908383804,-0.018675757973367783,-0.11009076351229989,0.0021846361238721957,-0.019692045005531844,-0.13648787065588552,0,70,255.0,255.0,255.0
191,9.55,-13.498824366380317,2.987141471572273,-6.116682444519246,0.001556360296273708,-0.019667888591757318,-0.11735294736378009,0.0015289560935408501,-0.019993179730048966,-0.15399948340331832,0,70,255.0,255.0,255.0
192,9.600000000000001,-13.498744910370398,2.9861329601952207,-6.122749887747,0.0016164161001924675,-0.020675075946372707,-0.12549071185263194,0.0008732760632095046,-0.020294314454566083,-0.1715110961507511,0,70,255.0,255.0,255.0
193,9.65,-13.498663271170324,2.985073713032032,-6.129246108715132,0.0016436879025946592,-0.02169732003721392,-0.13450405697885512,0.0002175960328781824,-0.020595449179083195,-0.18902270889818326,0,70,255.0,255.0,255.0
194,9.700000000000001,-13.498581087980163,2.9839629772458953,-6.136214886455509,0.0016381757034802846,-0.022734620864281022,-0.14439298274245022,-0.00043808399745316317,-0.020896583903600312,-0.20653432164561603,0,70,255.0,255.0,255.0
195,9.75,-13.4985,2.9828,-6.1437,0.001599879502849344,-0.02378697842757394,-0.15515748914341662,-0.001093764027784494,-0.02119771862811745,-0.22404593439304832,0,70,255.0,255.0,255.0
196,9.8,-13.498421099547892,2.9815842273168482,-6.151739605413278,0.0015616122215345177,-0.02484246116824927,-0.16646019814996363,-0.00043692722480853825,-0.02102159099889517,-0.22806242586882464,0,70,255.0,255.0,255.0
197,9.850000000000001,-13.498343291413843,2.9803159006561994,-6.160349366891226,0.0015561867803684894,-0.025889137527463486,-0.17796373173029942,0.0002199095781674175,-0.02084546336967289,-0.23207891734460098,0,70,255.0,255.0,255.0
198,9.9,-13.498264933505853,2.9789954603371265,-6.169539325662536,0.001583603179351258,-0.026927007505216552,-0.1896680898844236,0.0008767463811433498,-0.020669335740450615,-0.23609540882037716,0,70,255.0,255.0,255.0
199,9.950000000000001,-13.498184383731907,2.977623346678702,-6.179319522955899,0.0016438614184828251,-0.02795607110150854,-0.20157327261233707,0.0015335831841193056,-0.020493208111228334,-0.2401119002961535,0,70,255.0,255.0,255.0
200,10.0,-13.4981,2.9762,-6.1897,0.001736961497763187,-0.02897632831633938,-0.21367927991403887,0.002190419987095238,-0.020317080482006145,-0.2441283917719297,0,70,255.0,255.0,255.0
201,10.05,-13.498010435428121,2.9747264191603335,-6.200676733827646,0.0018451908175802327,-0.029954266735248897,-0.22514226003637186,0.0021387528055865296,-0.018800456274373968,-0.2143908131213827,0,70,255.0,255.0,255.0
202,10.100000000000001,-13.497915523974227,2.9732058371799814,-6.212189444688096,0.0019508367783218432,-0.030856373943776806,-0.23511836122617744,0.002087085624077821,-0.01728383206674179,-0.18465323447083568,0,70,255.0,255.0,255.0
203,10.15,-13.497815394806274,2.9716420456194625,-6.224163788634722,0.002053899379988014,-0.03168264994192307,-0.24360758348345543,0.0020354184425691144,-0.015767207859109667,-0.15491565582028974,0,70,255.0,255.0,255.0
204,10.200000000000001,-13.497710177092214,2.9700388360392957,-6.2365254217208985,0.0021543786225787535,-0.03243309472968776,-0.2506099268082063,0.0019837512610604057,-0.01425058365147749,-0.12517807716974272,0,70,255.0,255.0,255.0
205,10.25,-13.4976,2.9684,-6.2492,0.0022522745060940537,-0.03310770830707082,-0.2561253912004297,0.0019320840795516887,-0.012733959443845422,-0.09544049851919612,0,70,255.0,255.0,255.0
206,10.3,-13.497485158739629,2.9667284960418168,-6.26212865927614,0.002337624508147259,-0.033756471890756784,-0.26108276170455014,0.0014819160025764692,-0.013216583903592634,-0.10285432164561838,0,70,255.0,255.0,255.0
207,10.350000000000001,-13.49736661268925,2.9650239506238742,-6.275314454356394,0.0024004661063517026,-0.0344293666974301,-0.2664108233649917,0.0010317479256012497,-0.013699208363339845,-0.11026814477204064,0,70,255.0,255.0,255.0
208,10.4,-13.497245487269057,2.963285157185024,-6.288775919798577,0.0024407993007073843,-0.035126392727090755,-0.27210957618175413,0.0005815798486260462,-0.014181832823087041,-0.11768196789846264,0,70,255.0,255.0,255.0
209,10.450000000000001,-13.497122907899241,2.961510909164115,-6.302531590160508,0.0024586240912143065,-0.0358475499797388,-0.278179020154838,0.00013141177165082668,-0.014664457282834253,-0.1250957910248849,0,70,255.0,255.0,255.0
210,10.5,-13.497,2.9597,-6.3166,0.0024539404778724677,-0.036592838455374185,-0.2846191552842426,-0.00031875630532439067,-0.015147081742581614,-0.13250961415130602,0,70,255.0,255.0,255.0
211,10.55,-13.496877729613367,2.9578515966723997,-6.330995029067796,0.0024363111498415992,-0.03733984570171978,-0.2911506931454293,-0.0003864168159103443,-0.01473320811124183,-0.12875190029615688,0,70,255.0,255.0,255.0
212,10.600000000000001,-13.496756425268774,2.955966360324521,-6.345711937886331,0.002415298796281433,-0.03806615926649839,-0.29749434531385843,-0.0004540773264962979,-0.014319334479902045,-0.12499418644100774,0,70,255.0,255.0,255.0
213,10.65,-13.496636256117496,2.954045325640443,-6.360741332170968,0.0023909034171919696,-0.03877177914970999,-0.30365011178953,-0.000521737837082249,-0.013905460848562276,-0.12123647258585872,0,70,255.0,255.0,255.0
214,10.700000000000001,-13.496517391310816,2.952089527304243,-6.376073817637071,0.002363125012573208,-0.039456705351354614,-0.3096179925724443,-0.0005893983476682027,-0.013491587217222491,-0.11747875873070958,0,70,255.0,255.0,255.0
215,10.75,-13.4964,2.9501,-6.3917,0.0023319635824251496,-0.04012093787143223,-0.3153979876626009,-0.0006570588582541607,-0.013077713585882611,-0.11372104487555967,0,70,255.0,255.0,255.0
216,10.8,-13.496283922806901,2.9480771172685856,-6.407612824452681,0.0023171308924954176,-0.04080414530236624,-0.32113046571373327,6.375126106488555e-05,-0.014250583651477484,-0.11557807716973134,0,70,255.0,255.0,255.0
217,10.850000000000001,-13.49616768623565,2.9460186080780417,-6.423814594098285,0.0023383387085316384,-0.04154599623657999,-0.32695579537957425,0.0007845613803839318,-0.015423453717072355,-0.11743510946390302,0,70,255.0,255.0,255.0
218,10.9,-13.49604948826095,2.943921540253206,-6.44030995151755,0.0023955870305338092,-0.04234649067407347,-0.3328739766601235,0.0015053714997029528,-0.016596323782667184,-0.11929214175807462,0,70,255.0,255.0,255.0
219,10.950000000000001,-13.495927526857498,2.941782981618913,-6.45710353929121,0.0024888758585019342,-0.04320562861484671,-0.3388850095553816,0.002226181619021999,-0.017769193848262057,-0.12114917405224629,0,70,255.0,255.0,255.0
220,11.0,-13.4958,2.9396,-6.4742,0.002618205192436007,-0.04412341005889967,-0.34498889406534816,0.002946991738341006,-0.018942063913857055,-0.12300620634641746,0,70,255.0,255.0,255.0
221,11.05,-13.495665779159026,2.9373711342532594,-6.491602473121483,0.00274316528018484,-0.04501157308881665,-0.351095443999631,0.0020514117716122333,-0.016584457282821364,-0.12125579102489305,0,70,255.0,255.0,255.0
222,11.100000000000001,-13.49552642978862,2.9351008073633107,-6.509308085720528,0.0028233463695972335,-0.04578185578718183,-0.3571144731678377,0.0011558318048834604,-0.014226850651785672,-0.11950537570336865,0,70,255.0,255.0,255.0
223,11.15,-13.495384190838703,2.9327949133467337,-6.527312461758831,0.0028587484606731866,-0.04643425815399521,-0.3630459815699678,0.0002602518381547192,-0.011869244020750062,-0.11775496038184431,0,70,255.0,255.0,255.0
224,11.200000000000001,-13.49524130125919,2.9304593462201036,-6.5456112251980905,0.0028493715534127035,-0.04696878018925683,-0.3688899692060221,-0.0006353281285740534,-0.009511637389714372,-0.1160045450603199,0,70,255.0,255.0,255.0
225,11.25,-13.4951,2.9281,-6.5642,0.002795215647815783,-0.047385421892966656,-0.3746464360759998,-0.0015309080953028048,-0.00715403075867882,-0.11425412973879467,0,70,255.0,255.0,255.0
226,11.3,-13.494961760557,2.925720745718379,-6.583074883061387,0.00274220798674236,-0.04780556234236442,-0.38034375828773814,-0.0005893983476340838,-0.009651587217231396,-0.11363875873073502,0,70,255.0,255.0,255.0
227,11.350000000000001,-13.494824994609871,2.923317362468715,-6.602233863019601,0.002736275813052374,-0.04835058061468981,-0.3860103119490734,0.00035211140003463715,-0.012149143675783973,-0.11302338772267538,0,70,255.0,255.0,255.0
228,11.4,-13.49468734838424,2.9208836063598613,-6.6216754014471215,0.002777419126745822,-0.049020476709942806,-0.3916460970600056,0.0012936211477033248,-0.01464670013433646,-0.11240801671461575,0,70,255.0,255.0,255.0
229,11.450000000000001,-13.494546468105739,2.918413233500672,-6.641397959916428,0.002865637927822708,-0.049815250628123454,-0.397251113620535,0.0022351308953720457,-0.01714425659288904,-0.1117926457065561,0,70,255.0,255.0,255.0
230,11.5,-13.4944,2.9159,-6.6614,0.003000932216283024,-0.05073490236923169,-0.4028253616306612,0.00317664064304074,-0.01964181305144147,-0.1111772746984947,0,70,255.0,255.0,255.0
231,11.55,-13.494246378612974,2.9133394828732255,-6.681680394632972,0.003136002772835446,-0.0516701775417245,-0.40839352284942904,0.0022261816190560753,-0.017769193848270633,-0.11154917405221704,0,70,255.0,255.0,255.0
232,11.600000000000001,-13.494087191771904,2.9107345427618303,-6.702239662201071,0.003223550378188635,-0.05251182175405878,-0.413980279035883,0.001275722595071411,-0.015896574645099797,-0.11192107340593936,0,70,255.0,255.0,255.0
233,11.65,-13.493924815624343,2.9080898612138224,-6.723078732452687,0.0032635750323425886,-0.053259835006234484,-0.419585630190023,0.00032526357108678,-0.014023955441929022,-0.11229297275966169,0,70,255.0,255.0,255.0
234,11.700000000000001,-13.493761626317855,2.9054101197772093,-6.744198535136202,0.0032560767352973106,-0.05391421729825168,-0.4252095763118492,-0.0006251954528978844,-0.012151336238758186,-0.11266487211338401,0,70,255.0,255.0,255.0
235,11.75,-13.4936,2.9027,-6.7656,0.003201055487052802,-0.0544749686301103,-0.43085211740136126,-0.0015756544768825154,-0.010278717035587637,-0.11303677146710323,0,70,255.0,255.0,255.0
236,11.8,-13.493441524991098,2.8999629227887187,-6.787283538406733,0.003145780921915535,-0.05501772749074254,-0.4364821503145467,-0.0006353281286081347,-0.011431637389701594,-0.11216454506031084,0,70,255.0,255.0,255.0
237,11.850000000000001,-13.493284638302518,2.897197266483964,-6.8092474881761165,0.0031375226741919876,-0.05561813236908048,-0.4420685719073925,0.00030499821966624603,-0.012584557743815549,-0.11129231865351848,0,70,255.0,255.0,255.0
238,11.9,-13.493126989118391,2.894400148784849,-6.831489668742133,0.003176280743882158,-0.05627618326512409,-0.4476113821798985,0.0012453245679405933,-0.013737478097929464,-0.11042009224672612,0,70,255.0,255.0,255.0
239,11.950000000000001,-13.49296622662284,2.8915686873904893,-6.854007899538767,0.003262055130986048,-0.056991880178873425,-0.45311058113206504,0.002185650916214974,-0.014890398452043421,-0.10954786583993374,0,70,255.0,255.0,255.0
240,12.0,-13.4928,2.8887,-6.8768,0.0033948458355036524,-0.05776522311032843,-0.4585661687638918,0.003125977264489311,-0.016043318806157503,-0.10867563943314096,0,70,255.0,255.0,255.0
241,12.05,-13.492626721422633,2.8857920259718983,-6.8998638517401005,0.00352887353950104,-0.058546912495304505,-0.4639818758923845,0.0022351308954061196,-0.015224256592884854,-0.10795264570656506,0,70,255.0,255.0,255.0
242,12.100000000000001,-13.492447855018025,2.8828459913023137,-6.923197585094467,0.0036183589250442677,-0.05928764876961694,-0.46936143333454844,0.0013442845263229284,-0.014405194379612206,-0.10722965197998915,0,70,255.0,255.0,255.0
243,12.15,-13.492265627902102,2.8798639436467806,-6.946799392578783,0.003663301992133334,-0.059987431933265715,-0.47470484109038336,0.00045343815723976897,-0.013586132166339587,-0.10650665825341327,0,70,255.0,255.0,255.0
244,12.200000000000001,-13.492082267190785,2.8768479306608317,-6.970667466708733,0.003663702740768243,-0.060646261986250886,-0.48001209915988974,-0.0004374082118434224,-0.012767069953066939,-0.10578366452683736,0,70,255.0,255.0,255.0
245,12.25,-13.4919,2.8738,-6.9948,0.0036195611709489935,-0.06126413892857241,-0.48528320754306703,-0.001328254580926589,-0.01194800773979443,-0.10506067080025838,0,70,255.0,255.0,255.0
246,12.3,-13.491720389318374,2.870721773323689,-7.019195454632868,0.0035707249201025293,-0.061866622528036666,-0.4905343461159081,-0.000625195452931961,-0.012151336238775382,-0.10498487211338245,0,70,255.0,255.0,255.0
247,12.350000000000001,-13.491542341625381,2.8676131683067805,-7.043853371446019,0.0035570416256557966,-0.06247927255244996,-0.4957816947544054,7.786367506266707e-05,-0.012354664737756333,-0.10490907342650653,0,70,255.0,255.0,255.0
248,12.4,-13.491364099273202,2.864473676628028,-7.068773560942736,0.003578511287608795,-0.0631020890018123,-0.5010252534585588,0.0007809228030572699,-0.012557993236737276,-0.1048332747396306,0,70,255.0,255.0,255.0
249,12.450000000000001,-13.491183904614015,2.8613027899661834,-7.093955833626302,0.0036351339059615246,-0.06373507187612369,-0.5062650222283684,0.001483981931051898,-0.012761321735718227,-0.10475747605275466,0,70,255.0,255.0,255.0
250,12.5,-13.491,2.8581,-7.1194,0.003726909480713982,-0.06437822117538411,-0.5115010010638341,0.0021870410590464698,-0.012964650234699171,-0.1046816773658783,0,70,255.0,255.0,255.0
251,12.55,-13.490810921303865,2.8548648807333468,-7.14510552972843,0.0038362267800946663,-0.06502659739255237,-0.5167127396439798,0.0021856509161808325,-0.012970398452030896,-0.10378786583994744,0,70,255.0,255.0,255.0
252,12.600000000000001,-13.490616378480443,2.8515973354705633,-7.171070529121461,0.003945474572332068,-0.06567526102058721,-0.521879787647829,0.0021842607733151957,-0.01297614666936262,-0.10289405431401659,0,70,255.0,255.0,255.0
253,12.65,-13.490416375005086,2.8482973498411064,-7.197292763650275,0.004054652857426185,-0.06632421205948863,-0.5270021450753815,0.0021828706304495584,-0.012981894886694345,-0.10200024278808577,0,70,255.0,255.0,255.0
254,12.700000000000001,-13.490210914353153,2.844964909474433,-7.22376999878606,0.004163761635377023,-0.06697345050925664,-0.5320798119266376,0.0021814804875839216,-0.012987643104026069,-0.1011064312621549,0,70,255.0,255.0,255.0
255,12.75,-13.49,2.8416,-7.2505,0.0042728009061845755,-0.06762297636989122,-0.5371127882015969,0.0021800903447182773,-0.012993391321357461,-0.10021261973622231,0,70,255.0,255.0,255.0
256,12.8,-13.489783925466158,2.838202703742924,-7.277480826453413,0.0043643679595080425,-0.06826698790175183,-0.5421186953081734,0.001482591788220329,-0.012767069953066932,-0.10002366452683162,0,70,255.0,255.0,255.0
257,12.850000000000001,-13.489564144452846,2.834773489810965,-7.304711712068143,0.00442106008500661,-0.06889968336519793,-0.5471151546542803,0.0007850932317223804,-0.0125407485847764,-0.09983470931744093,0,70,255.0,255.0,255.0
258,12.9,-13.489342400706455,2.8313129240075443,-7.332192184456167,0.004442877282680281,-0.06952106276022947,-0.5521021662399174,8.759467522445651e-05,-0.012314427216485877,-0.09964575410805025,0,70,255.0,255.0,255.0
259,12.950000000000001,-13.489120437973376,2.8278215721360827,-7.359921771229461,0.004429819552529055,-0.0701311260868465,-0.5570797300650853,-0.0006099038812734919,-0.012088105848195347,-0.09945679889865956,0,70,255.0,255.0,255.0
260,13.0,-13.4889,2.8243,-7.3879,0.004381886894552934,-0.07072987334504899,-0.5620478461297832,-0.0013074024377713947,-0.011861784479904713,-0.09926784368926622,0,70,255.0,255.0,255.0
261,13.05,-13.4886821768315,2.820748304294958,-7.416126364457919,0.004338301381884205,-0.07134545100043979,-0.5670044791233337,-0.000436018068977745,-0.012761321735726852,-0.09899747605275042,0,70,255.0,255.0,255.0
262,13.100000000000001,-13.488465443708169,2.817164705285576,-7.44460022260597,0.004338285087655159,-0.07200600551862169,-0.5719475937350584,0.0004353662998159047,-0.013660858991548988,-0.09872710841623461,0,70,255.0,255.0,255.0
263,13.15,-13.48824762216909,2.8135469541287157,-7.473320898525061,0.004381838011865794,-0.07271153689959468,-0.5768771899649571,0.0013067506686095234,-0.014560396247371094,-0.09845674077971882,0,70,255.0,255.0,255.0
264,13.200000000000001,-13.488026533753343,2.809892801981237,-7.502287716296102,0.004468960154516112,-0.07346204514335879,-0.5817932678130303,0.0021781350374031733,-0.015459933503193232,-0.09818637314320301,0,70,255.0,255.0,255.0
265,13.25,-13.4878,2.8062,-7.5315,0.004599651515606109,-0.07425753024991401,-0.5866958272792773,0.003049519406196792,-0.01635947075901545,-0.09791600550668456,0,70,255.0,255.0,255.0
266,13.3,-13.487566567207844,2.8024672790772454,-7.560956915714913,0.004730426512950628,-0.07503920809648994,-0.5915753881984978,0.002181480487583898,-0.014907643104021375,-0.09726643126212905,0,70,255.0,255.0,255.0
267,13.350000000000001,-13.487327680714472,2.79869728904673,-7.59065699750798,0.0048177995643645015,-0.07574829456031616,-0.5964224704054903,0.0013134415689710038,-0.013455815449027301,-0.09661685701757354,0,70,255.0,255.0,255.0
268,13.4,-13.487085510617174,2.7948936594775926,-7.620598621443591,0.00486177066984773,-0.07638478964139267,-0.601237073900255,0.00044540265035814073,-0.012003987794033277,-0.09596728277301807,0,70,255.0,255.0,255.0
269,13.450000000000001,-13.48684222701325,2.79106001993897,-7.650780163586136,0.004862339829400314,-0.07694869333971949,-0.6060191986827921,-0.0004226362682547536,-0.010552160139039205,-0.09531770852846257,0,70,255.0,255.0,255.0
270,13.5,-13.4866,2.7872,-7.6812,0.004819507043022256,-0.07744000565529659,-0.6107688447531012,-0.0012906751868676444,-0.009100332484045182,-0.09466813428390886,0,70,255.0,255.0,255.0
271,13.55,-13.48636035433712,2.7833161793960617,-7.7118563726824325,0.004771992566318727,-0.0779217166136025,-0.6154779680826663,-0.0006099038812734658,-0.010168105848191182,-0.09369679889868968,0,70,255.0,255.0,255.0
272,13.600000000000001,-13.486122233433948,2.779406938527503,-7.742746987362112,0.004758516654894908,-0.07845681624011573,-0.6201385246429704,7.086742432071275e-05,-0.011235879212337183,-0.0927254635134705,0,70,255.0,255.0,255.0
273,13.65,-13.485883935362212,2.7754696079609134,-7.773869415700575,0.004779079308750797,-0.07904530453483621,-0.6247505144340133,0.000751638729914867,-0.012303652576483144,-0.09175412812825136,0,70,255.0,255.0,255.0
274,13.700000000000001,-13.48564375819365,2.7715015182628826,-7.805221229359359,0.004833680527886396,-0.07968718149776403,-0.6293139374557954,0.0014324100355090456,-0.013371425940629145,-0.09078279274303218,0,70,255.0,255.0,255.0
275,13.75,-13.4854,2.7675,-7.8368,0.004922320312301701,-0.08038244712889914,-0.6338287937083166,0.0021131813411032208,-0.014439199304775219,-0.08981145735781215,0,70,255.0,255.0,255.0
276,13.8,-13.485151215443668,2.7634632033385085,-7.868603993555358,0.005029603221764363,-0.08108192544909847,-0.638336739470842,0.0021781350374031655,-0.013539933503197763,-0.09050637314320104,0,70,255.0,255.0,255.0
277,13.850000000000001,-13.484896985549742,2.7593925568432582,-7.900634253043574,0.00514013381604202,-0.08173644047921894,-0.6428794310226368,0.00224308873370311,-0.012640667701620308,-0.09120128892858992,0,70,255.0,255.0,255.0
278,13.9,-13.484637147933986,2.755290308678754,-7.932892515754109,0.005253912095134672,-0.0823459922192605,-0.6474568683637009,0.002308042430003052,-0.011741401900042886,-0.09189620471397877,0,70,255.0,255.0,255.0
279,13.950000000000001,-13.48437154021215,2.7511587070095,-7.96538051897643,0.005370938059042325,-0.08291058066922322,-0.6520690514940346,0.0023729961263029968,-0.010842136098465429,-0.09259112049936766,0,70,255.0,255.0,255.0
280,14.0,-13.4841,2.747,-7.9981,0.005491211707764971,-0.08343020582910705,-0.6567159804136377,0.002437949822602925,-0.00994287029688834,-0.09328603628475296,0,70,255.0,255.0,255.0
281,14.05,-13.483822783888204,2.742815807249906,-8.03105165309614,0.005589594546624417,-0.08394258159000526,-0.6613350740339679,0.0014973637317748623,-0.010552160139039288,-0.09147770852845391,0,70,255.0,255.0,255.0
282,14.100000000000001,-13.48354182436708,2.738605234099464,-8.064232000463601,0.005640948080942459,-0.084485421843011,-0.6658637512664832,0.0005567776409467994,-0.011161449981190237,-0.08966938077215486,0,70,255.0,255.0,255.0
283,14.15,-13.483259472901851,2.7343667573240693,-8.09763652128299,0.005645272310719099,-0.08505872658812427,-0.6703020121111833,-0.00038380844988123016,-0.011770739823341163,-0.08786105301585588,0,70,255.0,255.0,255.0
284,14.200000000000001,-13.482978080957748,2.7300988536991166,-8.131260694734923,0.005602567235954335,-0.0856624958253451,-0.6746498565680688,-0.0013243945407092929,-0.012380029665492112,-0.08605272525955683,0,70,255.0,255.0,255.0
285,14.25,-13.4827,2.7258,-8.1651,0.005512832856648171,-0.08629672955467349,-0.678907284637139,-0.00226498063153735,-0.012989319507643149,-0.08424439750325785,0,70,255.0,255.0,255.0
286,14.3,-13.482426449003512,2.721468767661868,-8.199150994060087,0.005444018591746723,-0.08695574819088009,-0.6831389643932962,-0.0004875899645205709,-0.013371425940620624,-0.08502279274302947,0,70,255.0,255.0,255.0
287,14.350000000000001,-13.482154116981935,2.7171041067588844,-8.23341454510203,0.005464073860196114,-0.08763387214873557,-0.6874095639114421,0.0012898007024962081,-0.013753532373598098,-0.08580118798280109,0,70,255.0,255.0,255.0
288,14.4,-13.481878560458604,2.712705062024967,-8.267892599113932,0.00557299866199634,-0.08833110142823991,-0.6917190831915763,0.003067191369512924,-0.014135638806575559,-0.0865795832225727,0,70,255.0,255.0,255.0
289,14.450000000000001,-13.481595335956845,2.708270678194033,-8.302587102083889,0.005770792997147408,-0.08904743602939313,-0.6960675222336993,0.004844582036529703,-0.014517745239553034,-0.08735797846234432,0,70,255.0,255.0,255.0
290,14.5,-13.4813,2.7038,-8.3375,0.006057456865649305,-0.08978287595219521,-0.7004548810378108,0.006621972703546419,-0.014899851672530828,-0.0881363737021168,0,70,255.0,255.0,255.0
291,14.55,-13.480989820097745,2.699293122102622,-8.372632370663519,0.006330331086395431,-0.09047442564647044,-0.7048290683928475,0.004292996126298488,-0.012762136098478241,-0.08683112049934534,0,70,255.0,255.0,255.0
292,14.600000000000001,-13.480668907705175,2.694754338864998,-8.407981819128285,0.00648675647827916,-0.09105908956204305,-0.7091379930877455,0.001964019549050556,-0.010624420524425655,-0.08552586729657388,0,70,255.0,255.0,255.0
293,14.65,-13.480343085263732,2.690188994576063,-8.44354508226129,0.006526733041300491,-0.09153686769891302,-0.7133816551225047,-0.0003649570281972934,-0.008486704950373142,-0.08422061409380248,0,70,255.0,255.0,255.0
294,14.700000000000001,-13.480018175214859,2.685602433524752,-8.479318896929533,0.006450260775459427,-0.09190776005708036,-0.7175600544971257,-0.002693933605445226,-0.006348989376320556,-0.08291536089103102,0,70,255.0,255.0,255.0
295,14.75,-13.4797,2.681,-8.5153,0.006257339680755973,-0.09217176663654508,-0.7216731912116078,-0.005022910182693116,-0.004211273802267934,-0.08161010768825694,0,70,255.0,255.0,255.0
296,14.8,-13.479392670605506,2.6763851439276434,-8.551485923285844,0.006050657062671022,-0.092442549223239,-0.7257687620353038,-0.0032443945407048006,-0.006620029665488436,-0.08221272525958218,0,70,255.0,255.0,255.0
297,14.850000000000001,-13.479093452197365,2.671753737781123,-8.58787737838484,0.005932900226685489,-0.09283376960309393,-0.7298944637375661,-0.0014658788987164848,-0.009028785528708939,-0.08281534283090741,0,70,255.0,255.0,255.0
298,14.9,-13.478797898486471,2.6670997596707817,-8.624475871840911,0.005904069172799371,-0.0933454277761099,-0.7340502963183945,0.00031263674327176773,-0.011437541391929356,-0.08341796040223262,0,70,255.0,255.0,255.0
299,14.950000000000001,-13.478501563183716,2.66241718770696,-8.661282910197988,0.005964163901012669,-0.09397752374228686,-0.7382362597777894,0.002091152385260083,-0.01384629725514986,-0.08402057797355786,0,70,255.0,255.0,255.0
300,15.0,-13.4782,2.6577,-8.6983,0.0061131844113253755,-0.09473005750162486,-0.7424523541157504,0.0038696680272483214,-0.016255053118369833,-0.08462319554488218,0,70,255.0,255.0,255.0
301,15.05,-13.477889897480226,2.6529439021868035,-8.735527936193103,0.006283040662919939,-0.09549937746057294,-0.7466558834659314,0.0029245820365341297,-0.014517745239553046,-0.08351797846235376,0,70,255.0,255.0,255.0
302,15.100000000000001,-13.477572483505368,2.6481515100105084,-8.772964667332358,0.006405642614978793,-0.09618183202558017,-0.7508041519619858,0.001979496045819938,-0.012780437360736259,-0.08241276137982535,0,70,255.0,255.0,255.0
303,15.15,-13.477250120790389,2.6433271667408116,-8.810607430375063,0.006480990267501934,-0.09677742119664658,-0.7548971596039139,0.0010344100551057792,-0.011043129481919533,-0.08130754429729697,0,70,255.0,255.0,255.0
304,15.200000000000001,-13.476925172050276,2.6384752156474094,-8.848453462278513,0.006509083620489369,-0.09728614497377214,-0.7589349063917156,8.932406439158755e-05,-0.009305821603102744,-0.08020232721476857,0,70,255.0,255.0,255.0
305,15.25,-13.4766,2.6336,-8.8865,0.0064899226739410934,-0.09770800335695684,-0.7629173923253907,-0.0008557619263226332,-0.007568513724286241,-0.07909711013223841,0,70,255.0,255.0,255.0
306,15.3,-13.476276539473577,2.6287048473251415,-8.924744731941752,0.0064491802856467845,-0.09810394093447192,-0.7668717041009727,-0.000773933605449684,-0.008268989376316337,-0.07907536089103787,0,70,255.0,255.0,255.0
307,15.350000000000001,-13.475955013781169,2.6237890221768425,-8.96318715228573,0.0064125293133961234,-0.09853490229458849,-0.7708249284144946,-0.0006921052845767346,-0.008969465028346432,-0.0790536116498373,0,70,255.0,255.0,255.0
308,15.4,-13.47563521835197,2.6188507733659727,-9.001827206658833,0.006379969757189112,-0.09900088743730655,-0.7747770652659564,-0.0006102769637037883,-0.009669940680376504,-0.07903186240863676,0,70,255.0,255.0,255.0
309,15.450000000000001,-13.47531694861518,2.613888349703402,-9.040664840687958,0.0063515016170257454,-0.09950189636262613,-0.7787281146553583,-0.0005284486428308391,-0.010370416332406599,-0.0790101131674362,0,70,255.0,255.0,255.0
310,15.5,-13.475,2.6089,-9.0797,0.006327124892906028,-0.1000379290705472,-0.7826780765827,-0.00044662032195789264,-0.01107089198443667,-0.07898836392623476,0,70,255.0,255.0,255.0
311,15.55,-13.474683944625461,2.6038847085126293,-9.118932336039897,0.006320238194488693,-0.10056485880153689,-0.7866093001301936,0.00017115238526453538,-0.010006297255149994,-0.07826057797350269,0,70,255.0,255.0,255.0
312,15.600000000000001,-13.474367461369962,2.598844401282121,-9.158360323524729,0.006344240131432481,-0.10103855879606222,-0.7905041343800504,0.0007889250924869634,-0.008941702525863317,-0.07753279202077061,0,70,255.0,255.0,255.0
313,15.65,-13.474049005801728,2.5937817397952974,-9.197982142989607,0.006399130703737389,-0.1014590290541232,-0.7943625793322706,0.0014066977997093696,-0.00787710779657668,-0.07680500606803857,0,70,255.0,255.0,255.0
314,15.700000000000001,-13.473727033489,2.588699385538983,-9.23779597496966,0.006484909911403419,-0.10182626957571987,-0.7981846349868542,0.0020244705069317978,-0.006812513067290004,-0.07607722011530649,0,70,255.0,255.0,255.0
315,15.75,-13.4734,2.5836,-9.2778,0.0066015777544305675,-0.10214028036085222,-0.8019703013438011,0.002642243214154183,-0.005747918338003699,-0.07534943416257356,0,70,255.0,255.0,255.0
316,15.8,-13.473066882024574,2.5784851186243416,-9.317992323898665,0.006717866936394101,-0.10246862385938021,-0.8057150953782359,0.0020093240643870823,-0.0073858216031159616,-0.07444232721481575,0,70,255.0,255.0,255.0
317,15.850000000000001,-13.472728740738985,2.573351772694674,-9.358370753615366,0.006802510160869279,-0.10287886252116384,-0.8094145340652829,0.0013764049146199817,-0.009023724868228224,-0.07353522026705794,0,70,255.0,255.0,255.0
318,15.9,-13.47238715844111,2.5681958674528373,-9.398933021382737,0.0068555074278561,-0.10337099634620303,-0.8130686174049416,0.0007434857648529036,-0.010661628133340428,-0.07262811331930016,0,70,255.0,255.0,255.0
319,15.950000000000001,-13.472043717428823,2.5630133081406665,-9.439676859433405,0.006876858737354568,-0.10394502533449787,-0.8166773453972127,0.00011056661508580291,-0.012299531398452692,-0.07172100637154236,0,70,255.0,255.0,255.0
320,16.0,-13.4717,2.5578,-9.4806,0.006866564089364682,-0.10460094948604828,-0.820240718042096,-0.0005223525346812682,-0.013937434663564785,-0.07081389942378724,0,70,255.0,255.0,255.0
321,16.05,-13.471357327276245,2.552553216990006,-9.521700768365445,0.006840294059926879,-0.10525664576094726,-0.823794318356877,-0.0005284486428308381,-0.012290416332393516,-0.071330113167455,0,70,255.0,255.0,255.0
322,16.1,-13.471015975674097,2.547275707939181,-9.56297986201381,0.006813719225081597,-0.10582999111928765,-0.8273737293588416,-0.0005345447509804079,-0.010643398001222246,-0.07184632691112275,0,70,255.0,255.0,255.0
323,16.150000000000002,-13.470675960433828,2.541971590393353,-9.60443857147945,0.0067868395848288375,-0.1063209855610695,-0.8309789510479895,-0.0005406408591299777,-0.008996379670050975,-0.0723625406547905,0,70,255.0,255.0,255.0
324,16.2,-13.470337296795705,2.53664498189835,-9.646078187296727,0.006759655139168601,-0.10672962908629273,-0.8346099834243205,-0.0005467369672795471,-0.007349361338879824,-0.07287875439845823,0,70,255.0,255.0,255.0
325,16.25,-13.47,2.5313,-9.6879,0.006732165888100884,-0.10705592169495746,-0.8382668264878351,-0.0005528330754290892,-0.005702343007708444,-0.07339496814212065,0,70,255.0,255.0,255.0
326,16.3,-13.469663808870447,2.525939613415634,-9.729904602639559,0.006720956823889416,-0.10736879309683223,-0.8419076311942685,0.00010447050697038013,-0.006812513067281627,-0.07223722011520957,0,70,255.0,255.0,255.0
327,16.35,-13.469327356564627,2.5205621955486,-9.772089798329405,0.006742612938797922,-0.10773717300168564,-0.8454905484993562,0.0007617740893698494,-0.007922683126854811,-0.07107947208829848,0,70,255.0,255.0,255.0
328,16.400000000000002,-13.468988999823582,2.515164970973749,-9.814452692699474,0.006797134232826401,-0.10816106140951771,-0.8490155784030984,0.001419077671769319,-0.009032853186427995,-0.06992172406138741,0,70,255.0,255.0,255.0
329,16.45,-13.468647095388357,2.5097451642659325,-9.856990391379691,0.006884520705974848,-0.10864045832032841,-0.8524827209054948,0.002076381254168741,-0.010143023246001099,-0.06876397603447641,0,70,255.0,255.0,255.0
330,16.5,-13.4683,2.5043,-9.8997,0.007004772358243274,-0.1091753637341178,-0.8558919760065458,0.002733684836568169,-0.011253193305573617,-0.06760622800755911,0,70,255.0,255.0,255.0
331,16.55,-13.467946637241967,2.4988275293474573,-9.942579221076322,0.00712387864453366,-0.10971618185171879,-0.8592791568660253,0.0020305666150472104,-0.01037953139846529,-0.06788100637162024,0,70,255.0,255.0,255.0
332,16.6,-13.467588198067398,2.4933291098664174,-9.985628144668572,0.007207829019747997,-0.11021331687396435,-0.8626800766437078,0.001327448393526252,-0.009505869491356964,-0.06815578473568139,0,70,255.0,255.0,255.0
333,16.650000000000002,-13.467226440271844,2.4878069257116495,-10.028847457722664,0.007256623483886287,-0.1106667688008545,-0.8660947353395936,0.000624330172005293,-0.008632207584248637,-0.06843056309974252,0,70,255.0,255.0,255.0
334,16.7,-13.46686312165086,2.4822631610379213,-10.072237847184502,0.007270262036948528,-0.1110765376323892,-0.869523132953682,-7.878804951561534e-05,-0.007758545677140373,-0.06870534146380365,0,70,255.0,255.0,255.0
335,16.75,-13.4665,2.4767,-10.1158,0.007248744678934724,-0.11144262336856853,-0.8729652694859737,-0.0007819062710365948,-0.006884883770031935,-0.06898011982786478,0,70,255.0,255.0,255.0
336,16.8,-13.466138442161684,2.471119069194539,-10.159533713055156,0.007215528597975967,-0.11179847949629154,-0.8763677413416322,-0.000546736967313643,-0.007349361338888378,-0.06711875439847075,0,70,255.0,255.0,255.0
337,16.85,-13.465778251165782,2.4655197649857303,-10.203435222996307,0.007194070982203359,-0.11217755950245738,-0.8796771449258209,-0.0003115676635906911,-0.00781383890774482,-0.06525738896907671,0,70,255.0,255.0,255.0
338,16.900000000000002,-13.465418839089043,2.4599009261796523,-10.247499876409881,0.007184371831616898,-0.11257986338706603,-0.88289348023854,-7.639835986773921e-05,-0.008278316476601265,-0.06339602353968267,0,70,255.0,255.0,255.0
339,16.95,-13.465059618008201,2.454261391582383,-10.291723019882301,0.007186431146216585,-0.11300539115011748,-0.8860167472797891,0.00015877094385519596,-0.008742794045457674,-0.061534658110288756,0,70,255.0,255.0,255.0
340,17.0,-13.4647,2.4486,-10.3361,0.007200248926002417,-0.11345414279161178,-0.8890469460495687,0.00039394024757815477,-0.009207271614314338,-0.05967329268089294,0,70,255.0,255.0,255.0
341,17.05,-13.464339594111305,2.442916193874388,-10.380627526703062,0.007214006963547907,-0.11388990016311935,-0.8920658777674516,0.0001563812542414286,-0.008223023245988368,-0.061083976034422366,0,70,255.0,255.0,255.0
342,17.1,-13.463978797269474,2.4372118301906616,-10.425307763346208,0.007215887051426561,-0.11427644511621063,-0.8951553436530111,-8.117773909529759e-05,-0.007238774877662396,-0.0624946593879518,0,70,255.0,255.0,255.0
343,17.150000000000002,-13.463618203371992,2.4314893695697406,-10.470144236637825,0.007205889189638377,-0.1146137776508856,-0.8983153437062469,-0.0003187367324320238,-0.0062545265093364244,-0.06390534274148123,0,70,255.0,255.0,255.0
344,17.2,-13.463258406316339,2.4257512726325468,-10.515140473286293,0.00718401337818336,-0.11490189776714427,-0.901545877927159,-0.0005562957257687331,-0.005270278141010523,-0.06531602609501055,0,70,255.0,255.0,255.0
345,17.25,-13.4629,2.42,-10.5603,0.007150259617061504,-0.11514080546498665,-0.9048469463157479,-0.0007938547191054732,-0.004286029772684108,-0.06672670944854264,0,70,255.0,255.0,255.0
346,17.3,-13.462543181393098,2.4142369553079077,-10.605624980132605,0.007128443547845124,-0.11539391985123215,-0.9081367475885577,-7.878804954973236e-05,-0.005838545677136131,-0.06486534146384756,0,70,255.0,255.0,255.0
347,17.35,-13.462186559756324,2.4084593142516226,-10.65111212361887,0.007142380812106531,-0.11572466003270027,-0.9113334804621328,0.0006362786200060084,-0.0073910615815881535,-0.06300397347915249,0,70,255.0,255.0,255.0
348,17.400000000000002,-13.461828347422998,2.4026631955413844,-10.696756777038832,0.0071920714098457255,-0.11613302600939097,-0.914437144936473,0.001351345289561749,-0.008943577486040178,-0.061142605494457415,0,70,255.0,255.0,255.0
349,17.45,-13.461466756726448,2.39684471788743,-10.742554286972528,0.007277515341062701,-0.11661901778130426,-0.9174477410115783,0.0020664119591174393,-0.01049609339049209,-0.05928123750976247,0,70,255.0,255.0,255.0
350,17.5,-13.4611,2.391,-10.7885,0.0073987126057574685,-0.11718263534844016,-0.9203652686874493,0.002781478628673187,-0.01204860929494378,-0.05741986952506828,0,70,255.0,255.0,255.0
351,17.55,-13.460726880316296,2.38512638489398,-10.834590152766523,0.007520218845070568,-0.1177504204319503,-0.9232431318783325,0.0020787709438507143,-0.010662794045461823,-0.057694658110262156,0,70,255.0,255.0,255.0
352,17.6,-13.46034856370523,2.379226112802846,-10.880824542178322,0.007606589700142543,-0.11824891475298636,-0.9261347344984756,0.0013760632590282423,-0.009276978795979867,-0.057969446695456034,0,70,255.0,255.0,255.0
353,17.650000000000002,-13.459966806936018,2.3733026482647226,-10.92720385520686,0.0076578251709733935,-0.1186781183115483,-0.9290400765478782,0.0006733555742057702,-0.00789116354649791,-0.05824423528064991,0,70,255.0,255.0,255.0
354,17.7,-13.45958336677787,2.367359455817733,-10.973728778823597,0.007673925257563121,-0.11903803110763614,-0.9319591580265405,-2.9352110616652407e-05,-0.0065053482970160535,-0.058519023865843775,0,70,255.0,255.0,255.0
355,17.75,-13.4592,2.3614,-11.0204,0.007654889959911726,-0.11932865314124991,-0.9348919789344624,-0.0007320597954391522,-0.005119533047534652,-0.05879381245103854,0,70,255.0,255.0,255.0
356,17.8,-13.45881809734172,2.355427105116173,-11.067217608801306,0.007622681071881529,-0.11958839842096376,-0.9378027248981133,-0.000556295725768752,-0.0052702781410190825,-0.057636026094996656,0,70,255.0,255.0,255.0
357,17.85,-13.458437585422754,2.3494410345369925,-11.11417930766785,0.00759926038733485,-0.11985568095535182,-0.9406555815439621,-0.00038053165609835184,-0.005421023234503513,-0.05647823973895477,0,70,255.0,255.0,255.0
358,17.900000000000002,-13.458058024832926,2.343441411399726,-11.16128220213374,0.007584627906271692,-0.12013050074441411,-0.943450548872009,-0.00020476758642795157,-0.005571768327987943,-0.05532045338291289,0,70,255.0,255.0,255.0
359,17.95,-13.457678976162066,2.33742785884164,-11.208523397733083,0.0075787836286920545,-0.1204128577881506,-0.9461876268822533,-2.9003516757563925e-05,-0.005722513421472362,-0.054162667026871086,0,70,255.0,255.0,255.0
360,18.0,-13.4573,2.3314,-11.2559,0.007581727554595938,-0.12070275208656132,-0.948866815574696,0.000146760552912871,-0.005873258514956459,-0.053004880670828314,0,70,255.0,255.0,255.0
361,18.05,-13.456920730316826,2.32535719464133,-11.303409812028258,0.007589056867396808,-0.12101598588419733,-0.9515299685292111,0.00014641195912194622,-0.006656093390483642,-0.05352123750977569,0,70,255.0,255.0,255.0
362,18.1,-13.456541094603756,2.3192977490491833,-11.351053427150289,0.007596368750508132,-0.1213683614256097,-0.9542189393256737,0.00014606336533102142,-0.0074389282660108245,-0.05403759434872307,0,70,255.0,255.0,255.0
363,18.150000000000002,-13.456161093732272,2.3132197061363726,-11.398832136258191,0.00760366320392991,-0.12175987871079842,-0.9569337279640835,0.00014571477154009664,-0.008221763141538007,-0.05455395118767046,0,70,255.0,255.0,255.0
364,18.2,-13.455780728573856,2.307121108815708,-11.44674723024406,0.007610940227662142,-0.12219053773976347,-0.9596743344444406,0.00014536617774917187,-0.009004598017065135,-0.055070308026617804,0,70,255.0,255.0,255.0
365,18.25,-13.4554,2.301,-11.4948,0.007618199821704827,-0.12266033851250491,-0.9624407587667452,0.00014501758395821934,-0.009787432892591763,-0.055586664865559854,0,70,255.0,255.0,255.0
366,18.3,-13.455018981390973,2.294855316318507,-11.54299114308567,0.007621091458538365,-0.12311565804224521,-0.9651974009850305,-2.9352110616693823e-05,-0.008425348297020265,-0.054679023865850586,0,70,255.0,255.0,255.0
367,18.35,-13.454638036162224,2.2886895692662717,-11.591318983731005,0.007615264610643158,-0.12350287334220694,-0.9679086611533304,-0.000203721805191607,-0.007063263701448769,-0.05377138286614131,0,70,255.0,255.0,255.0
368,18.400000000000002,-13.45425760023799,2.2825061640547823,-11.639781252833505,0.007600719278019205,-0.1238219844123901,-0.9705745392716446,-0.00037809149976652016,-0.005701179105877272,-0.05286374186643204,0,70,255.0,255.0,255.0
369,18.45,-13.453878109542499,2.2763085058955297,-11.688375681290667,0.007577455460666508,-0.12407299125279467,-0.9731950353399734,-0.000552461194341421,-0.004339094510305871,-0.05195610086672283,0,70,255.0,255.0,255.0
370,18.5,-13.4535,2.2701,-11.7371,0.007545473158585063,-0.12425589386342066,-0.9757701493583169,-0.0007268308889163758,-0.0029770099147344853,-0.05104845986701001,0,70,255.0,255.0,255.0
371,18.55,-13.453123344119279,2.263883140084641,-11.785952015629066,0.007526577298443214,-0.12442538194682573,-0.9783044275306642,-2.9003516757544518e-05,-0.003802513421468346,-0.05032266702687983,0,70,255.0,255.0,255.0
372,18.6,-13.452746760747344,2.257656773885728,-11.834929837925701,0.0075425728069093085,-0.12463614520556751,-0.9808024160610048,0.0006688238554012867,-0.0046280169282022065,-0.04959687418674965,0,70,255.0,255.0,255.0
373,18.650000000000002,-13.452368505315775,2.251418837644495,-11.884031652407803,0.007593459683983344,-0.12488818363964596,-0.9832641149493392,0.0013666512275601179,-0.005453520434936068,-0.04887108134661947,0,70,255.0,255.0,255.0
374,18.7,-13.451986833256138,2.2451672676021746,-11.933255644593265,0.007679237929665315,-0.1251814972490611,-0.9856895241956667,0.0020644785997188993,-0.00627902394166987,-0.048145288506489345,0,70,255.0,255.0,255.0
375,18.75,-13.4516,2.2389,-11.9826,0.007799907543955232,-0.12551608603381295,-0.9880786437999881,0.002762305971877696,-0.007104527448403397,-0.04741949566636183,0,70,255.0,255.0,255.0
376,18.8,-13.451206842131917,2.2326153233429284,-12.032063194398066,0.007920599347695793,-0.12587081417044954,-0.9904488888923122,0.002065366177744675,-0.007084598017060583,-0.047390308026600714,0,70,255.0,255.0,255.0
377,18.85,-13.45080852084839,2.226312935190814,-12.081644864566199,0.008006444161729702,-0.12622454583551904,-0.9928176746026482,0.0013684263836116536,-0.00706466858571777,-0.047361120386839595,0,70,255.0,255.0,255.0
378,18.900000000000002,-13.450406778498905,2.219992885367236,-12.1313449375353,0.00805744198605696,-0.12657728102902133,-0.9951850009309963,0.0006714865894786324,-0.007044739154374956,-0.047331932747078476,0,70,255.0,255.0,255.0
379,18.95,-13.450003357432948,2.213655223695772,-12.181163340336264,0.008073592820677567,-0.12692901975095652,-0.9975508678773559,-2.5453204654339416e-05,-0.0070248097230321445,-0.04730274510731736,0,70,255.0,255.0,255.0
380,19.0,-13.4496,2.2073,-12.2311,0.008054896665591523,-0.12727976200132454,-0.999915275441728,-0.0007223929987873884,-0.0070048802916893305,-0.04727355746755002,0,70,255.0,255.0,255.0
381,19.05,-13.44919808735305,2.2009275665436445,-12.28115440677867,0.008023025310763304,-0.12761136137137474,-1.002252016900085,-0.0005524611943414418,-0.006259094510318464,-0.04619610086673125,0,70,255.0,255.0,255.0
382,19.1,-13.448797555859086,2.1945394853510134,-12.33132430380951,0.007999650546157379,-0.1279056714523564,-1.004534885528401,-0.0003825293898954953,-0.005513308728947598,-0.04511864426591249,0,70,255.0,255.0,255.0
383,19.150000000000002,-13.448397980688597,2.18813762088656,-12.381606997451012,0.007984772371773753,-0.12816269224426952,-1.0067638813266764,-0.00021259758544954878,-0.004767522947576732,-0.044041187665093726,0,70,255.0,255.0,255.0
384,19.200000000000003,-13.447998937012072,2.1817238376147374,-12.431999794061676,0.007978390787612423,-0.1283824237471141,-1.0089390042949107,-4.2665781003602176e-05,-0.004021737166205865,-0.042963731064274965,0,70,255.0,255.0,255.0
385,19.25,-13.4476,2.1753,-12.4825,0.00798050579367339,-0.1285648659608901,-1.0110602544331038,0.0001272660234423184,-0.003275951384835052,-0.041886274463456274,0,70,255.0,255.0,255.0
386,19.3,-13.44720080845588,2.1688672104824924,-12.533105578487254,0.007987299409252531,-0.12875574034405263,-1.0131670435073519,0.00014447859972337463,-0.004359023941665778,-0.042385288506471504,0,70,255.0,255.0,255.0
387,19.35,-13.44680125571526,2.1624235234051303,-12.583817120195771,0.007994953653645729,-0.1290007683550567,-1.015298783283751,0.00016169117600443089,-0.005442096498496505,-0.04288430254948673,0,70,255.0,255.0,255.0
388,19.400000000000002,-13.446401298746702,2.155966231086522,-12.634635872660667,0.008003468526852976,-0.1292999499939023,-1.0174554737623007,0.0001789037522854871,-0.006525169055327231,-0.04338331659250196,0,70,255.0,255.0,255.0
389,19.450000000000003,-13.446000894518763,2.1494926258452765,-12.68556308341704,0.008012844028874276,-0.12965328526058942,-1.0196371149430012,0.00019611632856654336,-0.007608241612157957,-0.04388233063551719,0,70,255.0,255.0,255.0
390,19.5,-13.4456,2.143,-12.7366,0.008023080159709631,-0.13006077415511805,-1.0218437068258523,0.00021332890484761224,-0.008691314168988606,-0.044381344678528833,0,70,255.0,255.0,255.0
391,19.55,-13.44519867882343,2.136486791526385,-12.787747279272319,0.008027777052214462,-0.13045367725241835,-1.0240398090704985,-2.545320465436381e-05,-0.007024809723023594,-0.04346274510732292,0,70,255.0,255.0,255.0
392,19.6,-13.44479742127987,2.1299560210284625,-12.839003215407407,0.008020534839244194,-0.1307632551274204,-1.0261899813365847,-0.00026423531415633987,-0.005358305277058581,-0.042544145536117,0,70,255.0,255.0,255.0
393,19.650000000000002,-13.444396824324595,2.1234118547673475,-12.890365511906335,0.008001353520798827,-0.13098950778012422,-1.0282942236241104,-0.0005030174236583159,-0.0036918008310935675,-0.04162554596491109,0,70,255.0,255.0,255.0
394,19.700000000000003,-13.443997484912881,2.116858459004155,-12.941831872270178,0.007970233096878361,-0.13113243521052978,-1.0303525359330759,-0.000741799533160292,-0.002025296385128555,-0.04070694639370517,0,70,255.0,255.0,255.0
395,19.75,-13.4436,2.1103,-12.9934,0.007927173567482801,-0.13119203741863708,-1.0323649182634809,-0.000980581642662251,-0.0003587919391641048,-0.03978834682249577,0,70,255.0,255.0,255.0
396,19.8,-13.443204476250404,2.1037392234119663,-13.04506770442347,0.007901592381892007,-0.13125355064627145,-1.0343377202106512,-4.266578096950911e-05,-0.0021017371662105846,-0.03912373106431736,0,70,255.0,255.0,255.0
397,19.85,-13.442809059165258,2.0971731924810166,-13.0968332181746,0.00792290698938585,-0.13140221113525813,-1.0362772913699125,0.0008952500807232328,-0.003844682393257065,-0.03845911530613895,0,70,255.0,255.0,255.0
398,19.900000000000002,-13.442411403954912,2.0905975498440843,-13.148694879713997,0.00799111738996433,-0.13163801888559717,-1.0381836317412652,0.0018331659424159746,-0.005587627620303544,-0.03779449954796054,0,70,255.0,255.0,255.0
399,19.950000000000003,-13.442009165829711,2.084007938138101,-13.200651027502264,0.008106223583627451,-0.1319609738972885,-1.0400567413247088,0.0027710818041087166,-0.007330572847350025,-0.03712988378978213,0,70,255.0,255.0,255.0
400,20.0,-13.4416,2.0774,-13.2527,0.008268225570375192,-0.13237107617033217,-1.0418966201202433,0.003708997665801378,-0.009073518074396603,-0.03646526803160022,0,70,255.0,255.0,255.0
401,20.05,-13.441182616174956,2.0707707148257493,-13.304840303033805,0.008413853420232575,-0.13278812016249625,-1.04371331008692,0.0021161163284938497,-0.007608241612166268,-0.03620233063546471,0,70,255.0,255.0,255.0
402,20.1,-13.44075994205909,2.0641224090474686,-13.357071111894196,0.00847983720322458,-0.1331319003315488,-1.0455168531837897,0.0005232349911863214,-0.006142965149935934,-0.035939393239329216,0,70,255.0,255.0,255.0
403,20.150000000000002,-13.440335959855748,2.0574587458563127,-13.409391769237688,0.008466176919351207,-0.13340241667748984,-1.0473072494108528,-0.0010696463461212068,-0.004677688687705598,-0.03567645584319371,0,70,255.0,255.0,255.0
404,20.200000000000003,-13.43991465176827,2.050783388443438,-13.461801617720788,0.008372872568612457,-0.13359966920031938,-1.0490844987681092,-0.002662527683428735,-0.003212412225475264,-0.03541351844705821,0,70,255.0,255.0,255.0
405,20.25,-13.4395,2.0441,-13.5143,0.008199924151008347,-0.1337236579000374,-1.0508486012555587,-0.0042554090207361644,-0.0017471357632443674,-0.03515058105092628,0,70,255.0,255.0,255.0
406,20.3,-13.439094659049774,2.0374115172850344,-13.56688628344132,0.008026993937161898,-0.1338179687037463,-1.052601039441674,-0.002661799533121686,-0.0020252963851113345,-0.03494694639368525,0,70,255.0,255.0,255.0
407,20.35,-13.438695972598378,2.0307179713291066,-13.619559934248622,0.007933744197696175,-0.1339261875385485,-1.0543432958949273,-0.0010681900455072075,-0.0023034570069783013,-0.034743311736444224,0,70,255.0,255.0,255.0
408,20.400000000000002,-13.438299956622098,2.024018666730661,-13.672320443335265,0.007920174932611176,-0.13404831440444415,-1.0560753706153185,0.000525419442107271,-0.002581617628845268,-0.03453967707920319,0,70,255.0,255.0,255.0
409,20.450000000000003,-13.437902627097209,2.017312908088144,-13.725167301614606,0.007986286141906902,-0.13418434930143308,-1.0577972636028476,0.0021190289297217495,-0.002859778250712235,-0.034336042421962164,0,70,255.0,255.0,255.0
410,20.5,-13.4375,2.0106,-13.7781,0.00813207782558334,-0.13433429222951535,-1.0595089748575146,0.0037126384173360727,-0.0031379388725791824,-0.0341324077647176,0,70,255.0,255.0,255.0
411,20.55,-13.437089147625954,2.003879216034111,-13.831117763200925,0.008294170831120311,-0.13450000502251383,-1.061194532146378,0.0027710818041427367,-0.0034905728473592352,-0.03328988378982166,0,70,255.0,255.0,255.0
412,20.6,-13.436671367547397,1.9971497056361032,-13.884218751111328,0.008409186005997616,-0.13468334951425126,-1.0628379632364968,0.0018295251909494002,-0.003843206822139288,-0.032447359814925726,0,70,255.0,255.0,255.0
413,20.650000000000002,-13.436249013655866,1.9904105872210398,-13.937400857421265,0.008477123350215254,-0.13488432570472775,-1.0644392681278707,0.0008879685777560642,-0.004195840796919341,-0.03160483584002979,0,70,255.0,255.0,255.0
414,20.700000000000003,-13.43582443984289,1.9836609792039843,-13.990661975820803,0.008497982863773224,-0.1351029335939432,-1.0659984468204997,-5.358803543727229e-05,-0.004548474771699394,-0.030762311865133847,0,70,255.0,255.0,255.0
415,20.75,-13.4354,1.9769,-14.044,0.00847176454667153,-0.1353391731818977,-1.0675154993143838,-0.000995144648630597,-0.004901108746479643,-0.029919787890229088,0,70,255.0,255.0,255.0
416,20.8,-13.434977550446408,1.9701268185785226,-14.097413063754981,0.008428322738369085,-0.13559001120619676,-1.0690048319728156,-0.0007425276834672331,-0.005132412225483488,-0.029653518447037182,0,70,255.0,255.0,255.0
417,20.85,-13.434556957212024,1.963340806126481,-14.15090026130608,0.008397511778324806,-0.13585241440444606,-1.0704808511590875,-0.0004899107183038693,-0.005363715704487333,-0.029387249003845275,0,70,255.0,255.0,255.0
418,20.900000000000002,-13.434137588754437,1.9565413843851784,-14.204460926979689,0.008379331666538698,-0.13612638277664552,-1.0719435568732,-0.00023729375314050533,-0.005595019183491178,-0.02912097956065337,0,70,255.0,255.0,255.0
419,20.950000000000003,-13.433718813531234,1.949727975095917,-14.258094395102201,0.008373782403010755,-0.13641191632279517,-1.0733929491151528,1.53232120228585e-05,-0.0058263226624950225,-0.028854710117461463,0,70,255.0,255.0,255.0
420,21.0,-13.4333,1.9429,-14.3118,0.008380863987740982,-0.13670901504289504,-1.074829027884946,0.0002679401771861767,-0.006057626141499073,-0.02858844067426425,0,70,255.0,255.0,255.0
421,21.05,-13.43288065058841,1.9360575096517996,-14.365577181779152,0.008392538215412935,-0.1369799501527001,-1.0762581399623519,0.00019902892969200127,-0.004779778250703375,-0.02857604242197489,0,70,255.0,255.0,255.0
422,21.1,-13.432460803604497,1.929203069857972,-14.41942580366436,0.008400766880710182,-0.13718699286796537,-1.0776866321271434,0.00013011768219782586,-0.003501930359907676,-0.028563644169685532,0,70,255.0,255.0,255.0
423,21.150000000000002,-13.43204063132638,1.922339875238245,-14.473345834659991,0.008405549983632719,-0.13733014318869086,-1.0791145043793204,6.120643470365045e-05,-0.0022240824691119776,-0.028551245917396172,0,70,255.0,255.0,255.0
424,21.200000000000003,-13.431620306032174,1.9154711204123451,-14.527337243770416,0.008406887524180548,-0.1374094011148766,-1.080541756718883,-7.704812790524968e-06,-0.0009462345783162792,-0.028538847665106813,0,70,255.0,255.0,255.0
425,21.25,-13.4312,1.9086,-14.5814,0.008404779502353667,-0.1374247666465225,-1.0819683891458314,-7.661606028466772e-05,0.00033161331248021675,-0.028526449412812127,0,70,255.0,255.0,255.0
426,21.3,-13.430779847199947,1.9017287428142795,-14.635533409128413,0.008401524399961472,-0.137434188183003,-1.08335460817778,-5.358803540311786e-05,-0.0007084747716996334,-0.02692231186513607,0,70,255.0,255.0,255.0
427,21.35,-13.430359828369983,1.8948557144416296,-14.689734124036491,0.008399420698813356,-0.13749561412369246,-1.084660620332345,-3.056001052156799e-05,-0.0017485628558794836,-0.025318174317460015,0,70,255.0,255.0,255.0
428,21.400000000000002,-13.429939885940046,1.8879783146618396,-14.743998134380359,0.008398468398909315,-0.13760904446859096,-1.0858864256095262,-7.531985640018136e-06,-0.002788650940059334,-0.023714036769783963,0,70,255.0,255.0,255.0
429,21.450000000000003,-13.429519962340072,1.8810939432546998,-14.798321429816154,0.008398667500249353,-0.13777447921769842,-1.0870320240093234,1.549603924153174e-05,-0.003828739024239184,-0.022109899222107907,0,70,255.0,255.0,255.0
430,21.5,-13.4291,1.8742,-14.8527,0.008400018002833468,-0.13799191837101488,-1.088097415531737,3.852406412307996e-05,-0.0048688271084191825,-0.020505761674431966,0,70,255.0,255.0,255.0
431,21.55,-13.428679960611799,1.8672947190910827,-14.907130781707197,0.00840136418473797,-0.13821129711528785,-1.0891394273265338,1.5323212056933213e-05,-0.003906322662499825,-0.021174710117443152,0,70,255.0,255.0,255.0
432,21.6,-13.428259882915569,1.8603796723755095,-14.96161450018969,0.008401550324039163,-0.13838255063726487,-1.0902148865434813,-7.877640009213533e-06,-0.002943818216580469,-0.021843658560454334,0,70,255.0,255.0,255.0
433,21.650000000000002,-13.42783982491344,1.8534572661143944,-15.016152827818583,0.008400576420737046,-0.1385056789369459,-1.0913237931825792,-3.107849207536028e-05,-0.001981313770661112,-0.02251260700346552,0,70,255.0,255.0,255.0
434,21.700000000000003,-13.427419844607538,1.846529906568853,-15.070747436964988,0.008398442474831624,-0.13858068201433096,-1.0924661472438277,-5.4279344141507026e-05,-0.0010188093247417546,-0.023181555446476702,0,70,255.0,255.0,255.0
435,21.75,-13.427,1.8396,-15.1254,0.008395148486322897,-0.1386075598694201,-1.0936419487272269,-7.748019620767987e-05,-5.630487882224422e-05,-0.023850503889480734,0,70,255.0,255.0,255.0
436,21.8,-13.426580310352852,1.8326691808213889,-15.180111464042799,0.008393018861097088,-0.13863262335584844,-1.0948076825160908,-7.704812824626108e-06,-0.0009462345783114793,-0.02277884766508221,0,70,255.0,255.0,255.0
437,21.85,-13.426160639967737,1.8257359960563322,-15.234879875204756,0.008394378005040434,-0.13870218332725126,-1.0959198334937352,6.207057055842766e-05,-0.0018361642778007144,-0.021707191440683685,0,70,255.0,255.0,255.0
438,21.900000000000002,-13.425740814406197,1.8187982208805806,-15.28970255434532,0.008399225918152932,-0.13881623978362853,-1.0969784016601594,0.00013184595394148145,-0.0027260939772899497,-0.02063553521628516,0,70,255.0,255.0,255.0
439,21.950000000000003,-13.425320659229769,1.8118536304698858,-15.344576822323921,0.008407562600434583,-0.13897479272498026,-1.0979833870153637,0.0002016213373245352,-0.0036160236767791847,-0.019563878991886635,0,70,255.0,255.0,255.0
440,22.0,-13.4249,1.8049,-15.3995,0.008419388051885385,-0.13917784215130646,-1.0989347895593478,0.0002713967207075285,-0.004505953376268579,-0.018492222767475752,0,70,255.0,255.0,255.0
441,22.05,-13.42447879797679,1.7979357576233608,-15.454469762121617,0.008426560370883258,-0.13938620946131905,-1.0998538426090876,1.5496039207404076e-05,-0.0038287390242350743,-0.018269899222114458,0,70,255.0,255.0,255.0
442,22.1,-13.42405755721348,1.7909619433991613,-15.509485198991289,0.008420937655806126,-0.13956071605373,-1.1007617794815594,-0.00024040464229272036,-0.0031515246722015697,-0.018047575676753164,0,70,255.0,255.0,255.0
443,22.150000000000002,-13.423636917461774,1.7839802503632811,-15.564545754800152,0.008402519906653985,-0.1397013619285392,-1.101658600176763,-0.0004963053237928448,-0.0024743103201680648,-0.01782525213139187,0,70,255.0,255.0,255.0
444,22.200000000000003,-13.42321751847338,1.7769923715516005,-15.619650873739346,0.00837130712342684,-0.1398081470857468,-1.1025443046946983,-0.0007522060052929692,-0.0017970959681345602,-0.017602928586030575,0,70,255.0,255.0,255.0
445,22.25,-13.4228,1.77,-15.6748,0.00832729930612469,-0.1398810715253527,-1.1034188930353657,-0.0010081066867930616,-0.0011198816161013259,-0.017380605040663966,0,70,255.0,255.0,255.0
446,22.3,-13.422384497739992,1.7630045886851669,-15.72999268747074,0.008300739655352178,-0.13993453879887388,-1.1042889470475452,-5.427934410737222e-05,-0.001018809324746027,-0.017421555446522775,0,70,255.0,255.0,255.0
447,22.35,-13.421969131178347,1.7560066303470219,-15.785228928830092,0.008321871371713953,-0.1399829524578273,-1.105161048580018,0.0008995479985783171,-0.000917737033390728,-0.017462505852381585,0,70,255.0,255.0,255.0
448,22.400000000000002,-13.421551515746703,1.7490063776662934,-15.84050882645408,0.008390694455210013,-0.14002631250221298,-1.1060351976327834,0.0018533753412640066,-0.0008166647420354291,-0.01750345625824039,0,70,255.0,255.0,255.0
449,22.450000000000003,-13.421129266876704,1.7420040833237098,-15.895832482718713,0.008507208905840355,-0.14006461893203084,-1.1069113942058422,0.002807202683949696,-0.0007155924506801301,-0.0175444066640992,0,70,255.0,255.0,255.0
450,22.5,-13.4207,1.735,-15.9512,0.008671414723604973,-0.14009787174728097,-1.1077896382991934,0.0037610300266353314,-0.0006145201593239502,-0.017585357069958008,0,70,255.0,255.0,255.0
451,22.55,-13.42026241106324,1.727993887635971,-16.006610687995433,0.008818481007704711,-0.14015563534318365,-1.1086223692007389,0.0021216213373541114,-0.0016960236767834466,-0.015723878991856538,0,70,255.0,255.0,255.0
452,22.6,-13.419819518073137,1.7209835352127503,-16.062060685688348,0.008883576857340389,-0.1402674741149593,-1.109362026198379,0.0004822126480728919,-0.002777527194242943,-0.013862400913755072,0,70,255.0,255.0,255.0
453,22.650000000000002,-13.419375419551413,1.713966238971544,-16.11754533938354,0.008866702272512001,-0.14043338806260797,-1.1100086092921142,-0.0011571960412083285,-0.00385903071170244,-0.012000922835653603,0,70,255.0,255.0,255.0
454,22.700000000000003,-13.418934214019794,1.706939295153558,-16.173059995385824,0.008767857253219553,-0.14065337718612958,-1.1105621184819445,-0.0027966047304895476,-0.004940534229161936,-0.010139444757552135,0,70,255.0,255.0,255.0
455,22.75,-13.4185,1.6999,-16.2286,0.00858704179946306,-0.1409274414855241,-1.1110225537678695,-0.0044360134197706375,-0.006022037746620246,-0.008277966679450799,0,70,255.0,255.0,255.0
456,22.8,-13.418075458007046,1.6928470607709478,-16.284162160547538,0.008409336313835728,-0.14117091982839286,-1.1114775761495053,-0.0026722060053225695,-0.0037170959681301803,-0.0099229285859771,0,70,255.0,255.0,255.0
457,22.85,-13.417657596529105,1.685784828801976,-16.339749128416543,0.008319821198930799,-0.14129915108233712,-1.1120148466264672,-0.0009083985908745012,-0.001412154189640115,-0.011567890492503398,0,70,255.0,255.0,255.0
458,22.900000000000002,-13.41724200604764,1.6787190664475296,-16.395365016011773,0.008318496454748275,-0.14131213524735686,-1.1126343651987556,0.0008554088235735672,0.0008927875888499505,-0.013212852399029699,0,70,255.0,255.0,255.0
459,22.950000000000003,-13.416824277044118,1.6716555360620553,-16.451013935738008,0.008405362081288158,-0.14120987232345214,-1.1133361318663701,0.002619216238021635,0.003197729367340016,-0.014857814305555998,0,70,255.0,255.0,255.0
460,23.0,-13.4164,1.6646,-16.5067,0.008580418078550428,-0.14099236231062287,-1.1141201466293111,0.004383023652469578,0.005502671145829696,-0.01650277621207863,0,70,255.0,255.0,255.0
461,23.05,-13.415966156908576,1.6575562692802357,-16.562425469814418,0.00876017373696091,-0.14077668534324414,-1.1148753262012168,0.0028072026839496304,0.0031244075493193184,-0.013704406664140793,0,70,255.0,255.0,255.0
462,23.1,-13.415525295810443,1.650520349579345,-16.6181852006455,0.008861138346945395,-0.14067992155569092,-1.1154905872957253,0.0012313817154296827,0.0007461439528089406,-0.010906037116202957,0,70,255.0,255.0,255.0
463,23.150000000000002,-13.415081356258023,1.6434862952383362,-16.673972196569366,0.00888331190850388,-0.14070207094796325,-1.115965929912837,-0.0003444392530902651,-0.0016321196437014364,-0.008107667568265123,0,70,255.0,255.0,255.0
464,23.200000000000003,-13.414638277803734,1.6364481605982182,-16.729779461662158,0.008826694421636368,-0.1408431335200611,-1.1163013540525517,-0.0019202602216102128,-0.004010383240211815,-0.005309298020327287,0,70,255.0,255.0,255.0
465,23.25,-13.4142,1.6294,-16.7856,0.008691285886342867,-0.1411031092719844,-1.1164968597148697,-0.0034960811901300903,-0.006388646836721579,-0.0025109284723896508,0,70,255.0,255.0,255.0
466,23.3,-13.413769514358647,1.6223374621081077,-16.841428760194784,0.008533968738326524,-0.1413863387986315,-1.1166691190456202,-0.0027966047305235456,-0.004940534229161055,-0.0043794447576346145,0,70,255.0,255.0,255.0
467,23.35,-13.413346020229117,1.615262572880643,-16.897268469001467,0.008411625413290508,-0.14159716269490052,-1.1169348041906333,-0.0020971282709170004,-0.003492421621600531,-0.006247961042879577,0,70,255.0,255.0,255.0
468,23.400000000000002,-13.412927768920266,1.6081789525991241,-16.953123797710752,0.008324255911234821,-0.14173558096079156,-1.1172939151499082,-0.0013976518113104552,-0.0020443090140400072,-0.00811647732812454,0,70,255.0,255.0,255.0
469,23.450000000000003,-13.412513011740943,1.60109022154507,-17.008999417613367,0.00827186023215946,-0.1418015935963045,-1.1177464519234457,-0.0006981753517039105,-0.0005961964064794831,-0.009984993613369504,0,70,255.0,255.0,255.0
470,23.5,-13.4121,1.594,-17.0649,0.008254438376064429,-0.1417952006014395,-1.118292414511245,1.3011079025571082e-06,0.0008519162010804937,-0.011853509898609005,0,70,255.0,255.0,255.0
471,23.55,-13.411686985656843,1.5869114822873318,-17.12082828940644,0.008271951309713496,-0.14174195946222898,-1.1188161976163458,0.000699216238060123,0.001277729367339881,-0.00909781430543038,0,70,255.0,255.0,255.0
472,23.6,-13.41127222327309,1.5798261588980822,-17.176779323348644,0.008324359999870443,-0.1416674276647055,-1.119202195941788,0.0013971313682176888,0.0017035425335992682,-0.006342118712251754,0,70,255.0,255.0,255.0
473,23.650000000000002,-13.410853968060911,1.5727450943651664,-17.232746212587628,0.008411664446535266,-0.14157160520886908,-1.119450409487571,0.0020950464983752544,0.0021293556998586553,-0.003586423119073128,0,70,255.0,255.0,255.0
474,23.700000000000003,-13.410430475232491,1.5656693532215005,-17.288722067884407,0.00853386464970797,-0.14145449209471964,-1.1195608382536955,0.0027929616285328205,0.0025551688661180428,-0.0008307275258945031,0,70,255.0,255.0,255.0
475,23.75,-13.41,1.5586,-17.3447,0.00869096060938854,-0.14131608832225728,-1.1195334822401606,0.003490876758690392,0.0029809820323771774,0.0019249680672945857,0,70,255.0,255.0,255.0
476,23.8,-13.40956174301399,1.551537408742564,-17.400674882179462,0.008826226022816177,-0.14119782335245315,-1.1194740904889868,0.0019197397784150138,0.00174961675978798,0.0004507019796623059,0,70,255.0,255.0,255.0
477,23.85,-13.409118686678536,1.5444791915270273,-17.45664863760397,0.008882934587230044,-0.14114112664627848,-1.1194884120421944,0.0003486027981396355,0.0005182514871987826,-0.001023564107969974,0,70,255.0,255.0,255.0
478,23.900000000000002,-13.408674758836085,1.537422269940209,-17.512624951938758,0.00886108630263014,-0.14114599820373327,-1.1195764468997838,-0.001222534182135743,-0.0007131137853904151,-0.0024978301956022535,0,70,255.0,255.0,255.0
479,23.950000000000003,-13.40823388732909,1.5303635655689265,-17.568607510849027,0.008760681169016469,-0.1412124380248175,-1.1197381950617544,-0.002793671162411121,-0.0019444790579796123,-0.0039720962832345335,0,70,255.0,255.0,255.0
480,24.0,-13.4078,1.5233,-17.6246,0.008581719186389043,-0.14134044610953123,-1.1199736565281069,-0.004364808142686319,-0.0031758443305687223,-0.0054463623708613795,0,70,255.0,255.0,255.0
481,24.05,-13.407375642287196,1.5162292827424118,-17.68060498187572,0.008407144599028544,-0.14148274712795741,-1.120215440427713,-0.0026181753517335593,-0.0025161964064794777,-0.0042249936133806724,0,70,255.0,255.0,255.0
482,24.1,-13.406957830012772,1.5091522749938076,-17.736620526235473,0.008319901651215683,-0.14159206575017919,-1.120396155889445,-0.0008715425607808002,-0.0018565484823902336,-0.0030036248558999654,0,70,255.0,255.0,255.0
483,24.150000000000002,-13.40654219659475,1.5020706258739973,-17.79264357965737,0.008319990342950462,-0.14166840197619646,-1.1205158029133029,0.000875090230171959,-0.001196900558300989,-0.0017822560984192583,0,70,255.0,255.0,255.0
484,24.200000000000003,-13.40612437545115,1.494985984502791,-17.84867108871951,0.00840741067423288,-0.14171175580600928,-1.1205743814992868,0.0026217230211247186,-0.000537252634211745,-0.0005608873409385512,0,70,255.0,255.0,255.0
485,24.25,-13.4057,1.4879,-17.9047,0.008582162645062922,-0.14172212723961763,-1.1205718916473968,0.004368355812077382,0.00012239528987745274,0.0006604814165456219,0,70,255.0,255.0,255.0
486,24.3,-13.405266087837225,1.480814260287788,-17.96072759031766,0.00876119558107818,-0.14170318813571783,-1.1205281478001305,0.002792961628532778,0.0006351688661137518,0.001089272474105491,0,70,255.0,255.0,255.0
487,24.35,-13.404825193270378,1.4737301084977414,-18.016752457454132,0.008861458807916205,-0.14165861035300625,-1.1204629643999862,0.0012175674449881736,0.0011479424423500508,0.0015180635316653602,0,70,255.0,255.0,255.0
488,24.400000000000002,-13.404381254784917,1.4666488265638007,-18.072773529431775,0.008882952325576997,-0.14158839389148284,-1.120376341446964,-0.00035782673855643075,0.0016607160185863497,0.0019468545892252292,0,70,255.0,255.0,255.0
489,24.450000000000003,-13.403938210866308,1.4595716964199066,-18.128789734272946,0.00882567613406056,-0.14149253875114765,-1.1202682789410636,-0.0019332209221010347,0.002173489594822649,0.0023756456467850986,0,70,255.0,255.0,255.0
490,24.5,-13.4035,1.4525,-18.1848,0.008689630233366904,-0.14137104493200056,-1.1201387768822855,-0.003508615105645499,0.0026862631710591334,0.002804436704344937,0,70,255.0,255.0,255.0
491,24.55,-13.403069606363903,1.4454344761064348,-18.240803056853643,0.008532073076664638,-0.1412565003291734,-1.1199759683717596,-0.002793671162445086,0.0018955209420285055,0.003707903716681939,0,70,255.0,255.0,255.0
492,24.6,-13.402646196905714,1.438373691015225,-18.296796843948,0.008410263117122391,-0.1411814928377977,-1.1197679865106174,-0.002078727219244674,0.0011047787129978778,0.004611370729018941,0,70,255.0,255.0,255.0
493,24.650000000000002,-13.402227984265572,1.4313156678707972,-18.352779102615532,0.008324200354740168,-0.14114602245787358,-1.1195148312988579,-0.0013637832760442616,0.00031403648396725013,0.0055148377413559435,0,70,255.0,255.0,255.0
494,24.700000000000003,-13.401813181083622,1.4242584298175798,-18.40874757418871,0.008273884789517964,-0.14115008918940097,-1.1192165027364818,-0.0006488393328438488,-0.00047670574506337776,0.006418304753692945,0,70,255.0,255.0,255.0
495,24.75,-13.4014,1.4172,-18.4647,0.008259316421455781,-0.1411936930323799,-1.1188730008234886,6.61046103564572e-05,-0.0012674479740939493,0.007321771766033436,0,70,255.0,255.0,255.0
496,24.8,-13.40098668670716,1.4101390352864716,-18.52063458226776,0.008278512112243772,-0.14123881054758766,-1.1185119787128581,0.0007017230211631926,-0.0005372526342160795,0.007119112659182744,0,70,255.0,255.0,255.0
497,24.85,-13.400571619106767,1.4030767274413576,-18.576551366753876,0.008329488723572101,-0.14124741829580154,-1.1181610895575704,0.001337341431969928,0.00019294270566179027,0.006916453552332052,0,70,255.0,255.0,255.0
498,24.900000000000002,-13.400153208152794,1.396014901953008,-18.63245086010611,0.008412246255440767,-0.14121951627702148,-1.117820333357625,0.0019729598427766634,0.0009231380455396597,0.0067137944454813605,0,70,255.0,255.0,255.0
499,24.950000000000003,-13.399729864799214,1.3889553843097717,-18.68833356897223,0.008526784707849771,-0.14115510449124757,-1.1174897101130221,0.002608578253583399,0.0016533333854175298,0.006511135338630669,0,70,255.0,255.0,255.0
500,25.0,-13.3993,1.3819,-18.7442,0.008673104080799098,-0.14105418293847977,-1.117169219823762,0.0032441966643900755,0.0023835287252960136,0.006308476231783544,0,70,255.0,255.0,255.0
501,25.05,-13.398862846807459,1.374850182747678,-18.800050614075307,0.008801878474356956,-0.14094025748047678,-1.1168561167767979,0.0019067790779242176,0.002173489594823238,0.006215645646776834,0,70,255.0,255.0,255.0
502,25.1,-13.39842092666722,1.367805799219343,-18.8558856890365,0.008863781988591522,-0.14083683397899743,-1.116547655259084,0.0005693614914583597,0.0019634504643504633,0.006122815061770123,0,70,255.0,255.0,255.0
503,25.150000000000002,-13.397977583123254,1.3607663243171697,-18.91170545696004,0.008858814623502794,-0.14074391243404175,-1.116243835270621,-0.000768056095007498,0.001753411333877688,0.006029984476763413,0,70,255.0,255.0,255.0
504,25.200000000000003,-13.397536159719525,1.3537312329433302,-18.967510149922386,0.008786976379090771,-0.14066149284560966,-1.115944656811408,-0.002105473681473356,0.0015433722034049126,0.005937153891756703,0,70,255.0,255.0,255.0
505,25.25,-13.3971,1.3467,-19.0233,0.008648267255355467,-0.14058957521370122,-1.115650119881445,-0.003442891267939119,0.0013333330729328186,0.005844323306758881,0,70,255.0,255.0,255.0
506,25.3,-13.396671526063011,1.339672233722815,-19.079074161431006,0.00849797399033515,-0.1405201595305044,-1.1152955541799354,-0.002568839332873528,0.0014432942549407206,0.00833830475362344,0,70,255.0,255.0,255.0
507,25.35,-13.396249474224355,1.3326480756812678,-19.13482747710012,0.00839138332206811,-0.14044524578820713,-1.1148162894060827,-0.001694787397807937,0.0015532554369486226,0.010832286200488,0,70,255.0,255.0,255.0
508,25.400000000000002,-13.395831659354192,1.3256278007783124,-19.190553712053738,0.008328495250554353,-0.14036483398680952,-1.1142123255598866,-0.0008207354627423461,0.0016632166189565248,0.01332626764735256,0,70,255.0,255.0,255.0
509,25.450000000000003,-13.395415896322685,1.3186116839169049,-19.24624663133824,0.008309309775793874,-0.1402789241263115,-1.1134836626413476,5.331647232324462e-05,0.0017731778009644269,0.015820249094217118,0,70,255.0,255.0,255.0
510,25.5,-13.395,1.3116,-19.3019,0.008333826897786676,-0.1401875162067131,-1.112630300650465,0.0009273684073887317,0.001883138982971655,0.0183142305410815,0,70,255.0,255.0,255.0
511,25.55,-13.394582248940498,1.3045928823610606,-19.35750954020068,0.00837422556431109,-0.1400991043975036,-1.1117696665034709,0.0006885782535877954,0.001653333385408825,0.01611113533867613,0,70,255.0,255.0,255.0
512,25.6,-13.394162776435364,1.297589898055585,-19.413078802563017,0.008402684723145456,-0.14002218286817222,-1.1110191871165973,0.00044978809978685907,0.0014235277878459952,0.013908040136270765,0,70,255.0,255.0,255.0
513,25.650000000000002,-13.393742179459977,1.2905904725695785,-19.468613294825012,0.008419204374289778,-0.13995675161871898,-1.1103788624898439,0.00021099794598592272,0.0011937221902831655,0.011704944933865397,0,70,255.0,255.0,255.0
514,25.700000000000003,-13.393321054989729,1.2835940313890484,-19.524118524724674,0.00842378451774405,-0.1399028106491439,-1.1098486926232107,-2.7792207815013578e-05,0.0009639165927203355,0.00950184973146003,0,70,255.0,255.0,255.0
515,25.75,-13.3929,1.2766,-19.5796,0.008416425153508275,-0.13986035995944696,-1.1094286775166982,-0.00026658236161593296,0.0007341109951570779,0.007298754529053042,0,70,255.0,255.0,255.0
516,25.8,-13.392479478174993,1.2696082368329416,-19.635061277766276,0.00840512375243008,-0.1398034228794828,-1.109001779806178,-0.00018547368151185126,0.0015433722034095547,0.009777153891752767,0,70,255.0,255.0,255.0
517,25.85,-13.392059420034188,1.2626203320963916,-19.690498112647816,0.00839787778535709,-0.139706022739106,-1.108450962127523,-0.00010436500140776953,0.0023526334116620315,0.012255553254452493,0,70,255.0,255.0,255.0
518,25.900000000000002,-13.391639622805892,1.255638308943371,-19.745904308646224,0.008394687252289304,-0.13956815953831658,-1.1077762244807328,-2.3256321303687794e-05,0.0031618946199145083,0.01473395261715222,0,70,255.0,255.0,255.0
519,25.950000000000003,-13.391219883718394,1.2486641905269,-19.801273669763088,0.008395552153226722,-0.13938983327711454,-1.1069775668658077,5.785235880039391e-05,0.003971155828166985,0.017212351979851943,0,70,255.0,255.0,255.0
520,26.0,-13.3908,1.2417,-19.8566,0.008400472488169344,-0.1391710439554999,-1.1060549892827476,0.0001389610389045115,0.004780417036419404,0.019690751342551494,0,70,255.0,255.0,255.0
521,26.05,-13.390379838359529,1.2347469703071723,-19.911878148734235,0.008405279425950889,-0.1389592040845652,-1.1050712142718286,5.331647235729975e-05,0.003693177800968146,0.019660249094208382,0,70,255.0,255.0,255.0
522,26.1,-13.389959543427878,1.227803173558847,-19.967107146845724,0.008405804135405074,-0.1388017261754031,-1.1040889643733267,-3.232809418991201e-05,0.002605938565516888,0.01962974684586527,0,70,255.0,255.0,255.0
523,26.150000000000002,-13.38953932931646,1.2208658916569357,-20.022287070590107,0.008402046616531898,-0.13869861022801352,-1.103108239587242,-0.00011797266073712375,0.0015186993300656294,0.01959924459752216,0,70,255.0,255.0,255.0
524,26.200000000000003,-13.389119410136697,1.2139324065033494,-20.07741799622299,0.008394006869331361,-0.1386498562423965,-1.1021290399135746,-0.00020361722728433552,0.0004314600946143717,0.019568742349179047,0,70,255.0,255.0,255.0
525,26.25,-13.3887,1.207,-20.1325,0.008381684893803466,-0.13865546421855207,-1.1011513653523242,-0.0002892617938315134,-0.0006557791408368097,0.019538240100835935,0,70,255.0,255.0,255.0
526,26.3,-13.388281168386891,1.2000670819383688,-20.187533327296812,0.008373758543763155,-0.1386477607822551,-1.1001853631065157,-2.77922077808875e-05,0.0009639165927159308,0.019101849731504212,0,70,255.0,255.0,255.0
527,26.35,-13.387862406254301,1.193136573668219,-20.242518899969294,0.008378905673025377,-0.1385590725592805,-1.0992411803791737,0.0002336773782697384,0.0025836123262686713,0.018665459362172485,0,70,255.0,255.0,255.0
528,26.400000000000002,-13.387443059928266,1.186212524428885,-20.297457808993375,0.00839712628159013,-0.13838939954962823,-1.0983188171702984,0.0004951469643203644,0.004203308059821411,0.018229068992840762,0,70,255.0,255.0,255.0
529,26.450000000000003,-13.38702247573482,1.1792989834597005,-20.352351145344965,0.008428420369457413,-0.13813874175329832,-1.0974182734798896,0.0007566165503709902,0.005823003793374152,0.017792678623509035,0,70,255.0,255.0,255.0
530,26.5,-13.3866,1.1724,-20.4072,0.008472787936627228,-0.13780709917029085,-1.0965395493079473,0.0010180861364216115,0.007442699526926111,0.01735628825417912,0,70,255.0,255.0,255.0
531,26.55,-13.386175488092904,1.165518301939353,-20.462004542078528,0.008499686399006926,-0.13747375278641363,-1.0956273333020983,5.7852358766286266e-05,0.005891155828162309,0.019132351979778785,0,70,255.0,255.0,255.0
532,26.6,-13.385750831554915,1.158651331768276,-20.516761253277103,0.008478573172503858,-0.1372179835874746,-1.0946263141099692,-0.000902381418889039,0.004339612129398507,0.020908415705378453,0,70,255.0,255.0,255.0
533,26.650000000000002,-13.38532843097047,1.1517952106275229,-20.571465693436423,0.00840944825711802,-0.13703979157347376,-1.0935364917315604,-0.0018626151965443643,0.0027880684306347053,0.02268447943097812,0,70,255.0,255.0,255.0
534,26.700000000000003,-13.384910686924014,1.1449460596578465,-20.626113422397157,0.008292311652849417,-0.13693917674441114,-1.0923578661668716,-0.0028228489741996894,0.0012365247318709034,0.024460543156577787,0,70,255.0,255.0,255.0
535,26.75,-13.3845,1.1381,-20.6807,0.008127163359698061,-0.13691613910028666,-1.0910904374159027,-0.0037830827518549465,-0.00031501896689256625,0.026236606882177327,0,70,255.0,255.0,255.0
536,26.8,-13.384097679241487,1.1312541103042193,-20.73522210438908,0.007979495860218837,-0.1369132280720934,-1.0898013036851175,-0.0021236172273139302,0.0004314600946230591,0.025328742349233466,0,70,255.0,255.0,255.0
537,26.85,-13.38370066752604,1.1244092992586747,-20.789680886922294,0.007914801636966664,-0.13687299309082437,-1.0885575631809794,-0.00046415170277291353,0.0011779391561386845,0.024420877816289606,0,70,255.0,255.0,255.0
538,26.900000000000002,-13.383304816189852,1.117567433061021,-20.844078617260962,0.007933080689941545,-0.13679543415647952,-1.0873592159034886,0.0011953138217681031,0.0019244182176543097,0.023513013283345745,0,70,255.0,255.0,255.0
539,26.950000000000003,-13.38290597656911,1.1107303779089115,-20.898417565066417,0.008034333019143476,-0.13668055126905893,-1.086206261852645,0.0028547793463091194,0.002670897279169935,0.022605148750401885,0,70,255.0,255.0,255.0
540,27.0,-13.3825,1.1039,-20.9527,0.008218558624572445,-0.13652834442856251,-1.0850987010284485,0.00451424487084999,0.0034173763406852853,0.021697284217459867,0,70,255.0,255.0,255.0
541,27.05,-13.382084194941148,1.0970780568437697,-21.00692704036515,0.008398330160103712,-0.13634533492521103,-1.083967451957423,0.0026766165504005833,0.003903003793373612,0.023552678623567427,0,70,255.0,255.0,255.0
542,27.1,-13.381661698340924,1.0902658711970228,-21.06109519903374,0.008486220279612506,-0.13613804404922517,-1.0827434331660917,0.0008389882299511767,0.004388631246061939,0.02540807302967499,0,70,255.0,255.0,255.0
543,27.150000000000002,-13.381237104270124,1.0834646571283908,-21.115199837519754,0.008482228983098831,-0.13590647180060483,-1.0814266446544551,-0.0009986400904982299,0.004874258698750265,0.027263467435782552,0,70,255.0,255.0,255.0
544,27.200000000000003,-13.380815006799546,1.0766756287065058,-21.16923631733718,0.008386356270562683,-0.13565061817935012,-1.0800170864225134,-0.0028362684109476365,0.005359886151438592,0.029118861841890116,0,70,255.0,255.0,255.0
545,27.25,-13.3804,1.0699,-21.2232,0.00819860214200408,-0.13537048318546102,-1.0785147584702663,-0.004673896731396912,0.005845513604127106,0.030974256248001097,0,70,255.0,255.0,255.0
546,27.3,-13.379995140993914,1.063138462320702,-21.277087334150323,0.008011183499365016,-0.13509743222706128,-1.0769848884851556,-0.0028228489741654967,0.00507652473186252,0.030220543156428893,0,70,255.0,255.0,255.0
547,27.35,-13.379597339110266,1.0563896159532338,-21.33089911694276,0.007916317244587526,-0.13486283071227476,-1.0754927041546234,-0.0009718012169340818,0.004307535859597933,0.029466830064856685,0,70,255.0,255.0,255.0
548,27.400000000000002,-13.379201966729658,1.0496515384254141,-21.384637232660033,0.007914003377671607,-0.13466667864110146,-1.07403820547867,0.0008792465402973331,0.003538546987333347,0.02871311697328448,0,70,255.0,255.0,255.0
549,27.450000000000003,-13.378804396232702,1.042922307265063,-21.438303565584867,0.008004241898617261,-0.13450897601354142,-1.072621392457295,0.0027302942975287485,0.0027695581150687606,0.027959403881712277,0,70,255.0,255.0,255.0
550,27.5,-13.3784,1.0362,-21.4919,0.00818703280742447,-0.1343897228295946,-1.0712422650904987,0.0045813420547599765,0.002000569242804673,0.027205690790140125,0,70,255.0,255.0,255.0
551,27.55,-13.377985641083189,1.0294832938734222,-21.545427623033554,0.00837293584244949,-0.13427293616654512,-1.0698529941019836,0.002854779346240755,0.002670897279174343,0.028365148750455677,0,70,255.0,255.0,255.0
552,27.6,-13.37756414521801,1.022773264990042,-21.598884333195233,0.00847251074204855,-0.13412263310167719,-1.0684057502154531,0.0011282166377215332,0.0033412253155440134,0.02952460671077123,0,70,255.0,255.0,255.0
553,27.650000000000002,-13.37713982881124,1.0160715891699514,-21.652267231840135,0.008485757506221646,-0.13393881363499072,-1.0669005334309065,-0.0005983460707976885,0.004011553351913683,0.03068406467108678,0,70,255.0,255.0,255.0
554,27.700000000000003,-13.376717008269646,1.00937994223324,-21.70557342032336,0.00841267613496878,-0.13372147776648577,-1.0653373437483442,-0.00232490877931691,0.004681881388283354,0.03184352263140233,0,70,255.0,255.0,255.0
555,27.75,-13.3763,1.0027,-21.7588,0.008253266628289964,-0.1334706254961624,-1.0637161811677665,-0.004051471487836078,0.005352209424653864,0.0330029805917178,0,70,255.0,255.0,255.0
556,27.8,-13.375891894673332,0.9960331621856087,-21.81194457371546,0.008081073130821225,-0.13320282310676,-1.0620671351069246,-0.0028362684109134164,0.005359886151443049,0.032958861841950696,0,70,255.0,255.0,255.0
557,27.85,-13.375490880017688,0.989379724086596,-21.865006750276322,0.007969639787198618,-0.1329346368810181,-1.0604202949835713,-0.0016210653339907553,0.005367562878232235,0.03291474309218358,0,70,255.0,255.0,255.0
558,27.900000000000002,-13.37509391802538,0.982739704894779,-21.917986639979446,0.007918966597422146,-0.13266606681893675,-1.0587756607977064,-0.00040586225706809413,0.0053752396050214205,0.03287062434241648,0,70,255.0,255.0,255.0
559,27.950000000000003,-13.374697970688715,0.9761131238019745,-21.970884353121715,0.007929053561491808,-0.13239711292051592,-1.0571332325493294,0.0008093408198545675,0.005382916331810606,0.032826505592649366,0,70,255.0,255.0,255.0
560,28.0,-13.3743,0.9695,-22.0237,0.007999900679407595,-0.13212777518575566,-1.0554930102384412,0.0020245438967771007,0.005390593058600457,0.03278238684288404,0,70,255.0,255.0,255.0
