idx,t,px,py,pz,vx,vy,vz,ax,ay,az,yaw,mode,ledr,ledg,ledb
0,0.0,7.5,-3.0,0.0,-2.597093338608656e-19,2.6939799386325896e-19,0.019030436778708193,3.1165120063303875e-18,-3.2327759263591077e-18,-0.5155652413444983,0,70,255.0,255.0,255.0
1,0.05,7.5,-3.0,0.00030909572403349495,-1.1946629357599817e-19,1.2392307717709912e-19,-0.006625999081794231,2.49320960506431e-18,-2.5862207410872862e-18,-0.5106921930755987,0,70,255.0,255.0,255.0
2,0.1,7.5,-3.0,-0.000658539034622007,-1.0388373354434601e-20,1.0775919754530347e-20,-0.03203878252885167,1.8699072037982324e-18,-1.9396655558154648e-18,-0.505819144806699,0,70,255.0,255.0,255.0
3,0.15000000000000002,7.5,-3.0,-0.002890721655294257,6.752442680382513e-20,-7.004347840444735e-20,-0.05720791356246414,1.2466048025321547e-18,-1.293110370543643e-18,-0.5009460965377992,0,70,255.0,255.0,255.0
4,0.2,7.5,-3.0,-0.006375269517311004,1.1427210689878089e-19,-1.1853511729983393e-19,-0.08213339218263159,6.2330240126607735e-19,-6.465551852718215e-19,-0.49607304826889953,0,70,255.0,255.0,255.0
5,0.25,7.5,-3.0,-0.0111,1.298546669304328e-19,-1.3469899693162948e-19,-0.1068152183893541,0.0,0.0,-0.4912000000000001,0,70,255.0,255.0,255.0
6,0.30000000000000004,7.5,-3.0,-0.017052730482689002,1.1427210689878084e-19,-1.185351172998339e-19,-0.13125339218263163,-6.23302401266078e-19,6.465551852718221e-19,-0.48632695173110047,0,70,255.0,255.0,255.0
7,0.35000000000000003,7.5,-3.0,-0.02422127834470575,6.752442680382501e-20,-7.004347840444727e-20,-0.15544791356246415,-1.2466048025321555e-18,1.2931103705436435e-18,-0.48145390346220085,0,70,255.0,255.0,255.0
8,0.4,7.5,-3.0,-0.032593460965378,-1.0388373354434661e-20,1.0775919754530407e-20,-0.1793987825288517,-1.869907203798233e-18,1.9396655558154648e-18,-0.4765808551933012,0,70,255.0,255.0,255.0
9,0.45,7.5,-3.0,-0.042157095724033505,-1.1946629357599824e-19,1.239230771770992e-19,-0.20310599908179428,-2.49320960506431e-18,2.5862207410872862e-18,-0.47170780692440156,0,70,255.0,255.0,255.0
10,0.5,7.5,-3.0,-0.0529,-2.597093338608656e-19,2.6939799386325896e-19,-0.22656956322129185,-3.116512006330387e-18,3.232775926359108e-18,-0.4668347586555024,0,70,255.0,255.0,255.0
11,0.55,7.5,-3.0,-0.06480937379327753,-3.376221340191253e-19,3.5021739202223664e-19,-0.24975243218767942,2.6963019221421302e-33,-3.0814879110195774e-33,-0.4604799999999999,0,70,255.0,255.0,255.0
12,0.6000000000000001,7.5,-3.0,-0.07786994758655505,-2.5970933386086537e-19,2.693979938632586e-19,-0.2726175632212919,3.1165120063303925e-18,-3.2327759263591142e-18,-0.45412524134449744,0,70,255.0,255.0,255.0
13,0.65,7.5,-3.0,-0.09206583448319379,-2.5970933386086556e-20,2.6939799386325717e-20,-0.2951649563221292,6.233024012660775e-18,-6.465551852718217e-18,-0.44777048268899494,0,70,255.0,255.0,255.0
14,0.7000000000000001,7.5,-3.0,-0.10738114758655504,3.6359306740521237e-19,-3.771571914085635e-19,-0.3173946114901913,9.349536018991164e-18,-9.698327779077328e-18,-0.44141572403349244,0,70,255.0,255.0,255.0
15,0.75,7.5,-3.0,-0.1238,9.089826685130296e-19,-9.428929785214064e-19,-0.3393065287254784,1.246604802532155e-17,-1.2931103705436432e-17,-0.43506096537799177,0,70,255.0,255.0,255.0
16,0.8,7.5,-3.0,-0.14130657434420096,1.2362164291777204e-18,-1.2823344507891128e-18,-0.36090487906665075,6.233024012660673e-19,-6.465551852718118e-19,-0.42887304826890027,0,70,255.0,255.0,255.0
17,0.8500000000000001,7.5,-3.0,-0.1598853313090742,9.713129086396366e-19,-1.0075484970485875e-18,-0.38219383355236847,-1.1219443222789415e-17,1.1637993334892809e-17,-0.42268513115980877,0,70,255.0,255.0,255.0
18,0.9,7.5,-3.0,-0.1795208011018469,1.142721068987805e-19,-1.1853511729983373e-19,-0.40317339218263154,-2.3062188846844872e-17,2.39225418550574e-17,-0.41649721405071727,0,70,255.0,255.0,255.0
19,0.9500000000000001,7.5,-3.0,-0.20019751392974644,-1.3349059760448518e-18,1.3847056884571543e-18,-0.4238435549574402,-3.4904934470900356e-17,3.6207090375222023e-17,-0.41030929694162577,0,70,255.0,255.0,255.0
20,1.0,7.5,-3.0,-0.2219,-3.376221340191253e-18,3.5021739202223666e-18,-0.4442043218767942,-4.674768009495581e-17,4.8491638895386603e-17,-0.4041213798325365,0,70,255.0,255.0,255.0
21,1.05,7.5,-3.0,-0.24461232882991865,-4.6072435826917566e-18,4.779120411134214e-18,-0.4642280515457177,-2.4932096050642693e-18,2.586220741087235e-18,-0.3968278069244028,0,70,255.0,255.0,255.0
22,1.1,7.5,-3.0,-0.26831672717714833,-3.625542300697679e-18,3.76079599433109e-18,-0.4838871025692345,4.176126088482727e-17,-4.3319197413212133e-17,-0.38953423401626913,0,70,255.0,255.0,255.0
23,1.1500000000000001,7.5,-3.0,-0.29299496110941875,-4.3111749420902514e-19,4.472006698129956e-19,-0.5031814749473447,8.601573137471882e-17,-8.92246155675115e-17,-0.3822406611081354,0,70,255.0,255.0,255.0
24,1.2000000000000002,7.5,-3.0,-0.3186287966944594,4.9760308367742084e-18,-5.161665562420064e-18,-0.5221111686800481,1.3027020186461036e-16,-1.3513003372181088e-16,-0.3749470882000017,0,70,255.0,255.0,255.0
25,1.25,7.5,-3.0,-0.3452,1.2595902692251982e-17,-1.306580270236806e-17,-0.5406761837673448,1.7452467235450173e-16,-1.8103545187611004e-16,-0.3676535152918703,0,70,255.0,255.0,255.0
26,1.3,7.5,-3.0,-0.3726913103361245,1.7192757901589302e-17,-1.7834147193747745e-17,-0.5589349147504789,9.349536018991036e-18,-9.698327779077167e-18,-0.36269572403349243,0,70,255.0,255.0,255.0
27,1.35,7.5,-3.0,-0.4010893599823326,1.3530856294151085e-17,-1.4035635480275778e-17,-0.5769457561706941,-1.5582560031651965e-16,1.616387963179557e-16,-0.35773793277511456,0,70,255.0,255.0,255.0
28,1.4000000000000001,7.5,-3.0,-0.4303817544604786,1.6101978699373243e-18,-1.6702675619521612e-18,-0.5947087080279904,-3.2100073665203034e-16,3.3297592041498855e-16,-0.3527801415167367,0,70,255.0,255.0,255.0
29,1.4500000000000002,7.5,-3.0,-0.4605560992924164,-1.8569217371051975e-17,1.9261956561223108e-17,-0.6122237703223679,-4.86175872987541e-16,5.043130445120214e-16,-0.34782235025835884,0,70,255.0,255.0,255.0
30,1.5,7.5,-3.0,-0.4916,-4.7007389428816677e-17,4.8761036889249873e-17,-0.6294909430538262,-6.513510093230509e-16,6.756501686090534e-16,-0.3428645589999828,0,70,255.0,255.0,255.0
31,1.55,7.5,-3.0,-0.5235000298255836,-6.416378802366545e-17,6.655746836385677e-17,-0.6464482894523664,-3.4904934470899685e-17,3.6207090375221376e-17,-0.33542929694162743,0,70,255.0,255.0,255.0
32,1.6,7.5,-3.0,-0.5562386328935215,-5.049788287590665e-17,5.238174592677203e-17,-0.6630338727479891,5.815411403812515e-16,-6.032359878586107e-16,-0.32799403488327206,0,70,255.0,255.0,255.0
33,1.6500000000000001,7.5,-3.0,-0.5897972210486673,-6.009673985540241e-18,6.2338695779956274e-18,-0.6792476929406938,1.1979872152334027e-15,-1.2426790660924427e-15,-0.3205587728249167,0,70,255.0,255.0,255.0
34,1.7000000000000002,7.5,-3.0,-0.6241572061358756,6.93008386474337e-17,-7.188616068247236e-17,-0.6950897500304807,1.814433290085554e-15,-1.882122144326275e-15,-0.3131235107665613,0,70,255.0,255.0,255.0
35,1.75,7.5,-3.0,-0.6593,1.7543365502301473e-16,-1.8197834485463143e-16,-0.7105600440173497,2.430879364937702e-15,-2.5215652225601035e-15,-0.3056882487082069,0,70,255.0,255.0,255.0
36,1.8,7.5,-3.0,-0.695207770361541,2.394623941930725e-16,-2.483957262616793e-16,-0.725703927440055,1.3027020186460805e-16,-1.3513003372180856e-16,-0.30006708820000316,0,70,255.0,255.0,255.0
37,1.85,7.5,-3.0,-0.731865708443582,1.884606752094755e-16,-1.9549134822681231e-16,-0.7405667528373501,-2.170338961208486e-15,2.2513051551164863e-15,-0.29444592769179945,0,70,255.0,255.0,255.0
38,1.9000000000000001,7.5,-3.0,-0.7692597613448526,2.2428498072223752e-17,-2.3265210750030367e-17,-0.755148520209235,-4.4709481242815806e-15,4.637740343954782e-15,-0.28882476718359573,0,70,255.0,255.0,255.0
39,1.9500000000000002,7.5,-3.0,-0.8073758761640821,-2.58634137218683e-16,2.6828268616866618e-16,-0.7694492295557097,-6.771557287354674e-15,7.024175532793076e-15,-0.283203606675392,0,70,255.0,255.0,255.0
40,2.0,7.5,-3.0,-0.8462,-6.547272306632422e-16,6.791523425292758e-16,-0.7834688808767741,-9.072166450427757e-15,9.410610721631363e-15,-0.2775824461671883,0,70,255.0,255.0,255.0
41,2.0500000000000003,7.5,-3.0,-0.8857176887282525,-8.936857887486247e-16,9.270254366828604e-16,-0.7971840007874129,-4.861758729874954e-16,5.043130445119727e-16,-0.27102235025836036,0,70,255.0,255.0,255.0
42,2.1,7.5,-3.0,-0.9259129333321506,-7.033448179619954e-16,7.29583646980477e-16,-0.8105711159026102,8.09981470445269e-15,-8.401984632607338e-15,-0.2644622543495325,0,70,255.0,255.0,255.0
43,2.15,7.5,-3.0,-0.9667693335719225,-8.370431830335837e-17,8.682697342212991e-17,-0.8236302262223661,1.668580528189288e-14,-1.7308282309726646e-14,-0.25790215844070463,0,70,255.0,255.0,255.0
44,2.2,7.5,-3.0000000000000004,-1.0082704892077967,9.652357102272975e-16,-1.0012445839921935e-15,-0.8363613317466806,2.527179585933314e-14,-2.621457998684604e-14,-0.25134206253187674,0,70,255.0,255.0,255.0
45,2.25,7.5,-3.0,-1.0504,2.4434752676299543e-15,-2.534631025262472e-15,-0.8487644324755537,3.3857786436773327e-14,-3.512087766396535e-14,-0.2447819666230533,0,70,255.0,255.0,255.0
46,2.3000000000000003,7.5,-3.0,-1.0931414747254498,3.3352807608014266e-15,-3.459706020469763e-15,-0.8608400694102942,1.814433290085376e-15,-1.882122144326101e-15,-0.23824351076656425,0,70,255.0,255.0,255.0
47,2.35,7.5,-3.0000000000000004,-1.1364785582278158,2.6249185966385066e-15,-2.722843239695097e-15,-0.8725887835522101,-3.0228919856602284e-14,3.1356633375312855e-14,-0.23170505491007523,0,70,255.0,255.0,255.0
48,2.4000000000000004,7.5,-3.0000000000000004,-1.1803949043674573,3.1238877514117983e-16,-3.240426829384595e-16,-0.8840105749013017,-6.227227300329023e-14,6.45953888949521e-14,-0.22516659905358619,0,70,255.0,255.0,255.0
49,2.45,7.500000000000001,-3.0000000000000004,-1.224874167004732,-3.602308703690507e-15,3.736695649800103e-15,-0.8951054434575687,-9.43156261499779e-14,9.783414441459106e-14,-0.21862814319709717,0,70,255.0,255.0,255.0
50,2.5,7.5,-3.0,-1.2699,-9.119173839856574e-15,9.459371758520612e-15,-0.9058733892210113,-1.2635897929666559e-13,1.3107289993423003e-13,-0.21208968734060996,0,70,255.0,255.0,255.0
51,2.5500000000000003,7.499999999999999,-2.9999999999999996,-1.3154564123699495,-1.2447437254457082e-14,1.2911798645196192e-14,-0.9163357215714113,-6.771557287354029e-15,7.0241755327924056e-15,-0.20640360667538749,0,70,255.0,255.0,255.0
52,2.6,7.499999999999998,-2.999999999999999,-1.3615288337565867,-9.796329568592033e-15,1.0161789311799912e-14,-0.9265137498885501,1.1281586472195647e-13,-1.170245488686441e-13,-0.20071752601016504,0,70,255.0,255.0,255.0
53,2.6500000000000004,7.499999999999998,-2.9999999999999987,-1.4081030489582502,-1.165850782261376e-15,1.2093437583317171e-15,-0.9364074741724279,2.32403286731268e-13,-2.4107327327008173e-13,-0.19503144534494257,0,70,255.0,255.0,255.0
54,2.7,7.499999999999999,-2.9999999999999987,-1.4551648427732755,1.3443999104534739e-14,-1.394553801520823e-14,-0.9460168944230444,3.519907087405785e-13,-3.6512199767151824e-13,-0.18934536467972013,0,70,255.0,255.0,255.0
55,2.75,7.5,-3.0,-1.5027,3.4033220091796344e-14,-3.530285600881998e-14,-0.9553420106403998,4.71578130749889e-13,-4.891707220729548e-13,-0.1836592840144995,0,70,255.0,255.0,255.0
56,2.8000000000000003,7.500000000000003,-3.000000000000002,-1.5506936757947538,4.6454468257026904e-14,-4.818748856031501e-14,-0.9643450443040594,2.5271795859330734e-14,-2.6214579986843572e-14,-0.17646206253188015,0,70,255.0,255.0,255.0
57,2.85,7.500000000000004,-3.000000000000005,-1.5991285067458372,3.6560399677729616e-14,-3.7924314007504545e-14,-0.9729882168935879,-4.2103453903122357e-13,4.367415620992636e-13,-0.16926484104926087,0,70,255.0,255.0,255.0
58,2.9000000000000004,7.500000000000005,-3.0000000000000053,-1.647986499799544,4.351014353904316e-15,-4.51333235038839e-15,-0.9812715284089855,-8.673408739217817e-13,8.996977041853747e-13,-0.16206761956664154,0,70,255.0,255.0,255.0
59,2.95,7.500000000000005,-3.0000000000000044,-1.697249661902167,-5.017368771444843e-14,5.204545641103283e-14,-0.989194978850252,-1.3136472088123361e-12,1.362653846271482e-12,-0.15487039808402228,0,70,255.0,255.0,255.0
60,3.0,7.5,-3.0,-1.7469,-1.270137065273288e-13,1.317520522767593e-13,-0.9967585682173876,-1.75995354370289e-12,1.8256099883575887e-12,-0.14767317660140122,0,70,255.0,255.0,255.0
61,3.0500000000000003,7.499999999999993,-2.999999999999992,-1.796920084451036,-1.7337043577365053e-13,1.798381555960638e-13,-1.0039961012123504,-9.431562614996891e-14,9.783414441458183e-14,-0.14182814319710102,0,70,255.0,255.0,255.0
62,3.1,7.499999999999984,-2.999999999999983,-1.8472947392600647,-1.3644526914232646e-13,1.4153546671821826e-13,-1.0109413825370979,1.5713222914029373e-12,-1.6299416995284097e-12,-0.13598310979280084,0,70,255.0,255.0,255.0
63,3.1500000000000004,7.4999999999999805,-2.999999999999979,-1.8980093518435757,-1.623820663335587e-14,1.68439856432219e-14,-1.0175944121916303,3.2369602089558583e-12,-3.3577175434714166e-12,-0.13013807638850064,0,70,255.0,255.0,255.0
64,3.2,7.499999999999983,-2.9999999999999836,-1.9490493096180577,1.8725075175325895e-13,-1.942362876289229e-13,-1.0239551901759478,4.902598126508765e-12,-5.085493387414408e-12,-0.12429304298420048,0,70,255.0,255.0,255.0
65,3.25,7.5,-3.0,-2.0004,4.740216060175189e-13,-4.917053530982172e-13,-1.03002371649005,6.568236044061672e-12,-6.8132692313574e-12,-0.11844800957989499,0,70,255.0,255.0,255.0
66,3.3000000000000003,7.500000000000029,-3.00000000000003,-2.0520467864011027,6.470272748375752e-13,-6.711651338239402e-13,-1.0357985508465404,3.519907087405449e-13,-3.6512199767148285e-13,-0.1125453646797158,0,70,255.0,255.0,255.0
67,3.35,7.5000000000000595,-3.000000000000062,-2.1039749362139037,5.092206768915762e-13,-5.282175528653684e-13,-1.0412782529580216,-5.864254626580527e-12,6.0830252360143774e-12,-0.10664271977953667,0,70,255.0,255.0,255.0
68,3.4000000000000004,7.500000000000075,-3.000000000000078,-2.1561696928261544,6.060181217951941e-14,-6.286261022249903e-14,-1.046462822824494,-1.2080499961901654e-11,1.2531172469700293e-11,-0.10074007487935749,0,70,255.0,255.0,255.0
69,3.45,7.50000000000006,-3.0000000000000626,-2.2086162996256036,-6.988293192985875e-13,7.248996941046588e-13,-1.0513522604459575,-1.8296745297222727e-11,1.8979319703386154e-11,-0.09483742997917835,0,70,255.0,255.0,255.0
70,3.5,7.5,-3.0,-2.2613,-1.7690727175427467e-12,1.8350693601161093e-12,-1.0559465658224119,-2.45129906325438e-11,2.5427466937072016e-11,-0.08893478507900276,0,70,255.0,255.0,255.0
71,3.5500000000000003,7.499999999999891,-2.9999999999998863,-2.314205569944555,-2.4147386635766506e-12,2.5048223796996973e-12,-1.0602176954014877,-1.3136472088122121e-12,1.3626538462713552e-12,-0.08191039808402355,0,70,255.0,255.0,255.0
72,3.6,7.499999999999778,-2.99999999999977,-2.3673159158843196,-1.900437438423978e-12,1.9713347447432557e-12,-1.0641376056308143,2.188569621491917e-11,-2.2702159244529093e-11,-0.07488601108904439,0,70,255.0,255.0,255.0
73,3.6500000000000004,7.49999999999972,-2.9999999999997096,-2.420613476851807,-2.2616904208472153e-13,2.3460645524677463e-13,-1.067706296510392,4.508503963865076e-11,-4.676697233532976e-11,-0.06786162409406517,0,70,255.0,255.0,255.0
74,3.7,7.499999999999775,-2.9999999999997664,-2.4740806918795295,2.6080665254410915e-12,-2.7053624887897134e-12,-1.0709237680402206,6.828438306238214e-11,-7.08317854261302e-11,-0.06083723709908601,0,70,255.0,255.0,255.0
75,3.75,7.5,-3.0,-2.5277,6.602269264153468e-12,-6.848572087366221e-12,-1.0737900202203008,9.148372648611349e-11,-9.489659851693066e-11,-0.05381285010411574,0,70,255.0,255.0,255.0
76,3.8000000000000003,7.500000000000409,-3.0000000000004237,-2.5814541338206785,9.011927379469024e-12,-9.348124384974849e-12,-1.0763226675475088,4.902598126508296e-12,-5.085493387413925e-12,-0.04749304298420324,0,70,255.0,255.0,255.0
77,3.85,7.500000000000829,-3.0000000000008598,-2.6353270002488176,7.092529076804335e-12,-7.357121426107655e-12,-1.0785393245187211,-8.167853023309615e-11,8.4725611742102e-11,-0.041173235864290794,0,70,255.0,255.0,255.0
78,3.9000000000000004,7.500000000001045,-3.0000000000010845,-2.689302799766618,8.440743561593663e-13,-8.755632107646011e-13,-1.0804399911339377,-1.6825965859270132e-10,1.745367168716187e-10,-0.03485342874437829,0,70,255.0,255.0,255.0
79,3.95,7.500000000000841,-3.0000000000008726,-2.743365732856278,-9.733436782465776e-12,1.0096550261054196e-11,-1.082024667393159,-2.548407869523058e-10,2.6434782200113465e-10,-0.028533621624465842,0,70,255.0,255.0,255.0
80,4.0,7.5,-3.0,-2.7975,-2.4640004339071124e-11,2.5559218989348772e-11,-1.0832933532963844,-3.4142191531191026e-10,3.5415892713065054e-10,-0.022213814504553397,0,70,255.0,255.0,255.0
81,4.05,7.499999999998476,-2.9999999999984186,-2.8516898947727305,-3.363297085429945e-11,3.4887675160199685e-11,-1.0842516344084778,-1.8296745297223836e-11,1.8979319703387292e-11,-0.01611742997918244,0,70,255.0,255.0,255.0
82,4.1000000000000005,7.4999999999969065,-2.999999999996791,-2.9059200831204106,-2.6469678868793234e-11,2.7457150959687222e-11,-1.0849050962943025,3.048284247174683e-10,-3.1620028772388185e-10,-0.010021045453811375,0,70,255.0,255.0,255.0
83,4.15,7.499999999996098,-2.9999999999959526,-2.9601753240817237,-3.150128382552751e-12,3.2676463878116266e-12,-1.085253738953859,6.279535947321548e-10,-6.513798951511451e-10,-0.003924660928440418,0,70,255.0,255.0,255.0
84,4.2,7.499999999996861,-2.999999999996743,-3.0144403766953585,3.6325680604422004e-11,-3.768083855542707e-11,-1.0852975623871468,9.510787647468411e-10,-9.865595025784084e-10,0.00217172359693054,0,70,255.0,255.0,255.0
85,4.25,7.5,-3.0,-3.0687,9.195774809213103e-11,-9.538830387002887e-11,-1.085036566594166,1.2742039347615274e-09,-1.321739110005672e-09,0.008268108122301498,0,70,255.0,255.0,255.0
86,4.3,7.500000000005688,-3.0000000000059,-3.1229390870883975,1.2551995603772874e-10,-1.3020257625582392e-10,-1.0844787948185852,6.828438306238617e-11,-7.083178542613475e-11,0.014042762900922393,0,70,255.0,255.0,255.0
87,4.3500000000000005,7.500000000011547,-3.000000000011978,-3.1771430672695438,9.878618639836864e-11,-1.0247148241264127e-10,-1.0836322903040736,-1.1376351686367762e-09,1.1800755391534248e-09,0.019817417679543387,0,70,255.0,255.0,255.0
88,4.4,7.500000000014562,-3.000000000015105,-3.23129750390649,1.1756439174051609e-11,-1.2195022340481915e-11,-1.082497053050631,-2.3435547203359174e-09,2.430982863732962e-09,0.02559207245816428,0,70,255.0,255.0,255.0
89,4.45,7.500000000011718,-3.000000000012155,-3.2853879603622906,-1.3556928563522229e-10,1.4062680396065407e-10,-1.0810730830582573,-3.549474272035059e-09,3.6818901883124992e-09,0.03136672723678517,0,70,255.0,255.0,255.0
90,4.5,7.5,-3.0,-3.3394,-3.43190988029453e-10,3.559939964907667e-10,-1.0793603803269527,-4.7553938237342e-09,4.932797512892037e-09,0.03714138201540074,0,70,255.0,255.0,255.0
91,4.55,7.499999999978771,-2.9999999999779794,-3.393318556873678,-4.684468532966156e-10,4.85922629863096e-10,-1.0773211863171794,-2.548407869523212e-10,2.6434782200115135e-10,0.04442637837553354,0,70,255.0,255.0,255.0
92,4.6000000000000005,7.4999999999569065,-2.999999999955298,-3.4471260478014183,-3.6867506672468135e-10,3.8242877869087794e-10,-1.0749177424893994,4.245712249829637e-09,-4.404101868889817e-09,0.05171137473566646,0,70,255.0,255.0,255.0
93,4.65,7.499999999945654,-2.9999999999436273,-3.500804260292318,-4.38756283136538e-11,4.55124429741162e-11,-1.0721500488436126,8.746265286611514e-09,-9.0725515597807e-09,0.058996371095799256,0,70,255.0,255.0,255.0
94,4.7,7.499999999956269,-2.9999999999546376,-3.554334981855479,5.05951461936467e-10,-5.248263772871889e-10,-1.0690181053798193,1.3246818323393395e-08,-1.3741001250671588e-08,0.06628136745593205,0,70,255.0,255.0,255.0
95,4.75,7.5,-3.0,-3.6077,1.280806204025681e-09,-1.328587682093038e-09,-1.0655219120980193,1.7747371360175273e-08,-1.8409450941562473e-08,0.07356636381607373,0,70,255.0,255.0,255.0
96,4.800000000000001,7.5000000000792255,-3.000000000082182,-3.6608818854168894,1.7482674571487345e-09,-1.8134879431965605e-09,-1.0617084599126945,9.51078764746603e-10,-9.865595025781609e-10,0.07897172359691716,0,70,255.0,255.0,255.0
97,4.8500000000000005,7.5000000001608305,-3.0000000001668297,-3.7138663415247857,1.3759140805003568e-09,-1.4272436323508702e-09,-1.0576247397383276,-1.584521383068177e-08,1.643633193640584e-08,0.0843770833777605,0,70,255.0,255.0,255.0
98,4.9,7.500000000202821,-3.000000000210387,-3.7666398549242377,1.637460740805635e-10,-1.6985474955598274e-10,-1.0532707515749185,-3.264150642611014e-08,3.385922337538984e-08,0.08978244315860384,0,70,255.0,255.0,255.0
99,4.95,7.500000000163207,-3.000000000169296,-3.819188912215793,-1.8882365621106457e-09,1.958678705188102e-09,-1.0486464954224672,-4.943779902153851e-08,5.128211481437384e-08,0.09518780293944717,0,70,255.0,255.0,255.0
100,5.0,7.5,-3.0,-3.8715,-4.7800338280732705e-09,4.958356731881385e-09,-1.0437519712809737,-6.623409161696688e-08,6.870500625335785e-08,0.10059316272029051,0,70,255.0,255.0,255.0
101,5.050000000000001,7.4999999997043245,-2.9999999996932942,-3.9235587014587674,-6.524622975298322e-09,6.7680291429231464e-09,-1.0385329740320466,-3.54947427203416e-09,3.681890188311575e-09,0.1081667272367974,0,70,255.0,255.0,255.0
102,5.1000000000000005,7.499999999399774,-2.9999999993773825,-3.9753469860994417,-5.134981255276745e-09,5.326545750712602e-09,-1.032935298557294,5.913514307289745e-08,-6.134122587673354e-08,0.11574029175330418,0,70,255.0,255.0,255.0
103,5.15,7.499999999243063,-2.999999999214825,-4.026845920010731,-6.111086680085975e-10,6.339065552498127e-10,-1.0269589448567162,1.2181976041782906e-07,-1.2636434194177866e-07,0.12331385626981094,0,70,255.0,255.0,255.0
104,5.2,7.4999999993909015,-2.9999999993681787,-4.078036569281349,7.0469947865061185e-09,-7.309888443465219e-09,-1.0206039129303128,1.8450437776276067e-07,-1.9138745800682382e-07,0.1308874207863177,0,70,255.0,255.0,255.0
105,5.25,7.5,-3.0,-4.1289,1.78393291082674e-08,-1.85048392454325e-08,-1.0138702027780844,2.4718899510769223e-07,-2.5641057407186886e-07,0.13846098530282092,0,70,255.0,255.0,255.0
106,5.300000000000001,7.500000001103477,-3.000000001144643,-4.179418508748046,2.435022444404455e-08,-2.5258628628496017e-08,-1.0068316439591154,1.3246818323390047e-08,-1.3741001250668119e-08,0.14308136745593536,0,70,255.0,255.0,255.0
107,5.3500000000000005,7.50000000224007,-3.0000000023236377,-4.2295793140774505,1.916401094060662e-08,-1.9878939370499533e-08,-0.9995620660324908,-2.20695358460908e-07,2.289285715705284e-07,0.14770174960904972,0,70,255.0,255.0,255.0
108,5.4,7.500000002824926,-3.000000002930312,-4.279370865032834,2.280688597953829e-09,-2.3657714714432647e-09,-0.9920614689982105,-4.5463753524520604e-07,4.715981443917248e-07,0.15232213176216408,0,70,255.0,255.0,255.0
109,5.45,7.500000002273188,-3.000000002357991,-4.328781610658811,-2.629974258391383e-08,2.7280875068672774e-08,-0.9843298528562744,-6.88579712029504e-07,7.142677172129212e-07,0.15694251391527844,0,70,255.0,255.0,255.0
110,5.5,7.5,-3.0,-4.3778,-6.657728260499633e-08,6.90610002498486e-08,-0.9763672176066825,-9.225218888138021e-07,9.569372900341177e-07,0.16156289606839902,0,70,255.0,255.0,255.0
111,5.550000000000001,7.499999995881769,-2.999999995728135,-4.426412863549053,-9.087627480087988e-08,9.426648537106093e-08,-0.9680764501314866,-4.943779902152608e-08,5.128211481436094e-08,0.17006780293943743,0,70,255.0,255.0,255.0
112,5.6000000000000005,7.499999991639942,-2.999999991328064,-4.474600557590756,-7.152106250714976e-08,7.418921173128553e-08,-0.9593604373127387,8.236462907707345e-07,-8.543730604053797e-07,0.17857270981047568,0,70,255.0,255.0,255.0
113,5.65,7.499999989457233,-2.999999989063926,-4.522341819857934,-8.511645723806726e-09,8.829179330523261e-09,-0.950219179150439,1.6967303805629951e-06,-1.7600282356251206e-06,0.18707761668151393,0,70,255.0,255.0,255.0
114,5.7,7.499999991516349,-2.999999991199859,-4.569615388083407,9.815197554914917e-08,-1.0181361183122589e-07,-0.9406526756445874,2.569814470355256e-06,-2.665683410844861e-06,0.1955825235525522,0,70,255.0,255.0,255.0
115,5.75,7.5,-3.0,-4.6164,2.4846980131171794e-07,-2.577391617539619e-07,-0.9306609267951838,3.4428985601475154e-06,-3.571338586064602e-06,0.2040874304235949,0,70,255.0,255.0,255.0
116,5.800000000000001,7.500000015369449,-3.000000015942818,-4.662676437055746,3.3915487475947495e-07,-3.5180731285574766e-07,-0.920366555514936,1.8450437776271398e-07,-1.9138745800677543e-07,0.20768742078630784,0,70,255.0,255.0,255.0
117,5.8500000000000005,7.50000003120016,-3.0000000323641056,-4.708433655559525,2.6692023908799235e-07,-2.7687790755464253e-07,-0.9098921847165529,-3.07388980462203e-06,3.188563670050991e-06,0.21128741114902075,0,70,255.0,255.0,255.0
118,5.9,7.500000039346145,-3.000000040813983,-4.753662655535431,3.17658942972731e-08,-3.295094585064986e-08,-0.899237814400034,-6.332283987006773e-06,6.568514798108758e-06,0.21488740151173363,0,70,255.0,255.0,255.0
119,5.95,7.500000031661419,-3.0000000328425735,-4.798354437007559,-3.663081596126828e-07,3.799735722562309e-07,-0.8884034445653796,-9.590678169391518e-06,9.948465926166523e-06,0.21848739187444652,0,70,255.0,255.0,255.0
120,6.0,7.5,-3.0,-4.8425,-9.273019226418753e-07,9.618956467659991e-07,-0.8773890752125894,-1.2849072351776261e-05,1.3328417054224287e-05,0.22208738223716562,0,70,255.0,255.0,255.0
121,6.050000000000001,7.499999942640436,-2.999999940500592,-4.886087788227967,-1.2657432242370198e-06,1.31296276605193e-06,-0.8660413278087776,-6.885797120293308e-07,7.142677172127414e-07,0.2318225139152957,0,70,255.0,255.0,255.0
122,6.1000000000000005,7.499999883559421,-2.9999998792155145,-4.929096020171147,-9.961598938448198e-07,1.0333224184872848e-06,-0.8542068238210596,1.1471912927717383e-05,-1.189988161979858e-05,0.24155764559342563,0,70,255.0,255.0,255.0
123,6.15,7.49999985315819,-2.999999847680141,-4.971500358000342,-1.185519314652856e-07,1.2297460407207585e-07,-0.8418855632494352,2.36324055674641e-05,-2.4514030956809903e-05,0.2512927772715556,0,70,255.0,255.0,255.0
124,6.2,7.499999881837972,-2.999999877429845,-5.013276463886358,1.3670806629015814e-06,-1.4180806771936967e-06,-0.8290775460939042,3.579289820721081e-05,-3.712818029382123e-05,0.26102790894968547,0,70,255.0,255.0,255.0
125,6.25,7.5,-3.0,-5.0544,3.460737889255783e-06,-3.589843425310034e-06,-0.8157827723544666,4.795339084695752e-05,-4.974232963083256e-05,0.27076304062782164,0,70,255.0,255.0,255.0
126,6.300000000000001,7.500000214068809,-3.000000222054814,-5.094850810032387,4.723818022188604e-06,-4.9000437513519715e-06,-0.8022521332499566,2.569814470354599e-06,-2.665683410844194e-06,0.2704625235525683,0,70,255.0,255.0,255.0
127,6.3500000000000005,7.500000434562155,-3.000000450773837,-5.134625463755893,3.717719336291285e-06,-3.856411766394497e-06,-0.7887365199992097,-4.281376190624751e-05,4.441096280914334e-05,0.27016200647731486,0,70,255.0,255.0,255.0
128,6.4,7.500000548021096,-3.000000568465452,-5.173724712463204,4.424418315638673e-07,-4.589474704376539e-07,-0.7752359326022252,-8.819733828284963e-05,9.148760902913088e-05,0.2698614894020615,0,70,255.0,255.0,255.0
129,6.45,7.500000440986692,-3.000000457438045,-5.21214930744701,-5.102014491993644e-06,5.292349136518559e-06,-0.7617503710590037,-0.00013358091465945173,0.0001385642552491184,0.2695609723268081,0,70,255.0,255.0,255.0
130,6.5,7.5,-3.0,-5.2499,-1.2915649634381256e-05,1.3397478054474137e-05,-0.7482798353695446,-0.00017896449103605382,0.00018564090146910587,0.26926045525155295,0,70,255.0,255.0,255.0
131,6.550000000000001,7.499999201084326,-2.999999171280152,-5.286966571642488,-1.7629528864517396e-05,1.8287212239355952e-05,-0.7341661391913946,-9.590678169389103e-06,9.94846592616399e-06,0.2952873918744395,0,70,255.0,255.0,255.0
132,6.6000000000000005,7.4999983781919575,-2.9999983176891387,-5.323294924805287,-1.3874717451320318e-05,1.4392324647090698e-05,-0.7187510961821005,0.00015978313469727263,-0.00016574396961677474,0.32131432849732555,0,70,255.0,255.0,255.0
133,6.65,7.499997954757425,-2.99999787845805,-5.358819992146845,-1.6512153947901946e-06,1.7128152776785312e-06,-0.7020347063416621,0.00032915694756393437,-0.0003414364051597135,0.3473412651202116,0,70,255.0,255.0,255.0
134,6.7,7.499998354215262,-2.9999982928179745,-5.3934767063256,1.9040977305072997e-05,-1.9751315868880525e-05,-0.6840169696700794,0.0004985307604305961,-0.0005171288407026523,0.37336820174309765,0,70,255.0,255.0,255.0
135,6.75,7.5,-3.0,-5.4272,4.820186064826924e-05,-5.000006879258651e-05,-0.6646978861673526,0.0006679045732972576,-0.0006928212762455908,0.3993951383659846,0,70,255.0,255.0,255.0
136,6.800000000000001,7.500002981593885,-3.0000038928245787,-5.459920503397667,6.579429743588098e-05,-0.0001162488052061745,-0.6438193099844604,3.5792898207201744e-05,-0.001957128180297891,0.4357479089496923,0,70,255.0,255.0,255.0
137,6.8500000000000005,7.500006052670014,-3.0000126784696075,-5.491551637022961,5.1781150468989994e-05,-0.00024571288682237555,-0.6211230952723832,-0.0005963187768828429,-0.0032214350843501683,0.4721006795333994,0,70,255.0,255.0,255.0
138,6.9,7.5000076329492025,-3.0000295177023477,-5.522002518949419,6.1624197475969094e-06,-0.0004383923136411902,-0.5966092420311206,-0.0012284304519728875,-0.004485741988402446,0.5084534501171064,0,70,255.0,255.0,255.0
139,6.95,7.50000614215226,-3.000057571290058,-5.551182267250585,-7.106189472829837e-05,-0.0006942870856626185,-0.5702777502606727,-0.0018605421270629324,-0.005750048892454724,0.5448062207008135,0,70,255.0,255.0,255.0
140,7.0,7.5,-3.0001,-5.579,-0.0001798917929586957,-0.0010133972028866605,-0.5421286199610394,-0.002492653802152977,-0.007014355796507001,0.5811589912845188,0,70,255.0,255.0,255.0
141,7.050000000000001,7.499988072540135,-3.0001588574215354,-5.605393014766845,-0.00029354766087889595,-0.0013292919914179892,-0.5138526208707564,-0.0020535809146549704,-0.005621435744745965,0.5498809723267837,0,70,255.0,255.0,255.0
142,7.1000000000000005,7.499971011127985,-3.0002317684324322,-5.630411327102874,-0.0003852498844241942,-0.0015755407773612611,-0.4871405227283608,-0.0016145080271569715,-0.004228515692984953,0.5186029533690493,0,70,255.0,255.0,255.0
143,7.15,7.499949913445766,-3.0003152507325614,-5.654133132055479,-0.00045499846359459264,-0.0017521435607164826,-0.4619923255338517,-0.0011754351396589728,-0.002835595641223941,0.48732493441131475,0,70,255.0,255.0,255.0
144,7.2,7.499925877175698,-3.000405822021794,-5.6766366246720565,-0.0005027933983900912,-0.001859100341483654,-0.43840802928722944,-0.0007363622521609739,-0.0014426755894629299,0.4560469154535803,0,70,255.0,255.0,255.0
145,7.25,7.4999,-3.0005,-5.698,-0.0005286346888106897,-0.0018964111196627753,-0.4163876339884938,-0.0002972893646629761,-4.975553770190759e-05,0.42476889649584626,0,70,255.0,255.0,255.0
146,7.300000000000001,7.499873528245573,-3.0005950774892813,-5.718293037534953,-0.0005236036539169253,-0.0019105832291226763,-0.3954262065325193,0.0004985307604135534,-0.0005171288406941275,0.41368820174312293,0,70,255.0,255.0,255.0
147,7.3500000000000005,7.499848302818045,-3.000691447800665,-5.737551854565546,-0.00047878161276933485,-0.001948124003732188,-0.3750188138141813,0.0012943508854900685,-0.0009845021436863392,0.40260750699039977,0,70,255.0,255.0,255.0
148,7.4,7.499826313267733,-3.0007902793674073,-5.755804152828665,-0.0003941685653679188,-0.00200903344349131,-0.35516545583347947,0.0020901710105665837,-0.001451875446678551,0.3915268122376766,0,70,255.0,255.0,255.0
149,7.45,7.499809549144946,-3.0008927406227666,-5.773077634061188,-0.00026976451171267725,-0.0020933115484000424,-0.3358661325904138,0.0028859911356430993,-0.0019192487496707627,0.38044611748495344,0,70,255.0,255.0,255.0
150,7.5,7.4998,-3.001,-5.7894,-0.00010556945180360996,-0.002200958318458386,-0.31712084408498425,0.003681811260719614,-0.002386622052662969,0.36936542273223116,0,70,255.0,255.0,255.0
151,7.550000000000001,7.499798614477573,-3.0011120326213385,-5.804802835093347,3.596227653801113e-05,-0.0022603750920866636,-0.299162552999158,0.0019794578729451493,9.951107531892042e-06,0.3489662207008086,0,70,255.0,255.0,255.0
152,7.6000000000000005,7.49980217759983,-3.0012240403649084,-5.819333254634941,9.237633549090754e-05,-0.0021999632077051986,-0.2822242220149032,0.0002771044851707146,0.0024065242677267108,0.3285670186693864,0,70,255.0,255.0,255.0
153,7.65,7.4998064334832995,-3.0013300317978087,-5.833042256629864,6.367272505508246e-05,-0.0020197226653139934,-0.26630585113221944,-0.0014252489026037201,0.00480309742792153,0.3081678166379642,0,70,255.0,255.0,255.0
154,7.7,7.499807126244512,-3.0014240154871397,-5.84598083908319,-5.014855476946395e-05,-0.0017196534649130475,-0.25140744035110685,-0.0031276022903781544,0.007199670588116349,0.287768614606542,0,70,255.0,255.0,255.0
155,7.75,7.4998,-3.0015,-5.8582,-0.00024908750398273185,-0.0012997556065023608,-0.2375289896715654,-0.00482995567815259,0.009596243748311176,0.2673694125751209,0,70,255.0,255.0,255.0
156,7.800000000000001,7.499782413844131,-3.0015535920253638,-5.86974842209166,-0.00043624545224003463,-0.0008559164025310687,-0.22453158147084817,-0.0026563622521394176,0.008157324410540257,0.2525269154535608,0,70,255.0,255.0,255.0
157,7.8500000000000005,7.499758186782631,-3.0015867907397014,-5.880665526894687,-0.000514723729196677,-0.0004840231654483295,-0.21227629812620918,-0.00048276882612628344,0.006718405072769362,0.237684418332001,0,70,255.0,255.0,255.0
158,7.9,7.499732752799066,-3.001603193441357,-5.890988420651882,-0.0004845223348526628,-0.00018407589525413473,-0.20076313963764816,0.0016908245998868499,0.005279485734998469,0.22284192121044114,0,70,255.0,255.0,255.0
159,7.95,7.499711545877,-3.0016063974286746,-5.900754209606053,-0.00034564126920799253,4.3925408051515534e-05,-0.18999210600516514,0.0038644180258999832,0.0038405663972275747,0.20799942408888128,0,70,255.0,255.0,255.0
160,8.0,7.4997,-3.0016,-5.91,-9.808053226266594e-05,0.00019998074446862132,-0.17996319722876014,0.006038011451913117,0.0024016470594566807,0.19315692696732123,0,70,255.0,255.0,255.0
161,8.05,7.499702130145903,-3.001586399277206,-5.9187642765400135,0.0001730195324257046,0.0003560407022133628,-0.1707591211174527,0.004805991135621551,0.0038407512503328876,0.17500611748497175,0,70,255.0,255.0,255.0
162,8.1,7.499716275269646,-3.001563196676286,-5.9270910377863135,0.0003825185812994896,0.0005840558695019061,-0.162462585480263,0.0035739708193300293,0.005279855441209043,0.15685530800262293,0,70,255.0,255.0,255.0
163,8.15,7.499739355320435,-3.001526794436763,-5.935025660762609,0.0005304166143587041,0.0008840262463342678,-0.15507359031719048,0.002341950503038463,0.0067189596320852505,0.13870449852027344,0,70,255.0,255.0,255.0
164,8.200000000000001,7.499768290247483,-3.0014735947981603,-5.942613522492603,0.0006167136316033394,0.0012559518327104407,-0.14859213562823545,0.0011099301867468969,0.008158063822961456,0.12055368903792398,0,70,255.0,255.0,255.0
165,8.25,7.4998,-3.0014,-5.9499,0.0006414096330333956,0.001699832628630408,-0.14301822141339807,-0.00012209012954462334,0.00959716801383761,0.10240287955557625,0,70,255.0,255.0,255.0
166,8.3,7.499832265572255,-3.001302410865812,-5.956929671748288,0.0006561673225355294,0.002215753593679041,-0.1383039340593448,0.0007123977096299673,0.011039670588107415,0.08616861460655192,0,70,255.0,255.0,255.0
167,8.35,7.499866312138786,-3.001177222555153,-5.963743921960059,0.0007126494039963906,0.002803799687441143,-0.13440135995274288,0.0015468855488045285,0.012482173162377168,0.06993434965752818,0,70,255.0,255.0,255.0
168,8.4,7.499904225919187,-3.001020828811589,-5.970383336297687,0.0008108558774159832,0.003463970909916756,-0.13131049909359202,0.0023813733879791193,0.013924675736646974,0.05370008470850387,0,70,255.0,255.0,255.0
169,8.450000000000001,7.499948093133059,-3.0008296233786833,-5.976888500423542,0.0009507867427943059,0.00419626726110586,-0.1290313514818924,0.00321586122715371,0.015367178310916777,0.037465819759479546,0,70,255.0,255.0,255.0
170,8.5,7.5,-3.0006,-5.9833,0.0011324420001313515,0.005000688741008425,-0.12756391711764406,0.0040503490663282675,0.01680968088518655,0.0212315548104558,0,70,255.0,255.0,255.0
171,8.55,7.5000616075650735,-3.0003295572595463,-5.989658636466837,0.0013303111774370603,0.0058049449230689705,-0.12692114264516072,0.003864418025899971,0.015360566397234826,0.004479424088877498,0,70,255.0,255.0,255.0
172,8.6,7.5001328761752095,-3.0000207131031,-5.996006074373451,0.0015188838027213477,0.006536745380731904,-0.12711597470875627,0.0036784869854716816,0.013911451909283154,-0.012272706632700206,0,70,255.0,255.0,255.0
173,8.65,7.500213341002811,-2.99967709031688,-6.0023841940466465,0.0016981598759842269,0.007196090113997278,-0.12814841330843077,0.003492555945043385,0.012462337421331432,-0.029024837354278507,0,70,255.0,255.0,255.0
174,8.700000000000001,7.500302537220275,-2.999302311687107,-6.008834875813228,0.0018681393972256911,0.007782979122865066,-0.13001845844418417,0.0033066249046150888,0.011013222933379708,-0.04577696807585681,0,70,255.0,255.0,255.0
175,8.75,7.5004,-2.9989,-6.0154,0.002028822366445735,0.00829741240733525,-0.13272611011601643,0.0031206938641868097,0.009564108445428016,-0.06252909879743473,0,70,255.0,255.0,255.0
176,8.8,7.500505304167453,-2.9984721600960027,-6.022122182384366,0.0021825879677189685,0.008836466714044982,-0.13631549536000487,0.003029930186742453,0.01199806382296102,-0.08104631096209997,0,70,255.0,255.0,255.0
177,8.85,7.500618183160374,-2.9980143250324476,-6.029046980546138,0.0023318153851199794,0.009497218789631343,-0.14083074121222636,0.0029391665092980994,0.014432019200493938,-0.09956352312676456,0,70,255.0,255.0,255.0
178,8.9,7.500738410069567,-2.997520409920891,-6.036220687515726,0.002476504618648777,0.010279668634094376,-0.1462718476726813,0.002848402831853743,0.016865974578026945,-0.11808073529142979,0,70,255.0,255.0,255.0
179,8.950000000000001,7.50086575798584,-2.99698432987289,-6.043689596323544,0.002616655668305358,0.011183816247434062,-0.1526388147413695,0.002757639154409386,0.01929992995555995,-0.13659794745609505,0,70,255.0,255.0,255.0
180,9.0,7.501,-2.9964,-6.0515,0.002752268534089715,0.012209661629650358,-0.1599316424182907,0.0026668754769650256,0.021733885333092826,-0.15511515962075895,0,70,255.0,255.0,255.0
181,9.05,7.501141175765114,-2.9957626023564434,-6.059696633995699,0.002899336951692685,0.01328118822075049,-0.16805687591482263,0.003215861227153694,0.02112717831091184,-0.16989418024051436,0,70,255.0,255.0,255.0
182,9.1,7.501290391183295,-2.99507238676711,-6.068318003441998,0.0030738546568050825,0.014322379460741537,-0.17692106044234204,0.003764846977342342,0.02052047128873088,-0.18467320086026925,0,70,255.0,255.0,255.0
183,9.15,7.50144901871892,-2.9943308699995543,-6.07740105589045,0.003275821649426919,0.015333235349623569,-0.18652419600084952,0.00431383272753101,0.019913764266549897,-0.19945222148002467,0,70,255.0,255.0,255.0
184,9.200000000000001,7.501618430836364,-2.9935395688213333,-6.0869827388926,0.0035052379295581896,0.01631375588739655,-0.1968662825903448,0.004862818477719678,0.019307057244368916,-0.21423124209978006,0,70,255.0,255.0,255.0
185,9.25,7.5018,-2.9927,-6.0971,0.0037621034971988838,0.017263941074060454,-0.20794732021082746,0.005411804227908296,0.018700350222187884,-0.22901026271953473,0,70,255.0,255.0,255.0
186,9.3,7.501994792772093,-2.991814230478223,-6.107782481632839,0.0040280642255118605,0.01815078040294996,-0.21932900098071212,0.00522662490461061,0.01677322293339185,-0.2262569680758452,0,70,255.0,255.0,255.0
187,9.35,7.502202652106448,-2.9908865278991126,-6.119030605685868,0.004284765987659944,0.018941263367399635,-0.2305730170184119,0.005041445581312932,0.014846095644595889,-0.22350367343215577,0,70,255.0,255.0,255.0
188,9.4,7.502423115054757,-2.989921710080891,-6.130837488922478,0.004532208783643151,0.01963538996740954,-0.2416793683239276,0.004856266258015248,0.012918968355799858,-0.2207503787884662,0,70,255.0,255.0,255.0
189,9.450000000000001,7.50265571866871,-2.988924594841779,-6.143196248106059,0.004770392613461474,0.02023316020297964,-0.25264805489725883,0.0046710869347175625,0.010991841067003825,-0.2179970841447767,0,70,255.0,255.0,255.0
190,9.5,7.5029,-2.9879,-6.1561,0.004999317477114906,0.020734574074109918,-0.2634790767384052,0.00448590761141987,0.009064713778207723,-0.2152437895010868,0,70,255.0,255.0,255.0
191,9.55,7.503155653146513,-2.9868508757306644,-6.169543039472946,0.005228406146260529,0.021251690167453926,-0.27424312016233454,0.004677639154404914,0.011619929955552203,-0.21531794745608118,0,70,255.0,255.0,255.0
192,9.600000000000001,7.503423000390912,-2.9857727016364404,-6.183524373814531,0.005467081392555404,0.021896567069665154,-0.28501087148401366,0.004869370697389958,0.014175146132896683,-0.21539210541107554,0,70,255.0,255.0,255.0
193,9.65,7.5037025210620545,-2.984659089676883,-6.198044188419642,0.005715343215999522,0.022669204780743583,-0.295782330703442,0.005061102240374994,0.01673036231024107,-0.21546626336606992,0,70,255.0,255.0,255.0
194,9.700000000000001,7.503994694488798,-2.9835036518115507,-6.213102668683171,0.005973191616592902,0.02356960330068926,-0.30655749782062053,0.005252833783360038,0.019285578487585553,-0.21554042132106427,0,70,255.0,255.0,255.0
195,9.75,7.5043,-2.9823,-6.2287,0.006240626594335525,0.02459776262950213,-0.3173363728355484,0.005444565326345054,0.021840794664929802,-0.21561457927605776,0,70,255.0,255.0,255.0
196,9.8,7.504618594641854,-2.981043866599119,-6.244835760475382,0.006498311189437573,0.025626458927234395,-0.3280825183699449,0.004862818477736687,0.019307057244360284,-0.21423124209979655,0,70,255.0,255.0,255.0
197,9.850000000000001,7.504949346329903,-2.979739465555127,-6.261507099056015,0.006726908442109201,0.026528468353938187,-0.3387594970455284,0.004281071629128321,0.016773319823790767,-0.21284790492353536,0,70,255.0,255.0,255.0
198,9.9,7.505290800697024,-2.9783931312115755,-6.278710557398955,0.006926418352350403,0.027303790909613473,-0.34936730886229833,0.0036993247805199745,0.014239582403221339,-0.2114645677472742,0,70,255.0,255.0,255.0
199,9.950000000000001,7.505641503376098,-2.977011197912016,-6.296442677161264,0.007096840920161196,0.02795242659426031,-0.3599059538202557,0.003117577931911608,0.011705844982651821,-0.21008123057101302,0,70,255.0,255.0,255.0
200,10.0,7.506,-2.9756,-6.3147,0.007238176145541565,0.02847437540787865,-0.3703754319193996,0.0025358310833032346,0.009172107562082255,-0.2086978933947501,0,70,255.0,255.0,255.0
201,10.05,7.50636516828607,-2.97416405787286,-6.333479518625526,0.0073703490959921986,0.028978474123606022,-0.380802806357888,0.002751086934722032,0.010991841067012335,-0.20839708414478134,0,70,255.0,255.0,255.0
202,10.100000000000001,7.506737214289476,-2.9727006361430517,-6.352780029961414,0.007513284839013772,0.029573559514579902,-0.391215140333878,0.002966342786140829,0.012811574571942416,-0.2080962748948126,0,70,255.0,255.0,255.0
203,10.15,7.507116676149846,-2.9712051854768142,-6.372600781984539,0.00766698337460628,0.030259631580800257,-0.4016124338473692,0.0031815986375596187,0.014631308076872431,-0.20779546564484389,0,70,255.0,255.0,255.0
204,10.200000000000001,7.507504092006812,-2.9696731565403844,-6.392941022671776,0.007831444702769733,0.03103669032226714,-0.41199468689836233,0.0033968544889784154,0.016451041581802512,-0.20749465639487513,0,70,255.0,255.0,255.0
205,10.25,7.5079,-2.9681,-6.4138,0.00800666882350412,0.0319047357389805,-0.42236189948685665,0.003612110340397212,0.018270775086732416,-0.20719384714490463,0,70,255.0,255.0,255.0
206,10.3,7.508304732213869,-2.9664823019094424,-6.435176565022515,0.008180292426597313,0.03279564457833857,-0.4326902561985057,0.0033328337833303983,0.017365578487589906,-0.2059404213210518,0,70,255.0,255.0,255.0
207,10.350000000000001,7.508717796512196,-2.9648211898726657,-6.457067981098331,0.008339952201837164,0.03364129358773951,-0.4429559416189621,0.0030535572262635844,0.01646038188844739,-0.20468699549719901,0,70,255.0,255.0,255.0
208,10.4,7.5091384947035875,-2.963118926881168,-6.479471114662891,0.008485648149223672,0.034441682767183304,-0.4531589557482255,0.0027742806691967805,0.015555185289304913,-0.20343356967334625,0,70,255.0,255.0,255.0
209,10.450000000000001,7.509566128596654,-2.9613777759264464,-6.502382832151634,0.008617380268756842,0.03519681211667,-0.4632992985862967,0.0024950041121299667,0.014649988690162399,-0.20218014384949343,0,70,255.0,255.0,255.0
210,10.5,7.51,-2.9596,-6.5258,0.008735148560436667,0.03590668163619953,-0.47337697013317476,0.0022157275550631073,0.013744792091019864,-0.2009267180256411,0,70,255.0,255.0,255.0
211,10.55,7.510439902858456,-2.957787534489371,-6.549719821284419,0.008868481197611463,0.03659094756304122,-0.48341216884809135,0.0031175779319286517,0.013625844982647359,-0.20048123057101844,0,70,255.0,255.0,255.0
212,10.600000000000001,7.510887599661741,-2.955941004366286,-6.574140845645264,0.009046906353629538,0.03726926613446429,-0.4934250931902769,0.004019428308794196,0.013506897874274856,-0.2000357431163958,0,70,255.0,255.0,255.0
213,10.65,7.511345345035799,-2.9540607069985154,-6.599061959363901,0.009270424028490879,0.0379416373504687,-0.5034157431597308,0.004921278685659709,0.013387950765902356,-0.19959025566177316,0,70,255.0,255.0,255.0
214,10.700000000000001,7.511815393606572,-2.95214693975383,-6.624482048721692,0.009539034222195507,0.03860806121105452,-0.5133841187564542,0.005823129062525254,0.013269003657529851,-0.1991447682071505,0,70,255.0,255.0,255.0
215,10.75,7.5123,-2.9502,-6.6504,0.009852736934743403,0.03926853771622168,-0.5233302199804459,0.006724979439390724,0.013150056549157185,-0.19869928075252652,0,70,255.0,255.0,255.0
216,10.8,7.5128004563523065,-2.9482195601330723,-6.676814549839814,0.010153782782952949,0.03996056516949558,-0.5332450684091308,0.0053168544889909625,0.014531041581798373,-0.1978946563948618,0,70,255.0,255.0,255.0
217,10.850000000000001,7.513314204840836,-2.94620279266219,-6.703723836320616,0.010384422383642507,0.04072164187440153,-0.5431196856199324,0.003908729538591201,0.01591202661443956,-0.19709003203719708,0,70,255.0,255.0,255.0
218,10.9,7.513837725153213,-2.9441462451247715,-6.7311258478815095,0.010544655736812071,0.04155176783093953,-0.5529540716128505,0.0025006045881914886,0.017293011647080702,-0.1962854076795324,0,70,255.0,255.0,255.0
219,10.950000000000001,7.5143674969770595,-2.9420464650582354,-6.759018572961602,0.010634482842461653,0.0424509430391096,-0.5627482263878856,0.001092479637791727,0.018673996679721888,-0.19548078332186766,0,70,255.0,255.0,255.0
220,11.0,7.5149,-2.9399,-6.7874,0.010653903700591246,0.0434191674989117,-0.5725021499450371,-0.00031564531260803996,0.020054981712362974,-0.19467615896419765,0,70,255.0,255.0,255.0
221,11.05,7.515432671732316,-2.9377046249783403,-6.816268379356326,0.01066038767057898,0.04438279175897505,-0.5822315575153799,0.0005750041121173709,0.01848998869017049,-0.1945001438495094,0,70,255.0,255.0,255.0
222,11.100000000000001,7.515966780974912,-2.9354630249849545,-6.845623009072276,0.010711404111802984,0.04526816636792877,-0.5919521643299883,0.0014656535368427817,0.016924995667978004,-0.19432412873482113,0,70,255.0,255.0,255.0
223,11.15,7.51650455435135,-2.933179112502399,-6.875463449110063,0.010806953024263256,0.046075291325772844,-0.601663970388862,0.002356302961568161,0.015360002645785575,-0.1941481136201329,0,70,255.0,255.0,255.0
224,11.200000000000001,7.517048218485192,-2.930856800013229,-6.9057892594319,0.010947034407959801,0.046804166632507326,-0.6113669756920016,0.0032469523862935718,0.01379500962359309,-0.19397209850544464,0,70,255.0,255.0,255.0
225,11.25,7.5176,-2.9285,-6.9366,0.011131648262892608,0.04745479228813216,-0.6210611802394063,0.004137601811018854,0.012230016601400495,-0.19379608339075372,0,70,255.0,255.0,255.0
226,11.3,7.51816165671843,-2.926111539953568,-6.967894332734883,0.011332666534731323,0.048092267794605424,-0.630692701529354,0.0039031290625296776,0.01326900365752968,-0.19146476820715158,0,70,255.0,255.0,255.0
227,11.350000000000001,7.518733071259517,-2.9236899073979927,-6.999667327390284,0.011521961169145582,0.04878169265388515,-0.6402076570601216,0.0036686563140405017,0.014307990713658864,-0.18913345302354945,0,70,255.0,255.0,255.0
228,11.4,7.519313657441387,-2.921232504865633,-7.031913155678242,0.011699532166135373,0.0495230668659713,-0.649606046831709,0.0034341835655513336,0.015346977769788014,-0.1868021378399474,0,70,255.0,255.0,255.0
229,11.450000000000001,7.519902829082173,-2.918736734888849,-7.064625989310801,0.011865379525700713,0.050316390430863944,-0.6588878708441164,0.0031997108170621572,0.0163859648259172,-0.18447082265634526,0,70,255.0,255.0,255.0
230,11.5,7.5205,-2.9162,-7.0978,0.012019503247841588,0.051161663348563015,-0.6680531290973435,0.002965238068572962,0.017424951882046125,-0.1821395074727441,0,70,255.0,255.0,255.0
231,11.55,7.5211047013939645,-2.9136204152073866,-7.131431089704146,0.012168946190500596,0.052016137062607125,-0.6772056363672083,0.0030124796377872694,0.01675399667971769,-0.18396078332184163,0,70,255.0,255.0,255.0
232,11.600000000000001,7.521716933987025,-2.9109989454230747,-7.165522081366596,0.012320751211620318,0.052837063016534805,-0.686449207429528,0.003059721207001577,0.016083041477389252,-0.18578205917093915,0,70,255.0,255.0,255.0
233,11.65,7.522336815883102,-2.9083372680350688,-7.200077528176973,0.012474918311200754,0.05362444121034604,-0.695783842284302,0.003106962776215883,0.015412086275060839,-0.18760333502003662,0,70,255.0,255.0,255.0
234,11.700000000000001,7.522964465186119,-2.9056370604313755,-7.235101983324901,0.012631447489241908,0.05437827164404089,-0.7052095409315315,0.0031542043454301904,0.014741131072732401,-0.18942461086913415,0,70,255.0,255.0,255.0
235,11.75,7.5236,-2.9029,-7.2706,0.012790338745743772,0.05509855431761928,-0.7147263033712155,0.003201445914644538,0.014070175870403878,-0.19124588671823162,0,70,255.0,255.0,255.0
236,11.8,7.52424353770571,-2.900127599216884,-7.306574108448537,0.012951548703267226,0.055795183954969005,-0.7242127530018078,0.00324695238629352,0.013795009623584561,-0.18821209850545623,0,70,255.0,255.0,255.0
237,11.850000000000001,7.524895192792386,-2.897320710909709,-7.343018747143338,0.01311503398437313,0.056478055279977755,-0.7335475132217614,0.0032924588579425025,0.013519843376765242,-0.18517831029268086,0,70,255.0,255.0,255.0
238,11.9,7.525555079026208,-2.8944800229940917,-7.379926331613869,0.013280794589061473,0.05714716829264552,-0.7427305840310758,0.0033379653295914835,0.013244677129945934,-0.18214452207990559,0,70,255.0,255.0,255.0
239,11.950000000000001,7.526223310173353,-2.89160622338565,-7.417289277389601,0.013448830517332276,0.057802522992972345,-0.7517619654297518,0.0033834718012404658,0.012969510883126617,-0.17911073386713022,0,70,255.0,255.0,255.0
240,12.0,7.5269,-2.8887,-7.4551,0.01361914176918552,0.058444119380958184,-0.7606416574177888,0.003428978272889363,0.012694344636307475,-0.17607694565435494,0,70,255.0,255.0,255.0
241,12.05,7.527585147783195,-2.8857619879250778,-7.493352476501709,0.013784858996434309,0.05907512711751403,-0.7694633516255569,0.0031997108170621065,0.012545964825926091,-0.17679082265636412,0,70,255.0,255.0,255.0
242,12.100000000000001,7.52827829484343,-2.882792610938091,-7.5320469300600585,0.013939112850891736,0.059698715863550814,-0.7783207396834254,0.00297044336123485,0.012397585015544705,-0.1775046996583733,0,70,255.0,255.0,255.0
243,12.15,7.52897886801207,-2.8797922399885643,-7.571185145367552,0.014081903332557794,0.060314885619068496,-0.7872138215913942,0.0027411759054076015,0.012249205205163326,-0.1782185766603824,0,70,255.0,255.0,255.0
244,12.200000000000001,7.529686294120474,-2.876761246026026,-7.610768907116698,0.014213230441432493,0.06092363638406714,-0.7961425973494636,0.0025119084495803445,0.01210082539478194,-0.17893245366239158,0,70,255.0,255.0,255.0
245,12.25,7.5304,-2.8737,-7.6508,0.014333094177515826,0.06152496815854669,-0.8051070669576332,0.00228264099375311,0.01195244558440045,-0.17964633066440072,0,70,255.0,255.0,255.0
246,12.3,7.531119871161516,-2.8706084490828054,-7.691279185544633,0.014469015310994987,0.062144307574975126,-0.8140458404959711,0.003154204345413204,0.012821131072736781,-0.17790461086910977,0,70,255.0,255.0,255.0
247,12.350000000000001,7.531847627833892,-2.8674848453379287,-7.732203132616435,0.014648514612057151,0.06280708126582038,-0.8228975280445445,0.004025767697073298,0.013689816561073112,-0.17616289107381883,0,70,255.0,255.0,255.0
248,12.4,7.532585448925514,-2.8643270170516497,-7.773567486915923,0.014871592080702312,0.06351328923108243,-0.831662129603353,0.0048973310487333615,0.014558502049409412,-0.17442117127852796,0,70,255.0,255.0,255.0
249,12.450000000000001,7.533335513344755,-2.8611327925102468,-7.815367894143607,0.015138247716930488,0.06426293147076131,-0.8403396451723971,0.005768894400393456,0.015427187537745742,-0.17267945148323702,0,70,255.0,255.0,255.0
250,12.5,7.5341,-2.8579,-7.8576,0.015448481520741655,0.065056007984857,-0.8489300747516767,0.006640457752053491,0.016295873026081598,-0.17093773168794346,0,70,255.0,255.0,255.0
251,12.55,7.534880167570748,-2.8546274157437006,-7.900260381319768,0.015747079759574747,0.06583564258258688,-0.8574892863905541,0.00530347180127003,0.014889510883113546,-0.17143073386714658,0,70,255.0,255.0,255.0
252,12.600000000000001,7.535673593820998,-2.8513176077101936,-7.943349339474206,0.015978828700868666,0.06654495907316837,-0.8660731481383915,0.003966485850486569,0.013483148740145494,-0.17192373604634972,0,70,255.0,255.0,255.0
253,12.65,7.536476936285875,-2.847974091804836,-7.986868106968758,0.016143728344623406,0.06718395745660144,-0.874681659995189,0.0026294998997031544,0.012076786597177492,-0.1724167382255528,0,70,255.0,255.0,255.0
254,12.700000000000001,7.537286852500502,-2.844600383932986,-8.030817916308873,0.016241778690838978,0.06775263773288612,-0.8833148219609469,0.0012925139489196932,0.01067042445420944,-0.17290974040475593,0,70,255.0,255.0,255.0
255,12.75,7.5381,-2.8412,-8.0752,0.016272979739515376,0.0682509999020224,-0.8919726340356645,-4.4472001863776756e-05,0.009264062311241328,-0.17340274258395727,0,70,255.0,255.0,255.0
256,12.8,7.538913858555496,-2.837775487942392,-8.120014489176297,0.016286665650708403,0.06873712209467331,-0.9005890139418229,0.0005919084495848139,0.010180825394794892,-0.17125245366237515,0,70,255.0,255.0,255.0
257,12.850000000000001,7.539729196882114,-2.8343255238212963,-8.16525710948675,0.016332170584473858,0.0692690824415019,-0.9090978794019023,0.0012282889010334045,0.011097588478348457,-0.16910216474079304,0,70,255.0,255.0,255.0
258,12.9,7.5405476059309855,-2.8308478157290056,-8.210922485209053,0.016409494540811743,0.06984688094250815,-0.9174992304159022,0.0018646693524819724,0.012014351561901988,-0.16695187581921098,0,70,255.0,255.0,255.0
259,12.950000000000001,7.541370676653237,-2.82734007175781,-8.257005240620904,0.016518637519722056,0.0704705175976921,-0.9257930669838232,0.002501049803930563,0.012931114645455552,-0.16480158689762886,0,70,255.0,255.0,255.0
260,13.0,7.5422,-2.8238,-8.3035,0.016659599521204795,0.07113999240705371,-0.933979389105665,0.003137430255379131,0.013847877729009195,-0.16265129797604327,0,70,255.0,255.0,255.0
261,13.05,7.543037198207273,-2.820225832486732,-8.350402461975047,0.01683425763759837,0.07182386903872248,-0.9421226578421469,0.003848894400363816,0.013507187537741489,-0.16307945148322373,0,70,255.0,255.0,255.0
262,13.100000000000001,7.543884018650547,-2.81661789700462,-8.397712622578807,0.01704448896124118,0.07249071116082788,-0.9502873342539876,0.004560358545348501,0.013166497346473783,-0.16350760499040418,0,70,255.0,255.0,255.0
263,13.15,7.544742239990185,-2.8129770452791423,-8.445431552195036,0.01729029349213322,0.07314051877336987,-0.9584734183411872,0.005271822690333161,0.012825807155206091,-0.1639357584975846,0,70,255.0,255.0,255.0
264,13.200000000000001,7.545613640886549,-2.8093041290357763,-8.493560321207513,0.017571671230274498,0.07377329187634848,-0.966680910103746,0.005983286835317845,0.012485116963938385,-0.16436391200476505,0,70,255.0,255.0,255.0
265,13.25,7.5465,-2.8056,-8.5421,0.017888622175665,0.07438903046976368,-0.9749098095416636,0.006694750980302394,0.012144426772669914,-0.16479206551194014,0,70,255.0,255.0,255.0
266,13.3,7.5474021486154115,-2.801865182110679,-8.591050862923511,0.018184303798895757,0.07500740175043555,-0.9831123546895825,0.005132513948927736,0.012590424454204758,-0.16330974040481025,0,70,255.0,255.0,255.0
267,13.350000000000001,7.548317128515696,-2.798098888160222,-8.640410000198038,0.01840187357055778,0.07564807291518418,-0.991240783582145,0.003570276917553078,0.013036422135739602,-0.16182741529768035,0,70,255.0,255.0,255.0
268,13.4,7.549241034108276,-2.794300003154426,-8.690173706010803,0.018541331490651066,0.0763110439640095,-0.9992950962193505,0.0020080398861784757,0.01348241981727443,-0.16034509019055054,0,70,255.0,255.0,255.0
269,13.450000000000001,7.550169959800569,-2.7904674120990864,-8.74033827454905,0.018602677559175624,0.07699631489691161,-1.0072752926011999,0.0004458028548038175,0.013928417498809274,-0.15886276508342065,0,70,255.0,255.0,255.0
270,13.5,7.5511,-2.7866,-8.7909,0.018585911776131447,0.07770388571389043,-1.0151813727276924,-0.001116434176570813,0.014374415180344102,-0.15738043997628637,0,70,255.0,255.0,255.0
271,13.55,7.552028607331078,-2.782697439070553,-8.841855686330907,0.018572527166815553,0.07838652395953566,-1.0230439233995392,0.0005810498039350762,0.012931114645464306,-0.157121586897577,0,70,255.0,255.0,255.0
272,13.600000000000001,7.552958667286665,-2.7787625503544917,-8.893204176629057,0.018644016756524953,0.07899699717843689,-1.0308935314174503,0.0022785337844409654,0.011487814110584508,-0.15686273381886764,0,70,255.0,255.0,255.0
273,13.65,7.553894423576715,-2.7747989421031547,-8.944944823761752,0.018800380545259645,0.0795353053705941,-1.0387301967814258,0.003976017764946794,0.010044513575704763,-0.15660388074015827,0,70,255.0,255.0,255.0
274,13.700000000000001,7.554840119911175,-2.7708102225678783,-8.997076980596301,0.019041618533019635,0.08000144853600735,-1.046553919491466,0.005673501745452683,0.008601213040824965,-0.1563450276614489,0,70,255.0,255.0,255.0
275,13.75,7.5558,-2.7668,-9.0496,0.01936773071980491,0.0803954266746766,-1.0543646995475708,0.007370985725958512,0.007157912505945219,-0.15608617458274487,0,70,255.0,255.0,255.0
276,13.8,7.556777022060277,-2.7627706616071097,-9.102512791752867,0.01970158753383725,0.08079050241142349,-1.0621359517122584,0.005983286835334825,0.008645116963929932,-0.15476391200475312,0,70,255.0,255.0,255.0
277,13.850000000000001,7.557769002337641,-2.758719710421809,-9.155812493285746,0.019966059403338402,0.08125993837106961,-1.0698410907480465,0.004595587944711137,0.010132321421914645,-0.15344164942676133,0,70,255.0,255.0,255.0
278,13.9,7.558772471584868,-2.754643428432954,-9.20949579894219,0.020161146328308364,0.08180373455361493,-1.0774801166549346,0.0032078890540874995,0.011619525879899305,-0.1521193868487696,0,70,255.0,255.0,255.0
279,13.950000000000001,7.5597839605547295,-2.7505380976293994,-9.263559403065758,0.020286848308747146,0.08242189095905952,-1.0850530294329233,0.001820190163463812,0.01310673033788402,-0.15079712427077785,0,70,255.0,255.0,255.0
280,14.0,7.5608,-2.7464,-9.318,0.020343165344654746,0.08311440758740335,-1.0925598290820124,0.0004324912728401187,0.01459393479586879,-0.14947486169279145,0,70,255.0,255.0,255.0
281,14.05,7.561817704427817,-2.7422263145010084,-9.37281474665763,0.020365122697845416,0.08382746639477032,-1.1000282697514192,0.0004458028547867478,0.013928417498809234,-0.14926276508347483,0,70,255.0,255.0,255.0
282,14.100000000000001,7.56283652336277,-2.73801780795827,-9.428002650227969,0.02038774563013342,0.08450724933728429,-1.1074861055903602,0.000459114436733377,0.013262900201749675,-0.14905066847415824,0,70,255.0,255.0,255.0
283,14.15,7.563856490083816,-2.7337761441650277,-9.483563180469492,0.020411034141518757,0.08515375641494527,-1.114933336598835,0.00047242601868000564,0.012597382904690141,-0.14883857186484165,0,70,255.0,255.0,255.0
284,14.200000000000001,7.564877637869906,-2.7295029869145235,-9.539495807140677,0.02043498823200142,0.0857669876277533,-1.1223699627768442,0.0004857376006266348,0.011931865607630585,-0.14862647525552503,0,70,255.0,255.0,255.0
285,14.25,7.5659,-2.7252,-9.5958,0.02045960790158142,0.08634694297570833,-1.1297959841243874,0.000499049182573319,0.011266348310570828,-0.14841437864619778,0,70,255.0,255.0,255.0
286,14.3,7.566924160228458,-2.7208688803888554,-9.652474621616618,0.020517921674781867,0.08689163200949333,-1.1371749692820774,0.0018335017454445958,0.010521213040828925,-0.1467450276614009,0,70,255.0,255.0,255.0
287,14.350000000000001,7.567952904211281,-2.716511457745109,-9.70951610580239,0.02064295807612588,0.08739906427979124,-1.1444704868905278,0.0031679543083158726,0.009776077771087023,-0.14507567667660407,0,70,255.0,255.0,255.0
288,14.4,7.568989568079874,-2.7121295949069344,-9.766920279179852,0.02083471710561345,0.08786923978660202,-1.1516825369497379,0.004502406871187102,0.009030942501345146,-0.14340632569180725,0,70,255.0,255.0,255.0
289,14.450000000000001,7.570037487965644,-2.7077251547125067,-9.824682968371544,0.021093198763244593,0.08830215852992573,-1.1588111194597084,0.0058368594340583784,0.008285807231603243,-0.1417369747070104,0,70,255.0,255.0,255.0
290,14.5,7.5711,-2.7033,-9.8828,0.021418403049019288,0.08869782050976235,-1.1658562344204386,0.00717131199692958,0.007540671961861145,-0.14006762372220827,0,70,255.0,255.0,255.0
291,14.55,7.572179254658351,-2.6988549639435697,-9.941268366875905,0.021739190603029326,0.08911800556725599,-1.1728878531202631,0.005660190163471863,0.0092667303378845,-0.1411971242707704,0,70,255.0,255.0,255.0
292,14.600000000000001,7.573272659792108,-2.6943867610612946,-10.000089726562484,0.021984422065366483,0.08962449354355081,-1.179975946847516,0.004149068330014145,0.010992788713907858,-0.14232662481933256,0,70,255.0,255.0,255.0
293,14.65,7.574376437596691,-2.6898910762072346,-10.059266902811112,0.022154097436030744,0.09021728443864678,-1.1871205156021962,0.002637946496556482,0.012718847089931151,-0.14345612536789468,0,70,255.0,255.0,255.0
294,14.700000000000001,7.575486810267518,-2.6853635942354495,-10.11880271937316,0.022248216715022126,0.09089637825254393,-1.1943215593843053,0.0011268246630987645,0.014444905465954509,-0.14458562591645682,0,70,255.0,255.0,255.0
295,14.75,7.5766,-2.6808,-10.1787,0.022266779902340623,0.09166177498524224,-1.201579078193842,-0.00038429717035895483,0.016170963841978137,-0.1457151264650154,0,70,255.0,255.0,255.0
296,14.8,7.577713221138143,-2.676197663836866,-10.23895991087977,0.022269315913097314,0.09241234572148235,-1.2087936182368568,0.00048573760062665245,0.013851865607626114,-0.14286647525556792,0,70,255.0,255.0,255.0
297,14.850000000000001,7.578827656620285,-2.671560698009714,-10.29957698794768,0.022315353662403288,0.09304696154600486,-1.215865725719399,0.0013557723716122597,0.01153276737327409,-0.14001782404612043,0,70,255.0,255.0,255.0
298,14.9,7.579945481533359,-2.666894900264128,-10.3605441095757,0.02240489315025854,0.09356562245880976,-1.2227954006414685,0.002225807142597836,0.009213669138922149,-0.13716917283667304,0,70,255.0,255.0,255.0
299,14.950000000000001,7.5810688709642875,-2.6622060683456943,-10.421854154135817,0.022537934376663075,0.09396832845989708,-1.2295826430030663,0.0030958419135834435,0.006894570904570125,-0.13432052162722558,0,70,255.0,255.0,255.0
300,15.0,7.5822,-2.6575,-10.4835,0.02271447734161688,0.09425507954926676,-1.2362274528041912,0.003965876684568964,0.0045754726702176285,-0.13147187041777464,0,70,255.0,255.0,255.0
301,15.05,7.583340660789082,-2.652780780708965,-10.54547598960502,0.02291154574458268,0.0945286115468124,-1.2428176739323105,0.003916859434062819,0.006365807231607449,-0.13213697470699481,0,70,255.0,255.0,255.0
302,15.100000000000001,7.5844911137267506,-2.648045646899851,-10.607782321646807,0.023106163285023167,0.09489166027242751,-1.2494411502748908,0.003867842183556673,0.008156141792997269,-0.13280207899621496,0,70,255.0,255.0,255.0
303,15.15,7.585651236269876,-2.643290122736255,-10.670420658886082,0.023298329962938347,0.09534422572611212,-1.256097881831932,0.0038188249330505294,0.009946476354387026,-0.1334671832854351,0,70,255.0,255.0,255.0
304,15.200000000000001,7.586820905875335,-2.638509732381772,-10.733392664083574,0.023488045778328217,0.09588630790786623,-1.2627878686034344,0.003769807682544384,0.011736810915776845,-0.13413228757465526,0,70,255.0,255.0,255.0
305,15.25,7.588,-2.6337,-10.7967,0.02367531073119278,0.09651790681768978,-1.2695111105893975,0.003720790432038129,0.01352714547716627,-0.13479739186387185,0,70,255.0,255.0,255.0
306,15.3,7.5891881357055295,-2.6288576133272743,-10.860343330700156,0.023844501108571094,0.09716920809126793,-1.2762076860339056,0.0030468246630942566,0.012524905465959177,-0.13306562591644738,0,70,255.0,255.0,255.0
307,15.350000000000001,7.590383888472716,-2.6239839143908825,-10.924319325465103,0.023979993197502214,0.09777039736428571,-1.2828176731810426,0.002372858894150384,0.011522665454752085,-0.13133385996902294,0,70,255.0,255.0,255.0
308,15.4,7.591585573387139,-2.6190814087908545,-10.98862365487997,0.024081786997986132,0.09832147463674312,-1.2893410720308076,0.001698893125206536,0.010520425443545027,-0.12960209402159853,0,70,255.0,255.0,255.0
309,15.450000000000001,7.5927915055343735,-2.6141526021272172,-11.053251989529894,0.024149882510022862,0.0988224399086402,-1.2957778825832023,0.0010249273562626636,0.009518185432337935,-0.12787032807417406,0,70,255.0,255.0,255.0
310,15.5,7.594,-2.6092,-11.1182,0.0241842797336124,0.09927329317997692,-1.302128104838225,0.00035096158731881544,0.008515945421130655,-0.12613856212674435,0,70,255.0,255.0,255.0
311,15.55,7.595209996388801,-2.6042255659819395,-11.183464287594363,0.024222449821135066,0.09970655608811933,-1.3084475819320738,0.0011758419135879112,0.008814570904565392,-0.12664052162720765,0,70,255.0,255.0,255.0
312,15.600000000000001,7.596422932382385,-2.5992290955366184,-11.249045176492793,0.024301863924971193,0.10015475027043347,-1.3147921570009458,0.002000722239857007,0.00911319638800013,-0.12714248112767096,0,70,255.0,255.0,255.0
313,15.65,7.5976408701815705,-2.594209842100327,-11.31494392159404,0.024422522045120767,0.10061787572691934,-1.321161830044841,0.0028256025661260735,0.009411821871434857,-0.12764444062813426,0,70,255.0,255.0,255.0
314,15.700000000000001,7.59886587198717,-2.5891670591093567,-11.38116177779686,0.0245844241815838,0.10109593245757695,-1.3275566010637594,0.003650482892395169,0.009710447354869596,-0.12814640012859757,0,70,255.0,255.0,255.0
315,15.75,7.6001,-2.5841,-11.4477,0.02478757033436028,0.1015889204624063,-1.3339764700577006,0.00447536321866418,0.010009072838304434,-0.12864835962906085,0,70,255.0,255.0,255.0
316,15.8,7.6013446787392684,-2.5790081227449657,-11.514558718922398,0.02499369960689007,0.10208456755625823,-1.340353986237794,0.0037698076825272552,0.009816810915772575,-0.12645228757467275,0,70,255.0,255.0,255.0
317,15.850000000000001,7.6025987819977425,-2.5738917034626425,-11.581733568563736,0.025164551102613012,0.10257060155398358,-1.346621698815168,0.0030642521463903304,0.009624548993240717,-0.12425621552028468,0,70,255.0,255.0,255.0
318,15.9,7.603860545886583,-2.5687512228078364,-11.64921905874387,0.025300124821529102,0.10304702245558231,-1.3527796077898224,0.0023586966102534307,0.009432287070708865,-0.12206014346589666,0,70,255.0,255.0,255.0
319,15.950000000000001,7.605128206516949,-2.563587161435353,-11.717009699282672,0.025400420763638354,0.10351383026105446,-1.3588277131617577,0.0016531410741165058,0.009240025148177008,-0.11986407141150858,0,70,255.0,255.0,255.0
320,16.0,7.6064,-2.5584,-11.7851,0.02546543892894075,0.1039710249704,-1.3647660149309733,0.0009475855379795783,0.009047763225644934,-0.11766799935711703,0,70,255.0,255.0,255.0
321,16.05,7.607674488654127,-2.553189943038195,-11.853485636716046,0.025514751751297235,0.10443517368684957,-1.370664473116756,0.0010249273562797489,0.009518185432337763,-0.11827032807419187,0,70,255.0,255.0,255.0
322,16.1,7.608951539626645,-2.5479560906128094,-11.922166949252274,0.02556793166456873,0.1049228435136338,-1.3765930477383925,0.0011022691745799194,0.00998860763903059,-0.11887265679126673,0,70,255.0,255.0,255.0
323,16.150000000000002,7.6102313462721,-2.5426972666683256,-11.991145443430483,0.025624978668755228,0.10543403445075265,-1.382551738795883,0.0011796109928800902,0.01045902984572342,-0.11947498550834157,0,70,255.0,255.0,255.0
324,16.2,7.611514101945036,-2.5374122951492284,-12.060422625072459,0.025685892763856733,0.10596874649820612,-1.3885405462892264,0.0012569528111802553,0.010929452052416215,-0.12007731422541638,0,70,255.0,255.0,255.0
325,16.25,7.6128,-2.5321,-12.13,0.02575067394987325,0.10652697965599425,-1.3945594702184245,0.0013342946294804259,0.011399874259109266,-0.12067964294248945,0,70,255.0,255.0,255.0
326,16.3,7.614089366644223,-2.526760105102253,-12.19987793421343,0.025827293387920253,0.10705473769634374,-1.4005401212952004,0.0017304828923996153,0.00971044735486981,-0.11854640012855061,0,70,255.0,255.0,255.0
327,16.35,7.615383059495678,-2.521395934086119,-12.270052234427178,0.025923722239113215,0.10749802439148125,-1.4064141102312797,0.002126671155318805,0.008021020450630353,-0.11641315731461177,0,70,255.0,255.0,255.0
328,16.400000000000002,7.616682069025021,-2.5160117105188577,-12.340517567534212,0.02603996050345214,0.1078568397414068,-1.4121814370266619,0.0025228594182379943,0.006331593546390896,-0.11427991450067294,0,70,255.0,255.0,255.0
329,16.45,7.617987385702909,-2.510611657967732,-12.411268600427496,0.02617600818093701,0.10813118374612032,-1.417842101681347,0.002919047681157155,0.004642166642151559,-0.11214667168673426,0,70,255.0,255.0,255.0
330,16.5,7.6193,-2.5052,-12.4823,0.02633186527156785,0.10832105640562194,-1.423396104195335,0.003315235944076317,0.0029527397379124354,-0.11001342887279364,0,70,255.0,255.0,255.0
331,16.55,7.62062084476898,-2.4997792365527918,-12.553607426430252,0.02650407469702256,0.10852987552777418,-1.4289030417024424,0.0035731410741119945,0.005400025148177402,-0.11026407141149619,0,70,255.0,255.0,255.0
332,16.6,7.621950622390644,-2.494344973042714,-12.625190513039028,0.026689179378979057,0.1088610589204397,-1.4344225113364846,0.0038310462041476717,0.007847310558442368,-0.11051471395019875,0,70,255.0,255.0,255.0
333,16.650000000000002,7.623289977627819,-2.488891091256239,-12.697049886432684,0.026887179317437334,0.10931460658361843,-1.4399545130974623,0.00408895133418335,0.010294595968707337,-0.1107653564889013,0,70,255.0,255.0,255.0
334,16.7,7.62463955524333,-2.483411472979843,-12.769186173217555,0.02709807451239738,0.10989051851731038,-1.4454990469853746,0.004346856464219008,0.01274188137897213,-0.11101599902760384,0,70,255.0,255.0,255.0
335,16.75,7.626,-2.4779,-12.8416,0.027321864963859223,0.11058879472151564,-1.4510561130002224,0.004604761594254547,0.015189166789236985,-0.11126664156629928,0,70,255.0,255.0,255.0
336,16.8,7.62737125427986,-2.472352548686578,-12.914291560065578,0.027516407823994983,0.11128976019255708,-1.4565997118950167,0.003176952811175728,0.012849452052420152,-0.11047731422547072,0,70,255.0,255.0,255.0
337,16.85,7.628750450941747,-2.4667729737430246,-12.987259313416718,0.0276395602449768,0.11187373992675767,-1.4621038444227696,0.0017491440280969087,0.01050973731560332,-0.10968798688464217,0,70,255.0,255.0,255.0
338,16.900000000000002,7.630134020463705,-2.461167124456183,-13.060501286735073,0.027691322226804673,0.11234073392411743,-1.467568510583481,0.00032133524501808987,0.008170022578786485,-0.1088986595438136,0,70,255.0,255.0,255.0
339,16.95,7.631518393323775,-2.455540850112894,-13.13401550670228,0.027671693769478613,0.11269074218463632,-1.4729937103771507,-0.0011064735380606283,0.005830307841969817,-0.1081093322029851,0,70,255.0,255.0,255.0
340,17.0,7.6329,-2.4499,-13.2078,0.027580674872998607,0.11292376470831439,-1.4783794438037794,-0.002534282321139475,0.0034905931051523176,-0.10732000486214943,0,70,255.0,255.0,255.0
341,17.05,7.634276538111583,-2.4442489687008955,-13.281852733307446,0.027494294006998845,0.11312708370199699,-1.483722110717501,-0.0009209523188508809,0.004642166642151507,-0.10638667168671033,0,70,255.0,255.0,255.0
342,17.1,7.63565077384237,-2.438586331985186,-13.356171433294106,0.02748857964111352,0.11338798137252955,-1.4890181109724505,0.0006923776834377132,0.005793740179150696,-0.10545333851127123,0,70,255.0,255.0,255.0
343,17.150000000000002,7.6370267405173635,-2.4329092109190285,-13.430753766627046,0.02756353177534262,0.11370645771991207,-1.4942674445686281,0.002305707685726307,0.006945313716149886,-0.10452000533583213,0,70,255.0,255.0,255.0
344,17.2,7.638408471461571,-2.4272147265685806,-13.50559739997332,0.027719150409686137,0.11408251274414452,-1.4994701115060336,0.003919037688014786,0.008096887253148994,-0.10358667216039309,0,70,255.0,255.0,255.0
345,17.25,7.6398,-2.4215,-13.5807,0.027955435544144095,0.11451614644522697,-1.504626111784667,0.005532367690303269,0.009248460790148516,-0.10265333898495577,0,70,255.0,255.0,255.0
346,17.3,7.6412041932738095,-2.415762776509839,-13.65605910670465,0.028202416148007153,0.114969904999455,-1.509727845234981,0.004346856464218884,0.008901881378972805,-0.10141599902759245,0,70,255.0,255.0,255.0
347,17.35,7.64261925368878,-2.41000329831623,-13.73167175340687,0.02839012119056599,0.11540633458312427,-1.5147677116874265,0.0031613452381344994,0.008555301967797092,-0.10017865907022912,0,70,255.0,255.0,255.0
348,17.400000000000002,7.644042217466844,-2.4042224318677023,-13.807534846756763,0.02851855067182061,0.11582543519623473,-1.519745711142004,0.0019758340120501145,0.00820872255662138,-0.0989413191128658,0,70,255.0,255.0,255.0
349,17.45,7.645470120829939,-2.3984210436127826,-13.883645293404435,0.028587704591771,0.11622720683878639,-1.5246618435987127,0.0007903227859658137,0.007862143145445692,-0.09770397915550257,0,70,255.0,255.0,255.0
350,17.5,7.6469,-2.3926,-13.96,0.02859758295041718,0.11661164951077929,-1.529516109057554,-0.000395188440118599,0.007515563734270092,-0.0964666391981428,0,70,255.0,255.0,255.0
351,17.55,7.64832988879318,-2.386759925259748,-14.036596439873962,0.02860804140096301,0.11699329630018518,-1.534342508342582,0.0008135264619519471,0.0077503078419649575,-0.09658933220297605,0,70,255.0,255.0,255.0
352,17.6,7.649761811402514,-2.380900474749891,-14.113434353078434,0.028678935596612377,0.1173866802949758,-1.5391750422778518,0.0020222413640224933,0.007985051949659823,-0.0967120252078093,0,70,255.0,255.0,255.0
353,17.650000000000002,7.651198789615259,-2.375021061610161,-14.19051404634592,0.028810265537365265,0.11779180149515116,-1.5440137108633631,0.0032309562660930396,0.008219796057354688,-0.09683471821264256,0,70,255.0,255.0,255.0
354,17.7,7.65264384521867,-2.369121098980287,-14.267835826408936,0.029002031223221668,0.11820865990071125,-1.5488585140991158,0.0044396711681635,0.008454540165049537,-0.09695741121747581,0,70,255.0,255.0,255.0
355,17.75,7.6541,-2.3632,-14.3454,0.029254232654181613,0.11863725551165609,-1.5537094519851107,0.005648386070234129,0.008689284272744069,-0.09708010422231794,0,70,255.0,255.0,255.0
356,17.8,7.655569051553471,-2.357257522451168,-14.42320633379951,0.029493418248138267,0.11905690979980343,-1.5585341213946788,0.003919037688031816,0.008096887253149113,-0.09590667216041238,0,70,255.0,255.0,255.0
357,17.85,7.657047900701162,-2.3512948026842024,-14.501252434279417,0.0296461364229848,0.11944694423697101,-1.5633001192011522,0.002189689305829502,0.007504490233554156,-0.09473324009850682,0,70,255.0,255.0,255.0
358,17.900000000000002,7.658532224072117,-2.3453133216916533,-14.579535367859574,0.029712387178721218,0.11980735882315885,-1.5680074454045299,0.0004603409236271878,0.0069120932139591995,-0.09355980803660126,0,70,255.0,255.0,255.0
359,17.95,7.660017698295382,-2.33931456046607,-14.658052200959816,0.029692170515347522,0.12013815355836692,-1.572656100004812,-0.0012690074585750034,0.006319696194364286,-0.09238637597469579,0,70,255.0,255.0,255.0
360,18.0,7.6615,-2.3333,-14.7368,0.029585486432863718,0.12043932844259528,-1.5772460830019992,-0.0029983558407772892,0.00572729917476944,-0.09121294391279733,0,70,255.0,255.0,255.0
361,18.05,7.662976304992937,-2.3272707849355805,-14.81577582492801,0.029482285606492686,0.12073106450060077,-1.5817770060787073,-0.001129677214063858,0.0059421431454503215,-0.09002397915552292,0,70,255.0,255.0,255.0
362,18.1,7.664449785792839,-2.321226714513297,-14.89497670980391,0.02947251871145733,0.12103354275714032,-1.5862484809175517,0.0007390014126495733,0.006156987116131202,-0.08883501439824851,0,70,255.0,255.0,255.0
363,18.150000000000002,7.665925114096272,-2.3151672516232242,-14.974399682215802,0.029556185747757646,0.1213467632122139,-1.5906605075185323,0.0026076800393630044,0.006371831086812083,-0.08764604964097411,0,70,255.0,255.0,255.0
364,18.2,7.667406961599803,-2.3090918591554344,-15.054041769751796,0.02973328671539362,0.12167072586582152,-1.595013085881649,0.004476358666076303,0.006586675057492949,-0.08645708488369978,0,70,255.0,255.0,255.0
365,18.25,7.6689,-2.303,-15.1339,0.030003821614365277,0.1220054307179632,-1.5993062160069023,0.006345037292789596,0.006801519028173719,-0.08526812012643781,0,70,255.0,255.0,255.0
366,18.3,7.6704073284747825,-2.2968913378065094,-15.21397196648846,0.03027343932588911,0.12233883219779368,-1.6035738542904994,0.004439671168163462,0.006534540165045151,-0.08543741121744156,0,70,255.0,255.0,255.0
367,18.35,7.671925756127485,-2.2907663392626065,-15.294257526504962,0.03044778873118163,0.12265888473446772,-1.6078499571286464,0.0025343050435373284,0.006267561301916583,-0.0856067023084453,0,70,255.0,255.0,255.0
368,18.400000000000002,7.673450519542797,-2.2846256718154483,-15.374757103277236,0.03052686983024284,0.12296558832798535,-1.6121345245213439,0.0006289389189111944,0.0060005824387880154,-0.08577599339944904,0,70,255.0,255.0,255.0
369,18.45,7.674976855305405,-2.2784700029121945,-15.455471120033001,0.030510682623072754,0.12325894297834651,-1.6164275564685913,-0.0012764272057148038,0.005733603575659467,-0.08594528449045277,0,70,255.0,255.0,255.0
370,18.5,7.6765,-2.2723,-15.5364,0.030399227109671356,0.12353894868555129,-1.6207290529703893,-0.003181793330341076,0.005466624712531232,-0.08611457558146185,0,70,255.0,255.0,255.0
371,18.55,7.678016781107933,-2.266115863838381,-15.617543509118162,0.030287957089948882,0.12383360670822369,-1.6249995767592937,-0.001269007458557931,0.006319696194364489,-0.08470637597471507,0,70,255.0,255.0,255.0
372,18.6,7.679530389697222,-2.2599159284362758,-15.69889878417626,0.03027232636381556,0.12417091830498776,-1.629199690567861,0.0006437784132252143,0.007172767676197746,-0.08329817636796828,0,70,255.0,255.0,255.0
373,18.650000000000002,7.681045607732542,-2.2536980611149806,-15.780462304675277,0.030352334931271402,0.12455088347584348,-1.6333293943960907,0.0025565642850083597,0.008025839158031003,-0.0818899767612215,0,70,255.0,255.0,255.0
374,18.7,7.682567217178575,-2.2474601291957903,-15.862230550116195,0.030527982792316385,0.12497350222079083,-1.637388688243983,0.004469350156791369,0.0088789106398642,-0.08048177715447481,0,70,255.0,255.0,255.0
375,18.75,7.6841,-2.2412,-15.9442,0.030799269946950536,0.12543877453982988,-1.641377572111538,0.00638213602857457,0.009731982121697236,-0.07907357754772448,0,70,255.0,255.0,255.0
376,18.8,7.685647147093483,-2.2349164068399663,-16.026367597038902,0.031070732314316812,0.12589474096930975,-1.6453238386723232,0.004476358666076314,0.008506675057496853,-0.0787770848836871,0,70,255.0,255.0,255.0
377,18.85,7.687205485083629,-2.228611546992289,-16.108732136790014,0.03124690581355817,0.12628944204557957,-1.6492552805999068,0.0025705813035780583,0.0072813679932964715,-0.07848059221964973,0,70,255.0,255.0,255.0
378,18.900000000000002,7.688770249527035,-2.222288483724628,-16.191292878021677,0.031327790444674625,0.1266228777686394,-1.6531718978942884,0.000664803941079802,0.0060560609290960885,-0.07818409955561235,0,70,255.0,255.0,255.0
379,18.95,7.690336675980295,-2.215950280304645,-16.27404907950222,0.031313386207666154,0.12689504813848917,-1.657073690555468,-0.001240973421418318,0.004830753864895793,-0.07788760689157499,0,70,255.0,255.0,255.0
380,19.0,7.6919,-2.2096,-16.357,0.031203693102532785,0.127105953155129,-1.6609606585834458,-0.0031467507839166298,0.003605446800695189,-0.07759111422753762,0,70,255.0,255.0,255.0
381,19.05,7.693457030518138,-2.203240108801753,-16.440144502726234,0.03109311365279157,0.12729142941453775,-1.664809068551396,-0.0012764272057319626,0.003813603575655436,-0.07634528449047905,0,70,255.0,255.0,255.0
382,19.1,7.695010869968262,-2.196870683594567,-16.523479868663696,0.031076050381959586,0.12748731351269454,-1.6685951870324938,0.0005938963724527045,0.004021760350615683,-0.07509945475342046,0,70,255.0,255.0,255.0
383,19.150000000000002,7.696566194159315,-2.1904912039865043,-16.607002983238036,0.03115250329003684,0.12769360544959932,-1.6723190140267385,0.002464219950637372,0.0042299171255759304,-0.07385362501636189,0,70,255.0,255.0,255.0
384,19.200000000000003,7.6981276789002475,-2.1841011495856275,-16.690710731874923,0.031322472377023326,0.12791030522525212,-1.67598054953413,0.004334543528822039,0.004438073900536178,-0.07260779527930332,0,70,255.0,255.0,255.0
385,19.25,7.6997,-2.1777,-16.7746,0.031585957642919035,0.1281374128396529,-1.6795797935546684,0.006204867107006629,0.004646230675496188,-0.07136196554224306,0,70,255.0,255.0,255.0
386,19.3,7.701286330833967,-2.1712871579530213,-16.858667992056166,0.031852813074513986,0.12837954137253693,-1.683135887122087,0.004469350156791394,0.005038910639864641,-0.0708817771544961,0,70,255.0,255.0,255.0
387,19.35,7.702883835043327,-2.1648617186294428,-16.94291318855522,0.032032892658598176,0.1286413039036394,-1.6866679712701182,0.002733833206576159,0.005431590604233094,-0.07040158876674914,0,70,255.0,255.0,255.0
388,19.400000000000002,7.704488173835703,-2.1584227003293535,-17.02733438902619,0.03212619639517161,0.12892270043296025,-1.6901760459987618,0.0009983162563609238,0.005824270568601547,-0.06992140037900219,0,70,255.0,255.0,255.0
389,19.450000000000003,7.7060950084187185,-2.151969121352843,-17.11193039299811,0.032132724284234276,0.12922373096049955,-1.6936601113080183,-0.0007372006938543103,0.00621695053297,-0.06944121199125523,0,70,255.0,255.0,255.0
390,19.5,7.7077,-2.1455,-17.1967,0.03205247632578618,0.12954439548625726,-1.6971201671978873,-0.0024727176440695886,0.006609630497339092,-0.06896102360350476,0,70,255.0,255.0,255.0
391,19.55,7.709300046145994,-2.1390144593861624,-17.281641929049105,0.03195963404914941,0.12987840509531345,-1.700551382960264,-0.0012409734214013416,0.006750753864908579,-0.06828760689156219,0,70,255.0,255.0,255.0
392,19.6,7.710896989858433,-2.1325120418876624,-17.366754577115437,0.03192837898364605,0.13021947087274813,-1.7039489278870437,-9.229198733094572e-06,0.006891877232478065,-0.0676141901796196,0,70,255.0,255.0,255.0
393,19.650000000000002,7.712493910497878,-2.1259923946960813,-17.452036260657216,0.0319587111292761,0.13056759281856128,-1.707312801978226,0.0012225150239351524,0.007033000600047552,-0.06694077346767703,0,70,255.0,255.0,255.0
394,19.700000000000003,7.71409388742488,-2.1194551650029996,-17.537485296132665,0.03205063048603956,0.13092277093275287,-1.7106430052338113,0.0024542592466033995,0.007174123967617038,-0.06626735675573446,0,70,255.0,255.0,255.0
395,19.75,7.7157,-2.1129,-17.6231,0.03220413705393642,0.13128500521532294,-1.7139395376537994,0.0036860034692713928,0.007315247335186292,-0.06559394004378483,0,70,255.0,255.0,255.0
396,19.8,7.717314284582058,-2.106327004502329,-17.70887869174743,0.03235665072888844,0.13162683824621565,-1.7172025810368754,0.0024145435288093916,0.00635807390052284,-0.06492779527924916,0,70,255.0,255.0,255.0
397,19.85,7.7189346055229375,-2.0997381138199067,-17.79481970298305,0.03244559140681736,0.13192081260537525,-1.7204323171817244,0.0011430835883473904,0.005400900465859388,-0.06426165051471348,0,70,255.0,255.0,255.0
398,19.900000000000002,7.720557784172789,-2.0931357208863206,-17.880921368344968,0.032470959087723184,0.1321669282928016,-1.7236287460883466,-0.00012837635211461083,0.004443727031195936,-0.06359550575017782,0,70,255.0,255.0,255.0
399,19.950000000000003,7.72218064188176,-2.0865222186351553,-17.967182022471256,0.0324327537716059,0.13236518530849484,-1.7267918677567422,-0.001399836292576612,0.0034865535965324834,-0.06292936098564215,0,70,255.0,255.0,255.0
400,20.0,7.7238,-2.0799,-18.0536,0.03233097545846553,0.13251558365245483,-1.729921682186911,-0.0026712962330386336,0.0025293801618693212,-0.0622632162211012,0,70,255.0,255.0,255.0
401,20.05,7.725414015525773,-2.0732711226045195,-18.140173703961192,0.032245763035293626,0.13263824191982562,-1.7330222928922203,-0.0007372006938372424,0.0023769505329625383,-0.06176121199126995,0,70,255.0,255.0,255.0
402,20.1,7.727026188049812,-2.066636302832708,-18.226901810952366,0.03225725538908181,0.1327532787057511,-1.736097803386038,0.001196894845364149,0.002224520904055756,-0.0612592077614387,0,70,255.0,255.0,255.0
403,20.150000000000002,7.728641352810964,-2.0599959217586354,-18.31378306596294,0.03236545251983004,0.1328606940102312,-1.7391482136683645,0.00313099038456554,0.002072091275148973,-0.060757203531607455,0,70,255.0,255.0,255.0
404,20.200000000000003,7.730264345048077,-2.053350360456375,-18.400816213982345,0.03257035442753836,0.132960487833266,-1.7421735237391989,0.005065085923766931,0.0019196616462421902,-0.060255199301776204,0,70,255.0,255.0,255.0
405,20.25,7.7319,-2.0467,-18.488,0.03287196111220672,0.13305266017485545,-1.7451737335985418,0.006999181462968296,0.0017672320173356404,-0.05975319507193788,0,70,255.0,255.0,255.0
406,20.3,7.7335512533148485,-2.0400445050795892,-18.5753328924078,0.03315629712994548,0.13318019407447948,-1.7481322473942356,0.004374259246581731,0.003334123967625691,-0.05858735675581597,0,70,255.0,255.0,255.0
407,20.35,7.735213442277815,-2.0333806748492598,-18.662812253207495,0.033309387036864896,0.13338607257161803,-1.7510324692741235,0.0017493370301951668,0.0049010159179157416,-0.057421518439694064,0,70,255.0,255.0,255.0
408,20.400000000000002,7.736880004583355,-2.0267045920791356,-18.75043516780329,0.03333123083296499,0.13367029566627106,-1.753874399238205,-0.0008755851861913973,0.006467907868205791,-0.056255680123572155,0,70,255.0,255.0,255.0
409,20.450000000000003,7.7385443779259315,-2.0200123395393406,-18.838198721599387,0.03322182851824576,0.13403286335843861,-1.7566580372864808,-0.003500507402577962,0.008034799818495843,-0.055089841807450246,0,70,255.0,255.0,255.0
410,20.5,7.7402,-2.0133,-18.9261,0.032981180092707216,0.13447377564812063,-1.7593833834189503,-0.006125429618964451,0.009601691768784892,-0.05392400349133375,0,70,255.0,255.0,255.0
411,20.55,7.74184257121483,-2.006565257077121,-19.014136326407606,0.032745048444918795,0.13489698178225368,-1.762064717530872,-0.003319836292572136,0.007326553596535902,-0.05332936098552955,0,70,255.0,255.0,255.0
412,20.6,7.7434768428389305,-1.9998121977702514,-19.102305976217668,0.03264919646345,0.1352064310077742,-1.7647163195175033,-0.0005142429661798209,0.005051415424286911,-0.05273471847972536,0,70,255.0,255.0,255.0
413,20.650000000000002,7.745109828855615,-1.993046509924821,-19.190607462823934,0.032693624148300814,0.13540212332468235,-1.7673381893788445,0.0022913503602124945,0.0027762772520379207,-0.05214007597392116,0,70,255.0,255.0,255.0
414,20.700000000000003,7.7467485432481995,-1.9862738813862597,-19.279039299620134,0.03287833149947125,0.13548405873297803,-1.7699303271148956,0.005096943686604809,0.0005011390797889301,-0.051545433468116963,0,70,255.0,255.0,255.0
415,20.75,7.7484,-1.9795,-19.3676,0.03320331851696127,0.13545223723266123,-1.772492732725656,0.00790253701299698,-0.0017739990924614535,-0.0509507909623057,0,70,255.0,255.0,255.0
416,20.8,7.750068861825827,-1.9727288666119247,-19.45628820196179,0.03352750909038079,0.13540787879650576,-1.7750328824822585,0.005065085923783956,-3.3835375765327996e-07,-0.050655199301791846,0,70,255.0,255.0,255.0
417,20.85,7.751750386366464,-1.9659577340697338,-19.545103041921845,0.033709827109339674,0.13545220339728548,-1.7775582526558356,0.0022276348345709324,0.001773322384946147,-0.050359607641278,0,70,255.0,255.0,255.0
418,20.900000000000002,7.753437479994187,-1.9591821682215804,-19.634043780900996,0.03375027257383789,0.13558521103500037,-1.7800688432463865,-0.0006098162546420913,0.003546983123649947,-0.05006401598076414,0,70,255.0,255.0,255.0
419,20.950000000000003,7.7551230490812735,-1.9523977349156179,-19.723109679920103,0.033648845483875464,0.13580690170965046,-1.7825646542539118,-0.003447267343855115,0.005320643862353747,-0.04976842432025029,0,70,255.0,255.0,255.0
420,21.0,7.7568,-1.9456,-19.8123,0.0334055458394524,0.1361172754212357,-1.7850456856784114,-0.006284718433068048,0.0070943046010572,-0.049472832659736454,0,70,255.0,255.0,255.0
421,21.05,7.758463581481861,-1.9387856764751794,-19.901613265745226,0.03316091519356082,0.13644750303172443,-1.7874677525400935,-0.003500507402594926,0.0061147998184916865,-0.047409841807541014,0,70,255.0,255.0,255.0
422,21.1,7.760118411695215,-1.9319560659508128,-19.99104505609497,0.0330554950991929,0.13672875540308488,-1.7897866698591656,-0.0007162963721218038,0.005135295035926173,-0.045346850955345575,0,70,255.0,255.0,255.0
423,21.150000000000002,7.761771451167639,-1.9251136171888563,-20.0805902135721,0.03308928555634864,0.13696103253531702,-1.7920024376356278,0.0020679146583513185,0.004155790253360661,-0.04328386010315013,0,70,255.0,255.0,255.0
424,21.200000000000003,7.763429660426708,-1.9182607789512665,-20.17024358069949,0.03326228656502803,0.13714433442842094,-1.7941150558694805,0.004852125688824441,0.0031762854707951477,-0.04122086925095469,0,70,255.0,255.0,255.0
425,21.25,7.7651,-1.9114,-20.26,0.03357449812523106,0.13727866108239656,-1.7961245245607236,0.007636336719297143,0.0021967806882297047,-0.03915787839876117,0,70,255.0,255.0,255.0
426,21.3,7.76678721224673,-1.9045332274873565,-20.34985553505732,0.03389283013537861,0.137394109076597,-1.7981041073573927,0.005096943686604535,0.00242113907978814,-0.04002543346800424,0,70,255.0,255.0,255.0
427,21.35,7.768487166852678,-1.8976604021270138,-20.4398111336983,0.034084192493891524,0.13752077499037538,-1.800127067907524,0.0025575506539119277,0.002645497471346576,-0.0408929885372473,0,70,255.0,255.0,255.0
428,21.400000000000002,7.77019351533526,-1.8907809630229926,-20.52986896481063,0.034148585200769806,0.13765865882373166,-1.8021934062111173,1.8157621219319457e-05,0.0028698558629050115,-0.04176054360649037,0,70,255.0,255.0,255.0
429,21.450000000000003,7.7718999092118946,-1.883894349279314,-20.620031197281975,0.03408600825601346,0.13780776057666588,-1.8043031222681731,-0.002521235411473288,0.0030942142544634474,-0.04262809867573343,0,70,255.0,255.0,255.0
430,21.5,7.7736,-1.877,-20.7103,0.03389646165962249,0.137968080249178,-1.806456216078691,-0.005060628444165938,0.0033185726460209786,-0.043495653744981766,0,70,255.0,255.0,255.0
431,21.55,7.775289169531218,-1.8700974135753934,-20.800676594025525,0.033683764264921964,0.13813606066188736,-1.8085958180303223,-0.0034472673438550195,0.003400643862353282,-0.042088424320268894,0,70,255.0,255.0,255.0
432,21.6,7.776969720894075,-1.8631863255411307,-20.89115840911185,0.033551734925236984,0.13830814463541335,-1.810665058510718,-0.0018339062435441017,0.0034827150786855853,-0.04068119489555602,0,70,255.0,255.0,255.0
433,21.650000000000002,7.778645687491325,-1.8562665307191717,-20.98174192718541,0.03350037364056755,0.13848433216975595,-1.812663937519878,-0.00022054514323318394,0.003564786295017889,-0.03927396547084315,0,70,255.0,255.0,255.0
434,21.700000000000003,7.780321102725717,-1.8493378239314748,-21.07242363017265,0.03352968041091366,0.13866462326491513,-1.8145924550578023,0.0013928159570777343,0.0036468575113501925,-0.03786673604613028,0,70,255.0,255.0,255.0
435,21.75,7.782,-1.8424,-21.1632,0.03363965523627531,0.13884901792089094,-1.816450611124491,0.0030061770573883706,0.003728928727681602,-0.03645950662141395,0,70,255.0,255.0,255.0
436,21.8,7.783685709628399,-1.8354531182110694,-21.2540676888406,0.03378811280493074,0.13902164827585284,-1.8182486205213022,0.0029321256888286784,0.0031762854707950185,-0.03546086925103572,0,70,255.0,255.0,255.0
437,21.85,7.785378749571019,-1.8284982957084621,-21.345024029854326,0.03393286780515818,0.13916664646797045,-1.8199966980495945,0.002858074320268986,0.0026236422139084346,-0.03446223188065749,0,70,255.0,255.0,255.0
438,21.900000000000002,7.787078934699441,-1.8215369141003197,-21.436066526447753,0.03407392023695764,0.1392840124972437,-1.8216948437093679,0.0027840229517092944,0.0020709989570218508,-0.03346359451027925,0,70,255.0,255.0,255.0
439,21.950000000000003,7.788786079885241,-1.8145703549947847,-21.527192682027454,0.034211270100329115,0.13937374636367264,-1.8233430575006226,0.002709971583149602,0.0015183557001352673,-0.03246495713990102,0,70,255.0,255.0,255.0
440,22.0,7.7905,-1.8076,-21.6184,0.034344917395272595,0.13943584806725723,-1.8249413394233578,0.002635920214589804,0.0009657124432496111,-0.03146631976952108,0,70,255.0,255.0,255.0
441,22.05,7.7922199919551876,-1.8006269135803286,-21.709686250612094,0.03444378451535071,0.13948934623470016,-1.8265056998844882,0.0013187645885348411,0.0011742142544680896,-0.031108098675696277,0,70,255.0,255.0,255.0
442,22.1,7.793943280821846,-1.7936508916250204,-21.801050271470874,0.03447679385412608,0.13955326949270405,-1.8280521492909274,1.6089624798780802e-06,0.0013827160656865681,-0.030749877581871476,0,70,255.0,255.0,255.0
443,22.150000000000002,7.795666573710911,-1.7866714128795484,-21.89249116702361,0.0344439454115987,0.13962761784126881,-1.8295806876426755,-0.0013155466635750854,0.0015912178769050466,-0.030391656488046676,0,70,255.0,255.0,255.0
444,22.200000000000003,7.797386577733318,-1.7796879560893841,-21.984008041717566,0.03434523918776857,0.13971239128039456,-1.8310913149397323,-0.002632702289630048,0.0017997196881235251,-0.030033435394221875,0,70,255.0,255.0,255.0
445,22.25,7.7991,-1.7727,-22.0756,0.034180675182635706,0.13980758981008118,-1.8325840311820976,-0.003949857915684918,0.002008221499341545,-0.0296752143003971,0,70,255.0,255.0,255.0
446,22.3,7.800804722550851,-1.7657072274676167,-22.167265708711042,0.03402074913367032,0.13990096678534836,-1.8340325799407595,-0.002447184042930518,0.0017268575113454213,-0.028266736046083433,0,70,255.0,255.0,255.0
447,22.35,7.8025033271415944,-1.7587101377914547,-22.2590020842622,0.03393595677834265,0.13998027556121573,-1.8354107047867059,-0.000944510170176118,0.0014454935233492979,-0.02685825779176976,0,70,255.0,255.0,255.0
448,22.400000000000002,7.8041995704569125,-1.7517094343814847,-22.350805605457836,0.03392629811665271,0.1400455161376833,-1.8367184057199366,0.0005581637025782824,0.0011641295353531746,-0.025449779537456092,0,70,255.0,255.0,255.0
449,22.450000000000003,7.805897209181488,-1.7447058206476764,-22.44267275110232,0.033991773148600475,0.14009668851475104,-1.8379556827404515,0.002060837575332682,0.0008827655473570512,-0.02404130128314242,0,70,255.0,255.0,255.0
450,22.5,7.8076,-1.7377,-22.5346,0.03413238187418596,0.140133792692419,-1.839122535848251,0.0035635114480869756,0.0006014015593605038,-0.02263282302883418,0,70,255.0,255.0,255.0
451,22.55,7.8093107178414085,-1.7306921765492045,-22.626584514543747,0.03428921894996688,0.14018678662390638,-1.84025998035247,0.0027099715831495497,0.0015183557001355783,-0.022864957139922742,0,70,255.0,255.0,255.0
452,22.6,7.811028210611775,-1.7236805572091587,-22.718626191480347,0.03440337903250092,0.14028562826243254,-1.8414090315622433,0.0018564317182121239,0.002435309840910653,-0.0230970912510113,0,70,255.0,255.0,255.0
453,22.650000000000002,7.812750344461439,-1.7166628495945104,-22.810725611145067,0.034474862121788095,0.14043031760799746,-1.8425696894775712,0.001002891853274698,0.0033522639816857274,-0.02332922536209986,0,70,255.0,255.0,255.0
454,22.700000000000003,7.814474985540734,-1.709636761319908,-22.902883353873197,0.03450366821782839,0.14062085466060115,-1.8437419540984532,0.0001493519883372721,0.004269218122460802,-0.023561359473188416,0,70,255.0,255.0,255.0
455,22.75,7.8162,-1.7026,-22.9951,0.03448979732062182,0.1408572394202435,-1.84492582542489,-0.0007041878766000931,0.005186172263235145,-0.023793493584273406,0,70,255.0,255.0,255.0
456,22.8,7.817923606083513,-1.695551266335565,-23.08737543311398,0.03445437506646596,0.14107988671902746,-1.8460794986493527,-0.0007127022896344483,0.003719719688123059,-0.022353435394237287,0,70,255.0,255.0,255.0
457,22.85,7.819645430411303,-1.6884932333719096,-23.179706749816447,0.03441852709165838,0.1412292113890558,-1.8471611689643137,-0.0007212167026688035,0.002253267113010973,-0.02091337720420117,0,70,255.0,255.0,255.0
458,22.900000000000002,7.821365451697336,-1.6814295672404718,-23.272090349961925,0.03438225339619908,0.14130521343032856,-1.8481708363697729,-0.0007297311157031587,0.0007868145378988872,-0.019473319014165054,0,70,255.0,255.0,255.0
459,22.950000000000003,7.823083648655579,-1.674363934072689,-23.364522633404935,0.03434555398008806,0.14130789284284573,-1.8491085008657304,-0.0007382455287375138,-0.0006796380372131984,-0.018033260824128934,0,70,255.0,255.0,255.0
460,23.0,7.8248,-1.6673,-23.457,0.03430842884332532,0.14123724962660722,-1.8499741624521857,-0.000746759941772035,-0.0021460906123267343,-0.01659320263409292,0,70,255.0,255.0,255.0
461,23.05,7.826514857824538,-1.660240358108535,-23.549519353000342,0.034293280784164444,0.141157666499983,-1.850798025050117,0.000140837575337051,-0.0010372344526432384,-0.016361301283164306,0,70,255.0,255.0,255.0
462,23.1,7.828230067743014,-1.6531833093032018,-23.642079609253887,0.03432251260085903,0.1411335261813429,-1.8516102925805022,0.001028435092446137,7.162170704025752e-05,-0.016129399932235694,0,70,255.0,255.0,255.0
463,23.150000000000002,7.829947848749222,-1.6461260814436007,-23.734680189007268,0.03439612429340906,0.141164828670687,-1.852410965043341,0.001916032609555223,0.0011804778667237532,-0.015897498581307082,0,70,255.0,255.0,255.0
464,23.200000000000003,7.831670419836953,-1.6390659023893333,-23.8273205125071,0.03451411586181455,0.14125157396801527,-1.8532000424386328,0.002803630126664309,0.0022893340264072493,-0.015665597230378466,0,70,255.0,255.0,255.0
465,23.25,7.8334,-1.632,-23.92,0.034676487306075476,0.1413937620733277,-1.8539775247663786,0.003691227643773054,0.00339819018609111,-0.015433695879446319,0,70,255.0,255.0,255.0
466,23.3,7.835137762618335,-1.624926501230294,-24.012717554884667,0.03482050179687855,0.14153744728104153,-1.8547124011501932,0.0020693519883498313,0.002349218122461035,-0.013961359473139702,0,70,255.0,255.0,255.0
467,23.35,7.836880698616642,-1.6178471294152819,-24.105470013168016,0.034883422504910465,0.14162868388557381,-1.8553736607136924,0.00044747633292660906,0.0013002460588309598,-0.012489023066833086,0,70,255.0,255.0,255.0
468,23.400000000000002,7.838624753305781,-1.6107645069851226,-24.19825369400904,0.03486524943017121,0.1416674718869246,-1.8559613034568767,-0.0011743993224966132,0.00025127399520088415,-0.011016686660526468,0,70,255.0,255.0,255.0
469,23.450000000000003,7.840365871996613,-1.6036812563699756,-24.291064916566707,0.0347659825726608,0.1416538112850939,-1.8564753293797451,-0.002796274977919836,-0.0007976980684291906,-0.009544350254219852,0,70,255.0,255.0,255.0
470,23.5,7.8421,-1.5966,-24.3839,0.03458562193237925,0.1415877020800817,-1.8569157384822985,-0.004418150633342777,-0.0018466701320596357,-0.008072013847906234,0,70,255.0,255.0,255.0
471,23.55,7.843824491702121,-1.589522436970288,-24.476756027460997,0.0344087120283265,0.14152454437584985,-1.8573283703491,-0.002658245528767131,-0.0006796380372141198,-0.008433260824149262,0,70,255.0,255.0,255.0
472,23.6,7.8455423377904205,-1.5824465730356692,-24.569633138074057,0.034319797379502526,0.1415197382763603,-1.8577590645647135,-0.000898340424191485,0.0004873940576313961,-0.008794507800392292,0,70,255.0,255.0,255.0
473,23.650000000000002,7.847257938027659,-1.5753694906159061,-24.662532234956622,0.034318877985907346,0.141573283781613,-1.858207821129139,0.0008615646803841609,0.0016544261524769118,-0.00915575477663532,0,70,255.0,255.0,255.0
474,23.700000000000003,7.848975692176598,-1.5682882721307618,-24.755454221226124,0.03440595384754095,0.14168518089160798,-1.858674640042377,0.0026214697849598068,0.002821458247322428,-0.009517001752878349,0,70,255.0,255.0,255.0
475,23.75,7.8507,-1.5612,-24.8484,0.03458102496440331,0.14185542960634523,-1.8591595213044267,0.004381374889535272,0.003988490342167417,-0.009878248729119576,0,70,255.0,255.0,255.0
476,23.8,7.85243387057318,-1.5541029508885533,-24.941369535271345,0.03476065008980872,0.14201237521555962,-1.8596061174534146,0.0028036301266811223,0.0022893340264072506,-0.007985597230396707,0,70,255.0,255.0,255.0
477,23.85,7.854174750221678,-1.5470001784420402,-25.034359034535765,0.034861387977071424,0.14208436300898597,-1.8599580810274665,0.0012258853638269724,0.0005901777106470845,-0.006092945731673839,0,70,255.0,255.0,255.0
478,23.900000000000002,7.855918694583586,-1.5398959305512507,-25.12736376616451,0.03488323862619142,0.14207139298662433,-1.860215412026582,-0.0003518593990271771,-0.0011089786051130812,-0.004200294232950971,0,70,255.0,255.0,255.0
479,23.950000000000003,7.857661759296994,-1.532794455106974,-25.22037899852884,0.034826202037168706,0.14197346514847464,-1.8603781104507615,-0.0019296041618813275,-0.0028081349208732478,-0.0023076427342281023,0,70,255.0,255.0,255.0
480,24.0,7.8594,-1.5257,-25.3134,0.0346902782100033,0.141790579494537,-1.860446176300005,-0.003507348924735476,-0.004507291236633293,-0.00041499123549648687,0,70,255.0,255.0,255.0
481,24.05,7.861130426005155,-1.5186153594754987,-25.406422631453637,0.03453268761243734,0.14160995476191043,-1.8604551598372465,-0.002796274977902614,-0.002717698068428983,5.56497458330152e-05,0,70,255.0,255.0,255.0
482,24.1,7.862853861322867,-1.5115375131961688,-25.499445123782913,0.03441065071221303,0.1415188096876941,-1.8604406113254217,-0.002085201031069752,-0.0009281049002246734,0.0005262907271625173,0,70,255.0,255.0,255.0
483,24.150000000000002,7.864572083637999,-1.504461987179089,-25.592466300385365,0.034324167509330365,0.14151714427188797,-1.8604025307645304,-0.0013741270842368898,0.0008614882679796364,0.0009969317084920193,0,70,255.0,255.0,255.0
484,24.200000000000003,7.866286870635422,-1.4973843074413393,-25.685484984658547,0.03427323800378934,0.14160495851449204,-1.8603409181545727,-0.0006630531374040276,0.002651081436183946,0.0014675726898215214,0,70,255.0,255.0,255.0
485,24.25,7.868,-1.4903,-25.7785,0.03425786219558996,0.14178225241550638,-1.860255773495548,4.8020809428672706e-05,0.004440674604388795,0.0019382136711563192,0,70,255.0,255.0,255.0
486,24.3,7.869713225406198,-1.4832060112094512,-25.87151033891412,0.03427659946044893,0.14196380573679918,-1.8601572431975917,0.0007014697849300071,0.0028214582473222944,0.0020029982470958895,0,70,255.0,255.0,255.0
487,24.35,7.8714282044868575,-1.4761049687732841,-25.964515670332617,0.03432800917408296,0.1420643982402386,-1.8600554736708386,0.0013549187604313415,0.0012022418902557937,0.0020677828230354594,0,70,255.0,255.0,255.0
488,24.400000000000002,7.873146570864419,-1.4690009207323913,-26.05751583229406,0.03441209133649206,0.14208402992582472,-1.859950464915288,0.002008367735932676,-0.0004169744668107069,0.00213256739897503,0,70,255.0,255.0,255.0
489,24.450000000000003,7.87486995816132,-1.4618979151276654,-26.150510662837,0.03452884594767624,0.14202270079355755,-1.859842216930941,0.0026618167114340102,-0.002036190823877207,0.0021973519749146,0,70,255.0,255.0,255.0
490,24.5,7.8766,-1.4548,-26.2435,0.034678273007635464,0.14188041084343703,-1.8597307297177967,0.0033152656869352426,-0.0036554071809431488,0.0022621365508435076,0,70,255.0,255.0,255.0
491,24.55,7.878337472370053,-1.447710195686696,-26.336483212889906,0.03480891454576202,0.14171882229089164,-1.8595878673723818,0.0019103958381267684,-0.0028081349208730947,0.0034523572657555405,0,70,255.0,255.0,255.0
492,24.6,7.880079720729702,-1.440627411710694,-26.42945779488665,0.03486931259144814,0.1415995973513497,-1.859385493991221,0.0005055259893182941,-0.0019608626608030406,0.004642577980667573,0,70,255.0,255.0,255.0
493,24.650000000000002,7.881823232904324,-1.4335495298913439,-26.522420770438433,0.03485946714469385,0.1415227360248113,-1.859123609574315,-0.0008993438594901799,-0.001113590400732986,0.005832798695579606,0,70,255.0,255.0,255.0
494,24.700000000000003,7.8835644967192975,-1.426474432047996,-26.615369163993485,0.034779378205499124,0.1414882383112764,-1.8588022141216631,-0.0023042137082986544,-0.000266318140662932,0.007023019410491639,0,70,255.0,255.0,255.0
495,24.75,7.8853,-1.4194,-26.7083,0.034629045773863984,0.141496104210745,-1.8584213076332659,-0.0037090835571070846,0.000580954119405952,0.008213240125403587,0,70,255.0,255.0,255.0
496,24.8,7.8870272851135885,-1.4123244060437645,-26.801210409526274,0.03447174235650174,0.14152890509963484,-1.8579872873128838,-0.0025830531373825464,0.000731081436188321,0.00914757268987715,0,70,255.0,255.0,255.0
497,24.85,7.8887481125943335,-1.405246984383939,-26.894097950120823,0.034370740460125726,0.14156921235436382,-1.8575065503642783,-0.0014570227176580086,0.00088120875297069,0.010081905254350713,0,70,255.0,255.0,255.0
498,24.900000000000002,7.8904652975182845,-1.3981673597022308,-26.986960285952236,0.034326040084735936,0.14161702597493192,-1.8569790967874487,-0.00033099229793347087,0.0010313360697530591,0.011016237818824277,0,70,255.0,255.0,255.0
499,24.950000000000003,7.892181654961491,-1.3910851566803482,-27.0797950811891,0.03433764123033238,0.14167234596133915,-1.8564049265823956,0.0007950381217910673,0.001181463386535428,0.01195057038329784,0,70,255.0,255.0,255.0
500,25.0,7.8939,-1.384,-27.1726,0.034405543896915046,0.14173517231358548,-1.8557840397491192,0.0019210685415154694,0.0013315907033175645,0.012884902947766008,0,70,255.0,255.0,255.0
501,25.05,7.895622187175594,-1.3769121801382445,-27.265372749005014,0.03447211602823804,0.14176555731057128,-1.855118983376053,0.0007418167114042916,-0.00011619082388569617,0.013717351974882431,0,70,255.0,255.0,255.0
502,25.1,7.897346228892967,-1.3698246507535485,-27.358111204630085,0.03447972556805548,0.14172355323119692,-1.854412304551631,-0.00043743511870688624,-0.0015639723510889568,0.014549801001998854,0,70,255.0,255.0,255.0
503,25.150000000000002,7.8990691770225405,-1.3627410312997303,-27.450813285752655,0.03442837251636735,0.14160916007546237,-1.8536640032758531,-0.001616686948818064,-0.0030117538782922174,0.015382250029115276,0,70,255.0,255.0,255.0
504,25.200000000000003,7.900788083434744,-1.3556649412306083,-27.54347691125015,0.034318056873173665,0.1414223778433677,-1.8528740795487193,-0.002795938778929242,-0.004459535405495478,0.0162146990562317,0,70,255.0,255.0,255.0
505,25.25,7.9025,-1.3486,-27.6361,0.03414877863847444,0.14116320653491288,-1.85204253337023,-0.0039751906090404465,-0.005907316932697526,0.017047148083351615,0,70,255.0,255.0,255.0
506,25.3,7.904203166184037,-1.3415484734032568,-27.72868099445369,0.03399179353054096,0.14091286565807895,-1.851200779182886,-0.0023042137082986396,-0.00410631814065849,0.016623019410403467,0,70,255.0,255.0,255.0
507,25.35,7.905900571833805,-1.3345072126018651,-27.82122043135885,0.03391835726764457,0.140752574720847,-1.8503802314291897,-0.0006332368075568332,-0.0023053193486194546,0.016198890737455316,0,70,255.0,255.0,255.0
508,25.400000000000002,7.907596394391552,-1.3274717150988453,-27.91371937103717,0.03392846984978527,0.140682333723217,-1.8495808901091404,0.0010377400931849733,-0.0005043205565804188,0.015774762064507168,0,70,255.0,255.0,255.0
509,25.450000000000003,7.909294811299534,-1.3204374783972166,-28.006178873810327,0.03402213127696307,0.140702142665189,-1.8488027552227388,0.00270871699392678,0.001296678235458617,0.015350633391559019,0,70,255.0,255.0,255.0
510,25.5,7.911,-1.3134,-28.0986,0.03419934154917795,0.1408120015467629,-1.8480458267699849,0.004379693894668524,0.003097677027496859,0.01492650471861623,0,70,255.0,255.0,255.0
511,25.55,7.912714748088255,-1.3063563262487279,-28.190982473180245,0.03437670984959018,0.1409189800571137,-1.847229899892434,0.002715038121820633,0.001181463386534815,0.017710570383420117,0,70,255.0,255.0,255.0
512,25.6,7.914436283771814,-1.2993096988389892,-28.283320669934525,0.03447084536136001,0.14093014788541638,-1.8462747697316428,0.001050382348972742,-0.000734750254427229,0.020494636048224005,0,70,255.0,255.0,255.0
513,25.650000000000002,7.916160445411247,-1.2922649083048865,-28.375607630098692,0.03448174808448745,0.14084550503167098,-1.8451804362876114,-0.0006142734238751488,-0.0026509638953892732,0.023278701713027893,0,70,255.0,255.0,255.0
514,25.700000000000003,7.917883071367119,-1.2852267451805226,-28.46783639350857,0.034409418018972494,0.14066505149587746,-1.84394689956034,-0.0022789291967230396,-0.004567177536351317,0.026062767377831777,0,70,255.0,255.0,255.0
515,25.75,7.9196,-1.2782,-28.56,0.03425385516481517,0.14038878727803586,-1.8425741595498284,-0.003943584969570646,-0.006483391177313225,0.028846833042635467,0,70,255.0,255.0,255.0
516,25.8,7.921308241462942,-1.2711878216018315,-28.652093112825348,0.03408536707110224,0.14011521411346556,-1.8411596212473573,-0.0027959387789462335,-0.00445953540549892,0.027734699056205143,0,70,255.0,255.0,255.0
517,25.85,7.923009493078936,-1.2641867920421765,-28.744116888903058,0.03397426128692054,0.13994283373748598,-1.8398006896442078,-0.001648292588321821,-0.0024356796336846157,0.02662256506977482,0,70,255.0,255.0,255.0
518,25.900000000000002,7.924706623963459,-1.257191851681606,-28.836074108568095,0.03392053781227006,0.1398716461500971,-1.83849736474038,-0.0005006463976974084,-0.00041182386187031076,0.025510431083344495,0,70,255.0,255.0,255.0
519,25.950000000000003,7.926402503231988,-1.2501979408806905,-28.92796755215542,0.0339241966471508,0.13990165135129892,-1.8372496465358732,0.0006469997929270041,0.0016120319099439933,0.02439829709691417,0,70,255.0,255.0,255.0
520,26.0,7.9281,-1.2432,-29.0198,0.03398523779156276,0.14003284934109145,-1.8360575350306887,0.0017946459835513906,0.003635887681757932,0.023286163110485703,0,70,255.0,255.0,255.0
521,26.05,7.929801086059978,-1.2361947873439458,-29.111573075518365,0.03404982186599983,0.14015616348902205,-1.8348516151181398,0.0007887169939311568,0.0012966782354669193,0.024950633391471324,0,70,255.0,255.0,255.0
522,26.1,7.931504143912441,-1.2291863329923027,-29.203283774453247,0.034064109490955875,0.14016251716463815,-1.8335624716915415,-0.0002172119956890769,-0.0010425312108240936,0.026615103672456945,0,70,255.0,255.0,255.0
523,26.150000000000002,7.933206658734916,-1.222180484968687,-29.29492793562895,0.03402810066643092,0.14005191036793965,-1.832190104750894,-0.0012231409853093109,-0.0033817406571151065,0.028279573953442563,0,70,255.0,255.0,255.0
524,26.200000000000003,7.934906115704927,-1.215183091296714,-29.386501397869775,0.033941795392424944,0.13982434309892663,-1.8307345142961973,-0.0022290699749295444,-0.005720950103406119,0.029944044234428185,0,70,255.0,255.0,255.0
525,26.25,7.9366,-1.2082,-29.478,0.033805193668937965,0.1394798153575991,-1.8291957003274513,-0.0032349989645498733,-0.0080601595496963,0.03160851451540303,0,70,255.0,255.0,255.0
526,26.3,7.938286614297145,-1.2012354290223848,-29.569420185101205,0.03366734546490614,0.1391161319304478,-1.8276099182801175,-0.002278929196722876,-0.0064871775363550595,0.031822767377950006,0,70,255.0,255.0,255.0
527,26.35,7.939967531271297,-1.1942870759886106,-29.660760813283964,0.033577300749265675,0.13883109760396356,-1.8260134235896561,-0.001322859428895879,-0.004914195523013819,0.032037020240496976,0,70,255.0,255.0,255.0
528,26.400000000000002,7.941645141096878,-1.1873510084436436,-29.75202134891612,0.033535059522016554,0.13862471237814644,-1.8244062162560677,-0.00036678966106888167,-0.00334121350967258,0.03225127310304395,0,70,255.0,255.0,255.0
529,26.450000000000003,7.943321833948306,-1.180423293932451,-29.84320125636552,0.03354062178315879,0.1384969762529963,-1.8227882962793518,0.0005892801067581156,-0.00176823149633134,0.03246552596559093,0,70,255.0,255.0,255.0
530,26.5,7.945,-1.1735,-29.9343,0.033593987532692354,0.13844788922851325,-1.8211596636595089,0.0015453498745847671,-0.0001952494829899898,0.03267977882813611,0,70,255.0,255.0,255.0
531,26.55,7.946681256751445,-1.1665778965665143,-30.02531658407683,0.03364879627437972,0.138435308789187,-1.8194927117613833,0.0006469997929098842,-0.00030796809006030816,0.03399829709689401,0,70,255.0,255.0,255.0
532,26.6,7.94836413100237,-1.1596565630532536,-30.116248172410916,0.033658687511983344,0.13841709241950723,-1.8177598339498193,-0.0002513502887649987,-0.00042068669713062653,0.03531681536565191,0,70,255.0,255.0,255.0
533,26.650000000000002,7.950046376877575,-1.1527362812567359,-30.20709146870659,0.03362366124550322,0.13839324011947393,-1.815961030224818,-0.001149700370439882,-0.0005334053042009448,0.036635333634409815,0,70,255.0,255.0,255.0
534,26.700000000000003,7.951725748501852,-1.1458173329734787,-30.29784317666818,0.03354371747493935,0.13836375188908712,-1.8140963005863784,-0.0020480504521147645,-0.0006461239112712633,0.03795385190316772,0,70,255.0,255.0,255.0
535,26.75,7.9534,-1.1389,-30.3885,0.03341885620029176,0.1383286277283468,-1.8121656450345012,-0.0029464005337894172,-0.0007588425183411296,0.039272370171932636,0,70,255.0,255.0,255.0
536,26.8,7.955067558697081,-1.1319849847115577,-30.479059078591487,0.033289469437574215,0.13826263291280322,-1.8101952346743426,-0.0022290699749124353,-0.001880950103401629,0.039544044234404656,0,70,255.0,255.0,255.0
537,26.85,7.956729544719224,-1.1250746717983737,-30.569519297072382,0.033195949202800515,0.13814053271800664,-1.8082112406110606,-0.0015117394160354533,-0.0030030576884621284,0.039815718296876676,0,70,255.0,255.0,255.0
538,26.900000000000002,7.958387751392826,-1.118171866529411,-30.659879976257542,0.03313829549597066,0.137962327143957,-1.806213662844655,-0.0007944088571584713,-0.004125165273522627,0.040087392359348696,0,70,255.0,255.0,255.0
539,26.950000000000003,7.960043972044287,-1.111279374173632,-30.750140436961804,0.03311650831708467,0.1377280161906544,-1.8042025013751257,-7.707829828148931e-05,-0.005247272858583127,0.040359066421820716,0,70,255.0,255.0,255.0
540,27.0,7.9617,-1.1044,-30.8403,0.03313058766614252,0.13743759985809875,-1.8021777562024732,0.0006402522605956085,-0.006369380443643768,0.0406307404843016,0,70,255.0,255.0,255.0
541,27.05,7.963357308460236,-1.097535764587255,-30.930357501557236,0.03316132597532593,0.13713815955959938,-1.8001103495412263,0.000589280106740863,-0.005608231496331351,0.042065525965569985,0,70,255.0,255.0,255.0
542,27.1,7.965016090120738,-1.0906855497532504,-31.020309839299557,0.033189515676816606,0.13687677670846563,-1.7979712036059161,0.0005383079528861176,-0.004847082549018934,0.043500311446838365,0,70,255.0,255.0,255.0
543,27.150000000000002,7.9666762175511225,-1.0838474526256185,-31.11015342626326,0.03321515677061454,0.13665345130469747,-1.7957603183965425,0.0004873357990313721,-0.004085933601706516,0.04493509692810675,0,70,255.0,255.0,255.0
544,27.200000000000003,7.968337563321004,-1.0770195703319911,-31.199884675484647,0.03323824925671975,0.13646818334829494,-1.7934776939131054,0.0004363636451766266,-0.0033247846543940983,0.04636988240937513,0,70,255.0,255.0,255.0
545,27.25,7.97,-1.0702,-31.2895,0.033258793135132206,0.13632097283925804,-1.7911233301556049,0.0003853914913219958,-0.002563635707081957,0.0478046678906523,0,70,255.0,255.0,255.0
546,27.3,7.971663207461977,-1.0633871569394227,-31.37899651517958,0.0332652266611127,0.1361927288487992,-1.7887393671607597,-0.0001280504521020316,-0.002566123911270779,0.04755385190314882,0,70,255.0,255.0,255.0
547,27.35,7.973326094797825,-1.0565807291886236,-31.468374145729403,0.033245988089922,0.13606436044813094,-1.7863679449652898,-0.000641492395526059,-0.002568612115459601,0.047303035915645344,0,70,255.0,255.0,255.0
548,27.400000000000002,7.974987378402684,-1.0497807229681129,-31.557633518689435,0.0332010774215601,0.13593586763725324,-1.7840090635691952,-0.0011549343389500864,-0.002571100319648423,0.04705221992814187,0,70,255.0,255.0,255.0
549,27.450000000000003,7.976645774671695,-1.0429871444984016,-31.646775261099645,0.03313049465602699,0.13580725041616612,-1.7816627229724757,-0.0016683762823741137,-0.0025735885238372448,0.04680140394063839,0,70,255.0,255.0,255.0
550,27.5,7.9783,-1.0362,-31.7358,0.03303423979332269,0.1356785087848695,-1.7793289231751312,-0.0021818182257981045,-0.0025760767280267327,0.046550587953140266,0,70,255.0,255.0,255.0
551,27.55,7.979949061691854,-1.0294196076550541,-31.824707637724455,0.03292976738022124,0.13553092504520425,-1.7769641818157542,-0.0019970782982599218,-0.0033272728585833295,0.04803906642194102,0,70,255.0,255.0,255.0
552,27.6,7.981593130687962,-1.022647533492255,-31.913495177782853,0.0328345319634967,0.13534578149901116,-1.7745250165329371,-0.001812338370721739,-0.004078468989139926,0.04952754489074178,0,70,255.0,255.0,255.0
553,27.650000000000002,7.983232668838143,-1.0158856555019284,-32.00215889897903,0.032748533543149064,0.13512307814629027,-1.77201142732668,-0.0016275984431835565,-0.004829665119696524,0.051016023359542535,0,70,255.0,255.0,255.0
554,27.700000000000003,7.984868137992216,-1.0091358516744011,-32.0906950801168,0.032671772119178336,0.1348628149870415,-1.7694234141969827,-0.0014428585156453738,-0.00558086125025312,0.05250450182834329,0,70,255.0,255.0,255.0
555,27.75,7.9865,-1.0024,-32.1791,0.03260424769158452,0.13456499202126493,-1.7667609771438457,-0.0012581185881073709,-0.006332057380811218,0.0539929802971546,0,70,255.0,255.0,255.0
556,27.8,7.988128545770608,-0.99567921244036,-32.26737053392261,0.03253570381801051,0.13427557097038473,-1.764059905576186,-0.001483636354852994,-0.005244784654396624,0.05404988240922855,0,70,255.0,255.0,255.0
557,27.85,7.989753382450329,-0.988971536842356,-32.35550594313919,0.03245588405609922,0.13404051355582527,-1.7613559889029229,-0.001709154121598617,-0.00415751192798203,0.054106784521302485,0,70,255.0,255.0,255.0
558,27.900000000000002,7.991373946244746,-0.982274255024172,-32.443506085394475,0.03236478840585065,0.13385981977758654,-1.7586492271240557,-0.00193467188834424,-0.0030702392015674353,0.05416368663337643,0,70,255.0,255.0,255.0
559,27.950000000000003,7.992989673359442,-0.9755846488039918,-32.531370818433174,0.0322624168672648,0.1337334896356685,-1.7559396202395852,-0.0021601896550898633,-0.0019829664751528416,0.054220588745450375,0,70,255.0,255.0,255.0
560,28.0,7.9946,-0.9689,-32.6191,0.03214876944034166,0.13366152313007124,-1.753227168249511,-0.0023857074218357477,-0.0008956937487387684,0.05427749085752254,0,70,255.0,255.0,255.0
561,28.05,7.9962047552257145,-0.9622187425835053,-32.706692626585124,0.03204741734773599,0.13357479107325684,-1.7504601958795543,-0.0016683762823911717,-0.002573588523837535,0.05640140394075391,0,70,255.0,255.0,255.0
562,28.1,7.997805339510724,-0.95554391913832,-32.794144249660384,0.031981931812102536,0.1334041642776875,-1.7475870278554355,-0.0009510451429465957,-0.004251483298936301,0.058525317023985286,0,70,255.0,255.0,255.0
563,28.150000000000002,7.999403546182875,-0.9488797244013822,-32.881449559443105,0.031952312833441326,0.1331496427433632,-1.7446076641771555,-0.00023371400350201974,-0.005929378074035068,0.06064923010721666,0,70,255.0,255.0,255.0
564,28.200000000000003,8.001001168570017,-0.9422303531096294,-32.96860324615054,0.03195856041175234,0.13281122647028396,-1.741522104844714,0.00048361713594255624,-0.007607272849133834,0.06277314319044804,0,70,255.0,255.0,255.0
565,28.25,8.0026,-0.9356,-33.0556,0.03200067454703557,0.13238891545844983,-1.7383303498581109,0.001200948275386915,-0.009285167624232926,0.06489705627367925,0,70,255.0,255.0,255.0
566,28.3,8.004201233326533,-0.9289914172256185,-33.14243575973692,0.032042626791030274,0.1319692647365877,-1.7351073109055593,0.000477141484401212,-0.007500861250251553,0.06402450182838917,0,70,255.0,255.0,255.0
