idx,t,px,py,pz,vx,vy,vz,ax,ay,az,yaw,mode,ledr,ledg,ledb
0,0.0,-1.5,0.0,0.0,-8.71411579093316e-21,1.934029318460662e-88,0.017974594246339348,1.0456938949119793e-19,-2.3208351821527945e-87,-0.5084951309560722,0,70,255.0,255.0,255.0
1,0.05,-1.5,6.962505546458385e-90,0.00026468539286821644,-4.008493263829253e-21,8.896534864919045e-89,-0.007355686646683905,8.365551159295834e-20,-1.8566681457222356e-87,-0.5047161047648578,0,70,255.0,255.0,255.0
2,0.1,-1.5,9.283340728611179e-90,-0.0007324194761757119,-3.4856463163732576e-22,7.736117273842652e-90,-0.03249701623014644,6.274163369471875e-20,-1.3925011092916768e-87,-0.5009370785736433,0,70,255.0,255.0,255.0
3,0.15000000000000002,-1.5,8.122923137534779e-90,-0.002981867041653749,2.265670105642622e-21,-5.028476227997726e-89,-0.05744939450404825,4.1827755796479163e-20,-9.283340728611175e-88,-0.49715805238242894,0,70,255.0,255.0,255.0
4,0.2,-1.5,4.6416703643055875e-90,-0.006474209738087858,3.834210948010591e-21,-8.50972900122691e-89,-0.08221282146838933,2.0913877898239576e-20,-4.6416703643055886e-88,-0.4933790261912145,0,70,255.0,255.0,255.0
5,0.25,-1.5,0.0,-0.0112,4.35705789546658e-21,-9.67014659230331e-89,-0.10678729712316967,0.0,0.0,-0.4895999999999998,0,70,255.0,255.0,255.0
6,0.30000000000000004,-1.5,-4.641670364305593e-90,-0.01714979026191215,3.8342109480105894e-21,-8.50972900122691e-89,-0.13117282146838932,-2.0913877898239603e-20,4.641670364305593e-88,-0.4858209738087854,0,70,255.0,255.0,255.0
7,0.35000000000000003,-1.5,-8.122923137534782e-90,-0.024314132958346255,2.26567010564262e-21,-5.0284762279977184e-89,-0.15536939450404824,-4.182775579647919e-20,9.283340728611182e-88,-0.4820419476175711,0,70,255.0,255.0,255.0
8,0.4,-1.5,-9.283340728611179e-90,-0.032683580523824286,-3.48564631637328e-22,7.73611727384268e-90,-0.1793770162301464,-6.274163369471876e-20,1.392501109291677e-87,-0.4782629214263567,0,70,255.0,255.0,255.0
9,0.45,-1.5,-6.962505546458384e-90,-0.04224868539286821,-4.008493263829256e-21,8.89653486491905e-89,-0.20319568664668392,-8.365551159295835e-20,1.8566681457222356e-87,-0.47448389523514234,0,70,255.0,255.0,255.0
10,0.5,-1.5,0.0,-0.053,-8.71411579093316e-21,1.934029318460662e-88,-0.22682540575366067,-1.0456938949119791e-19,2.3208351821527945e-87,-0.4707048690439266,0,70,255.0,255.0,255.0
11,0.55,-1.5,1.1604175910763984e-89,-0.06492632434521964,-1.1328350528213108e-20,2.514238113998861e-88,-0.2501610274797589,1.0833355937178202e-34,-2.2323972485981933e-102,-0.4627199999999996,0,70,255.0,255.0,255.0
12,0.6000000000000001,-1.5,2.320835182152796e-89,-0.0780094486904393,-8.714115790933153e-21,1.93402931846066e-88,-0.27309740575366065,1.0456938949119813e-19,-2.320835182152799e-87,-0.45473513095607254,0,70,255.0,255.0,255.0
13,0.65,-1.5,2.9010439776909935e-89,-0.0922294108630491,-8.714115790933121e-22,1.9340293184606666e-89,-0.2956345405753661,2.0913877898239593e-19,-4.64167036430559e-87,-0.4467502619121455,0,70,255.0,255.0,255.0
14,0.7000000000000001,-1.5,2.3208351821527922e-89,-0.10756624869043929,1.2199762107306448e-20,-2.707641045844932e-88,-0.3177724319448752,3.1370816847359394e-19,-6.962505546458387e-87,-0.4387653928682185,0,70,255.0,255.0,255.0
15,0.75,-1.5,0.0,-0.124,3.049940526826606e-20,-6.769102614612317e-88,-0.3395110798621879,4.1827755796479166e-19,-9.283340728611178e-87,-0.43078052382429144,0,70,255.0,255.0,255.0
16,0.8,-1.5,-4.177503327875034e-89,-0.1415121123572093,4.147919116484184e-20,-9.205979555872752e-88,-0.3609350686125756,2.091387789823918e-20,-4.6416703643055104e-88,-0.4261790261912144,0,70,255.0,255.0,255.0
17,0.8500000000000001,-1.5,-8.471048414857706e-89,-0.16008967227989668,3.2590793058089994e-20,-7.233269651042868e-88,-0.3821289824813094,-3.764498021683133e-19,8.355006655750076e-87,-0.42157752855813735,0,70,255.0,255.0,255.0
18,0.9,-1.5,-1.0675841837902854e-88,-0.17972117602397936,3.834210948010582e-21,-8.509729001226888e-89,-0.4030928214683893,-7.738134822348648e-19,1.7174180347930683e-86,-0.4169760309250603,0,70,255.0,255.0,255.0
19,0.9500000000000001,-1.5,-8.587090173965332e-89,-0.20039511984537475,-4.479055516539652e-20,9.940910696887826e-88,-0.4238265855738154,-1.1711771623014173e-18,2.599335404011131e-86,-0.41237453329198326,0,70,255.0,255.0,255.0
20,1.0,-1.5,0.0,-0.2221,-1.1328350528213108e-19,2.5142381139988607e-87,-0.44433027479758763,-1.5685408423679687e-18,3.481252773229191e-86,-0.4077730356589071,0,70,255.0,255.0,255.0
21,1.05,-1.5,1.554959572042374e-88,-0.24482282622594312,-1.5458841413115427e-19,3.430968010949214e-87,-0.46451469806993884,-8.36555115929571e-20,1.8566681457222042e-87,-0.39960389523514184,0,70,255.0,255.0,255.0
22,1.1,-1.5,3.1563358477278033e-88,-0.26854466218997414,-1.216490564414268e-19,2.699904928571082e-87,-0.48429066432110185,1.4012298191820545e-18,-3.1099191440847504e-86,-0.39143475481137663,0,70,255.0,255.0,255.0
23,1.1500000000000001,-1.5,3.9802323373920417e-88,-0.2932450850410336,-1.4465432212948645e-20,3.210488668644608e-88,-0.5036581735510766,2.8861151499570662e-18,-6.4055051027417205e-86,-0.38326561438761136,0,70,255.0,255.0,255.0
24,1.2000000000000002,-1.5,3.2027525513708504e-88,-0.31890367192806196,1.6696245855428002e-19,-3.7056001741706443e-87,-0.522617225759863,4.371000480732078e-18,-9.701091061398692e-86,-0.3750964739638461,0,70,255.0,255.0,255.0
25,1.25,-1.5,0.0,-0.3455,4.2263461586025824e-19,-9.380042194534211e-87,-0.5411678209474611,5.855885811507082e-18,-1.299667702005565e-85,-0.366927333540076,0,70,255.0,255.0,255.0
26,1.3,-1.5,-5.802087955381992e-88,-0.37301498273901823,5.768744653597752e-19,-1.2803274088209584e-86,-0.5593901391076684,3.137081684735885e-19,-6.962505546458285e-87,-0.3619653928682176,0,70,255.0,255.0,255.0
27,1.35,-1.5,-1.177823854942544e-87,-0.401434878960207,4.54005432707617e-19,-1.007629274918004e-86,-0.577364360234283,-5.228469474559905e-18,1.1604175910763994e-85,-0.3570034521963592,0,70,255.0,255.0,255.0
28,1.4000000000000001,-1.5,-1.4853345165777886e-87,-0.43074728381188665,5.4027517903784035e-20,-1.1990981774455811e-87,-0.5950904843273044,-1.0770647117593397e-17,2.3904602376173816e-85,-0.3520415115245008,0,70,255.0,255.0,255.0
29,1.4500000000000002,-1.5,-1.195230118808687e-87,-0.4609397924423776,-6.230592790517238e-19,1.3828309626993794e-86,-0.612568511386733,-1.631282476062689e-17,3.620502884158364e-85,-0.3470795708526424,0,70,255.0,255.0,255.0
30,1.5,-1.5,0.0,-0.492,-1.5772549581589018e-18,3.5005930664137986e-86,-0.6297984414125685,-2.185500240366036e-17,4.85054553069934e-85,-0.34211763018077956,0,70,255.0,255.0,255.0
31,1.55,-1.5,2.1653392249485596e-87,-0.5239148428179841,-2.1529094473079464e-18,4.778212834188912e-86,-0.6467407454993876,-1.1711771623013975e-18,2.5993354040110844e-86,-0.33557453329198433,0,70,255.0,255.0,255.0
32,1.6,-1.5,4.395661834997396e-87,-0.5566686219691981,-1.6943726743890414e-18,3.7605266068149065e-86,-0.6633558947417669,1.9512648079057566e-17,-4.3306784498971234e-85,-0.3290314364031891,0,70,255.0,255.0,255.0
33,1.6500000000000001,-1.5,5.543314832571952e-87,-0.5902449797114202,-2.0164463940218783e-19,4.475343842917847e-87,-0.6796438891397065,4.0196473320416524e-17,-8.921290440195357e-85,-0.3224883395143939,0,70,255.0,255.0,255.0
34,1.7000000000000002,-1.5,4.4606452200976635e-87,-0.6246275583024282,2.325274657652615e-18,-5.1607638333804555e-86,-0.6956047286932063,6.088029856177549e-17,-1.3511902430493588e-84,-0.31594524262559864,0,70,255.0,255.0,255.0
35,1.75,-1.5,0.0,-0.6598,5.886385216775349e-18,-1.3064368046201773e-85,-0.7112384134022662,8.156412380313438e-17,-1.8102514420791795e-84,-0.30940214573679903,0,70,255.0,255.0,255.0
36,1.8,-1.5,-8.081148104256038e-87,-0.6957456459890456,8.034763323872012e-18,-1.7832523927934688e-85,-0.7265268788947822,4.3710004807320106e-18,-9.701091061398538e-86,-0.3021364739638404,0,70,255.0,255.0,255.0
37,1.85,-1.5,-1.640482348504704e-86,-0.7324466331630008,6.323485264848552e-18,-1.4034477152341626e-85,-0.7414520607986502,-7.282212284167036e-17,1.6162296208512088e-84,-0.29487080219088174,0,70,255.0,255.0,255.0
38,1.9000000000000001,-1.5,-2.068792481371002e-86,-0.7698847973424332,7.525510397049665e-19,-1.6702277194225845e-86,-0.7560139591138704,-1.5001524616407275e-16,3.329470152316403e-84,-0.2876051304179231,0,70,255.0,255.0,255.0
39,1.9500000000000002,-1.5,-1.6647350761581962e-86,-0.8080419743479105,-8.678039351558732e-18,1.9260224370822435e-85,-0.7702125738404426,-2.272083694864751e-16,5.042710683781597e-84,-0.2803394586449645,0,70,255.0,255.0,255.0
40,2.0,-1.5,0.0,-0.8469,-2.1968285908942496e-17,4.875687911839329e-85,-0.7840479049783668,-3.044014928088771e-16,6.755951215246784e-84,-0.27307378687200945,0,70,255.0,255.0,255.0
41,2.0500000000000003,-1.5,3.015925319207574e-86,-0.8864417732258338,-2.99861438481801e-17,6.655188287754985e-85,-0.7975837389214833,-1.6312824760625283e-17,3.6205028841580135e-85,-0.26835957085264145,0,70,255.0,255.0,255.0
42,2.1,-1.5,6.122363210519076e-86,-0.9266544453787989,-2.359956838500516e-17,5.237738200255158e-85,-0.8108838620636311,2.71775843287624e-16,-6.031850638415124e-84,-0.2636453548332735,0,70,255.0,255.0,255.0
43,2.15,-1.5,7.720838442226807e-86,-0.9675262309188472,-2.8085595194177923e-18,6.233376493398839e-86,-0.8239482744048104,5.598645113358732e-16,-1.2425751565246048e-83,-0.25893113881390556,0,70,255.0,255.0,255.0
44,2.2,-1.5,6.212875782623018e-86,-1.0090453443059306,3.238688274858234e-17,-7.188013364990931e-85,-0.8367769759450215,8.479531793841251e-16,-1.881965249207703e-83,-0.25421692279453756,0,70,255.0,255.0,255.0
45,2.25,-1.5,0.0,-1.0512,8.198675841899464e-17,-1.819631484273714e-84,-0.8493699666842643,1.1360418474323744e-15,-2.5213553418907964e-83,-0.24950270677517228,0,70,255.0,255.0,255.0
46,2.3000000000000003,-1.5,-1.125558646640469e-85,-1.09397686110762,1.1190981206884838e-16,-2.4837500758226472e-84,-0.8616341654192837,6.088029856176976e-17,-1.3511902430492326e-84,-0.24106524262560014,0,70,255.0,255.0,255.0
47,2.35,-1.5,-2.2848970493571606e-85,-1.1373563853218038,8.80747882751721e-17,-1.9547505085786475e-84,-0.8734764909468243,-1.014281250308825e-15,2.2511172932809286e-83,-0.23262777847602809,0,70,255.0,255.0,255.0
48,2.4000000000000004,-1.5,-2.881456128753625e-85,-1.1813174789821779,1.0481687037965318e-17,-2.3263278254170543e-85,-0.8848969432668866,-2.08944279917943e-15,4.637353610866802e-83,-0.22419031432645595,0,70,255.0,255.0,255.0
49,2.45,-1.5,-2.3186768054333884e-85,-1.2258390484283677,-1.2086949164277061e-16,2.682603102288148e-84,-0.89589552237947,-3.1646043480500244e-15,7.023589928452654e-83,-0.21575285017688386,0,70,255.0,255.0,255.0
50,2.5,-1.5,0.0,-1.2709,-3.0597874776703605e-16,6.790957145910923e-84,-0.906472228284575,-4.2397658969206205e-15,9.409826246038507e-83,-0.20731538602730915,0,70,255.0,255.0,255.0
51,2.5500000000000003,-1.5,4.200642054641118e-85,-1.316481182343687,-4.176531044272135e-16,9.269481474515092e-84,-0.9167435994013818,-2.272083694864534e-16,5.042710683781122e-84,-0.20353945864496586,0,70,255.0,255.0,255.0
52,2.6,-1.5,8.527351876376735e-85,-1.3625712133339862,-3.286995847156833e-16,7.2952282142890745e-84,-0.9268261741490715,3.7853491579476774e-15,-8.401284109282204e-83,-0.1997635312626226,0,70,255.0,255.0,255.0
53,2.6500000000000004,-1.5,1.075374067079182e-84,-1.4091606531524425,-3.9118188632443616e-17,8.68197365232837e-85,-0.9367199525276442,7.797906685381845e-15,-1.7306839286942597e-82,-0.1959876038802793,0,70,255.0,255.0,255.0
54,2.7,-1.5,8.653419643471248e-85,-1.4562400619805989,4.510910838225001e-16,-1.0011611072653502e-83,-0.9464249345370995,1.1810464212815975e-14,-2.6212394464602914e-82,-0.19221167649793605,0,70,255.0,255.0,255.0
55,2.75,-1.5,0.0,-1.5038,1.1419282326491497e-15,-2.534419709936998e-83,-0.9559411201774376,1.5823021740250105e-14,-3.5117949642263226e-82,-0.18843574911558658,0,70,255.0,255.0,255.0
56,2.8000000000000003,-1.5,-1.5677009571924005e-84,-1.5518288095176327,1.5587026056400056e-15,-3.459417582223772e-83,-0.9651354369751907,8.479531793840417e-16,-1.8819652492075247e-83,-0.17933692279453317,0,70,255.0,255.0,255.0
57,2.85,-1.4999999999999998,-3.1824510456149776e-84,-1.6003059613422517,1.2267235505875605e-15,-2.722616234857765e-83,-0.9738748124568909,-1.4127115381481889e-14,3.1354019143847884e-82,-0.17023809647347984,0,70,255.0,255.0,255.0
58,2.9000000000000004,-1.4999999999999998,-4.0133506554413647e-84,-1.6492087084080547,1.459910674918089e-16,-3.2401566783896617e-84,-0.9821592466225386,-2.9102183942347945e-14,6.459000353690359e-82,-0.1611392701524264,0,70,255.0,255.0,255.0
59,2.95,-1.5,-3.229500176845161e-84,-1.698514303649238,-1.6834948436472297e-15,3.736384118832585e-83,-0.9899887394721336,-4.407725250321388e-14,9.7825987929959e-82,-0.15204044383137308,0,70,255.0,255.0,255.0
60,3.0,-1.5,0.0,-1.7482,-4.261734182829563e-15,9.4585831251569e-83,-0.9973632910056758,-5.90523210640798e-14,1.310619723230144e-81,-0.1429416175103153,0,70,255.0,255.0,255.0
61,3.0500000000000003,-1.5000000000000002,5.85073962330549e-84,-1.798245179585783,-5.817157318132809e-15,1.2910722181443577e-82,-1.0044106526978558,-3.164604348049723e-15,7.023589928451979e-83,-0.13895285017687903,0,70,255.0,255.0,255.0
62,3.1,-1.5000000000000004,1.1877068994822237e-83,-1.8486377412970079,-4.57819461763456e-15,1.0160942118002152e-82,-1.0112585760233637,5.2723112367979855e-14,-1.1701479246610937e-81,-0.13496408284344277,0,70,255.0,255.0,255.0
63,3.1500000000000004,-1.5000000000000007,1.4978028554686277e-83,-1.8993677132153415,-5.448460813347938e-16,1.2092429348325766e-83,-1.0179070609821999,1.0861082908400995e-13,-2.410531748606718e-81,-0.13097531551000646,0,70,255.0,255.0,255.0
64,3.2,-1.5000000000000004,1.205265874303351e-83,-1.95042512342245,6.282888290766418e-15,-1.3944375368064996e-82,-1.0243561075743646,1.6449854580003952e-13,-3.6509155725523315e-81,-0.1269865481765702,0,70,255.0,255.0,255.0
65,3.25,-1.5,0.0,-2.0018,1.59050084986691e-14,-3.52999127906906e-82,-1.0306057157998567,2.2038626251606913e-13,-4.891299396497944e-81,-0.12299778084313218,0,70,255.0,255.0,255.0
66,3.3000000000000003,-1.499999999999999,-2.1835257536029563e-83,-2.0534808721392364,2.170992666689123e-14,-4.818347114355054e-82,-1.0365659522333839,1.1810464212814825e-14,-2.6212394464600363e-82,-0.11541167649794698,0,70,255.0,255.0,255.0
67,3.35,-1.499999999999998,-4.432582493367397e-83,-2.105450273469717,1.7086054919950674e-14,-3.7921152237150847e-82,-1.0421468834496515,-1.967653340904376e-13,4.367051507205896e-81,-0.10782557215276184,0,70,255.0,255.0,255.0
68,3.4000000000000004,-1.4999999999999976,-5.589876356330375e-83,-2.15768923873058,2.0333932578473594e-15,-4.512956071491334e-83,-1.0473485094486599,-4.053411323936919e-13,8.996226959057835e-81,-0.10023946780757663,0,70,255.0,255.0,255.0
69,3.45,-1.499999999999998,-4.4981134795288906e-83,-2.210178802660962,-2.344805831941845e-14,5.2041117353427386e-82,-1.0521708302304091,-6.139169306969444e-13,1.3625402410909735e-80,-0.0926533634623915,0,70,255.0,255.0,255.0
70,3.5,-1.5,0.0,-2.2629,-5.935829981184684e-14,1.3174106803760551e-81,-1.0566138457948993,-8.224927290001968e-13,1.8254577862761632e-80,-0.08506725911721169,0,70,255.0,255.0,255.0
71,3.5500000000000003,-1.5000000000000038,8.149029052081276e-83,-2.315834531857273,-8.102254934943213e-14,1.798231623927586e-81,-1.0607175383686136,-4.407725250320977e-14,9.782598792994933e-82,-0.07908044383136317,0,70,255.0,255.0,255.0
72,3.6,-1.5000000000000075,1.6542623073987365e-82,-2.3689667648241235,-6.376602506216819e-14,1.4152366683060123e-81,-1.0645218901780356,7.343382239937704e-13,-1.6298058104162488e-80,-0.07309362854551472,0,70,255.0,255.0,255.0
73,3.6500000000000004,-1.5000000000000095,2.0861702569852875e-82,-2.422281731862338,-7.588726950054658e-15,1.6842581351132825e-82,-1.0680269012231651,1.5127537004907575e-12,-3.3574376087624623e-80,-0.0671068132596662,0,70,255.0,255.0,255.0
74,3.7,-1.5000000000000075,1.6787188043812218e-82,-2.4757644659337017,8.750934498690734e-14,-1.942200940456446e-81,-1.0712325715040023,2.2911691769877374e-12,-5.085069407108661e-80,-0.06111999797381776,0,70,255.0,255.0,255.0
75,3.75,-1.5,0.0,-2.5294,2.2152819074871829e-13,-4.916643593597315e-81,-1.0741389010205469,3.069584653484718e-12,-6.81270120545486e-80,-0.05513318268797285,0,70,255.0,255.0,255.0
76,3.8000000000000003,-1.4999999999999862,-3.0412590454722154e-82,-2.5831730004316746,3.023802707308373e-13,-6.711091784274839e-81,-1.0767238942921604,1.644985458000239e-13,-3.650915572551982e-81,-0.04826654817656891,0,70,255.0,255.0,255.0
77,3.85,-1.4999999999999722,-6.173790980258207e-82,-2.63706666723379,2.3797804532872205e-13,-5.281735150852541e-81,-1.0789655558382036,-2.7405875618846442e-12,6.082518090944406e-80,-0.04139991366516503,0,70,255.0,255.0,255.0
78,3.9000000000000004,-1.4999999999999647,-7.78569339230811e-82,-2.6910638338200688,2.8321514542371324e-14,-6.28573693330398e-82,-1.080863885658677,-5.6456736695693386e-12,1.2530127739144067e-79,-0.034533279153761094,0,70,255.0,255.0,255.0
79,3.95,-1.4999999999999718,-6.265063869571996e-82,-2.745147333604231,-3.265893216282109e-13,7.248392588291508e-81,-1.08241888375358,-8.550759777254006e-12,1.897773738734367e-79,-0.027666644642357217,0,70,255.0,255.0,255.0
80,4.0,-1.5,0.0,-2.7993,-8.267544631830263e-13,1.8349163694013204e-80,-1.0836305501229127,-1.1455845884938674e-11,2.5425347035543273e-79,-0.020800010130956892,0,70,255.0,255.0,255.0
81,4.05,-1.500000000000051,1.135013327668062e-81,-2.8535054664160304,-1.1284985335739165e-12,2.5046135513171765e-80,-1.0845468844627466,-6.13916930696982e-13,1.3625402410910558e-80,-0.01585336346240391,0,70,255.0,255.0,255.0
82,4.1000000000000005,-1.5000000000001037,2.3040901613634177e-81,-2.9077505662407184,-8.881461562527154e-13,1.971170393510405e-80,-1.085215886469153,1.02280120235449e-11,-2.2700266553361593e-79,-0.010906716793850838,0,70,255.0,255.0,255.0
83,4.15,-1.500000000000131,2.9056603312247156e-81,-2.9620229328573893,-1.0569733121943079e-13,2.3458689598102666e-81,-1.0856375561421316,2.1069940977786594e-11,-4.676307334781381e-79,-0.005960070125297855,0,70,255.0,255.0,255.0
84,4.2,-1.5000000000001055,2.338153667390676e-81,-3.016310199649374,1.2188479415259363e-12,-2.705136941270958e-80,-1.0858118934816827,3.1911869932028284e-11,-7.082588014226603e-79,-0.0010134234567448705,0,70,255.0,255.0,255.0
85,4.25,-1.5,0.0,-3.0706,3.0854896619833868e-12,-6.84800111824555e-80,-1.085738898487806,4.275379888626998e-11,-9.488868693671822e-79,0.003933223211809889,0,70,255.0,255.0,255.0
86,4.3,-1.499999999999809,-4.235927406125029e-81,-3.124878733904203,4.211613863564829e-12,-9.34734502684122e-80,-1.0853445678568556,2.2911691769878828e-12,-5.085069407108956e-80,0.011840002026198676,0,70,255.0,255.0,255.0
87,4.3500000000000005,-1.4999999999996123,-8.598981547427847e-81,-3.179127867803341,3.3146065796821413e-12,-7.35650805895637e-80,-1.0845548982851863,-3.8171460532294936e-11,8.47185481225019e-79,0.0197467808405876,0,70,255.0,255.0,255.0
88,4.4,-1.4999999999995115,-1.084407198566805e-80,-3.2333276347503768,3.944678103353507e-13,-8.754902145910654e-81,-1.083369889772797,-7.863409024157704e-11,1.7452216565211116e-78,0.02765355965497639,0,70,255.0,255.0,255.0
89,4.45,-1.4999999999996068,-8.726108282605507e-81,-3.287458267798275,-4.548802444475535e-12,1.0095708506254687e-79,-1.0817895423196886,-1.1909671995085911e-10,2.643257831817204e-78,0.035560338469365176,0,70,255.0,255.0,255.0
90,4.5,-1.5,0.0,-3.3415,-1.151520418475052e-11,2.5557088103580878e-79,-1.0798138559258603,-1.5955934966014123e-10,3.5412940071132963e-78,0.04346711728375929,0,70,255.0,255.0,255.0
91,4.55,-1.5000000000007123,1.5808696296832056e-80,-3.3954339979671575,-1.57179569206854e-11,3.4884766556047707e-79,-1.0774988441098257,-8.550759777254541e-12,1.897773738734481e-79,0.04913335535763357,0,70,255.0,255.0,255.0
92,4.6000000000000005,-1.500000000001446,3.2091836028347976e-80,-3.4492451625459215,-1.2370280162475842e-11,2.745486184231508e-79,-1.074900520390097,1.4245783010563483e-10,-3.1617392593664595e-78,0.05479959343150795,0,70,255.0,255.0,255.0
93,4.65,-1.5000000000018234,4.047062761144749e-80,-3.502919328141106,-1.4721739101219705e-12,3.2673739623832333e-80,-1.0720188847666747,2.9346641998852157e-10,-6.513255892606308e-78,0.06046583150538222,0,70,255.0,255.0,255.0
94,4.7,-1.5000000000014673,3.256627946303134e-80,-3.556442329157527,1.6976361836376213e-11,-3.7677697083747753e-79,-1.0688539372395587,4.444750098714082e-10,-9.864772525846157e-78,0.0661320695792565,0,70,255.0,255.0,255.0
95,4.75,-1.5,0.0,-3.6098,4.297532707701869e-11,-9.538035129607797e-79,-1.0654056778087493,5.954835997542947e-10,-1.3216289159086007e-77,0.0717983076531219,0,70,255.0,255.0,255.0
96,4.800000000000001,-1.499999999997342,-5.899885778120436e-80,-3.662978074227168,5.866021381917678e-11,-1.301917211973497e-78,-1.06166805570384,3.191186993202013e-11,-7.08258801422485e-79,0.07770657654324048,0,70,255.0,255.0,255.0
97,4.8500000000000005,-1.4999999999946036,-1.1976836256596406e-79,-3.715961882012976,4.616651407022123e-11,-1.0246293931030395e-78,-1.0576350201544253,-5.316598598902445e-10,1.1799771556240819e-77,0.08361484543335897,0,70,255.0,255.0,255.0
98,4.9,-1.4999999999931948,-1.5103843846012197e-79,-3.7687366526852015,5.494227830152507e-12,-1.2194005634941925e-79,-1.0533065711605043,-1.095231589712509e-09,2.4307801913904116e-77,0.08952311432347745,0,70,255.0,255.0,255.0
99,4.95,-1.499999999994524,-1.2153900956951992e-79,-3.821287615571618,-6.335664490102931e-11,1.406150798287364e-78,-1.0486827087220776,-1.6588033195347738e-09,3.6815832271567425e-77,0.09543138321359594,0,70,255.0,255.0,255.0
100,5.0,-1.5,0.0,-3.8736,-1.6038610412332423e-10,3.55964317080731e-78,-1.043763432839145,-2.222375049357038e-09,4.9323862629230716e-77,0.1013396521037091,0,70,255.0,255.0,255.0
101,5.050000000000001,-1.500000000009921,2.2018673482798505e-79,-3.925658505124176,-2.1892289835602175e-10,4.858821182333509e-78,-1.0385169330748178,-1.1909671995082908e-10,2.643257831816527e-78,0.10852033846937818,0,70,255.0,255.0,255.0
102,5.1000000000000005,-1.5000000000201394,4.469816142355082e-79,-3.977445709402178,-1.7229577611840913e-10,3.8239689539890067e-78,-1.0329113989922072,1.9841816094553425e-09,-4.403734696559683e-77,0.11570102483504713,0,70,255.0,255.0,255.0
103,5.15,-1.5000000000253977,5.636831262290403e-79,-4.028943661118093,-2.050473741048814e-11,4.550864857738424e-79,-1.026946830591313,4.087459938861513e-09,-9.071795176301018e-77,0.12288171120071607,0,70,255.0,255.0,255.0
104,5.2,-1.5000000000204374,4.535897588150482e-79,-4.080134408556003,2.364502177677408e-10,-5.247826222311979e-78,-1.0206232278721354,6.190738268267685e-09,-1.3739855656042355e-76,0.13006239756638502,0,70,255.0,255.0,255.0
105,5.25,-1.5,0.0,-4.131,5.985690894162782e-10,-1.328476917026846e-77,-1.0139405908346744,8.294016597673856e-09,-1.8407916135783687e-76,0.13724308393205575,0,70,255.0,255.0,255.0
106,5.300000000000001,-1.4999999999629747,-8.217480815307358e-79,-4.181523105276134,8.170313796049101e-10,-1.8133367517360545e-77,-1.0069362119968912,4.4447500987129525e-10,-9.864772525843664e-78,0.14293206957926125,0,70,255.0,255.0,255.0
107,5.3500000000000005,-1.499999999924838,-1.6681580943760692e-78,-4.231688880378318,6.430165904034149e-10,-1.427124642285299e-77,-0.9996473838767481,-7.405066577931126e-09,1.643496163061464e-76,0.14862105522646665,0,70,255.0,255.0,255.0
108,5.4,-1.4999999999052145,-2.1036940664560386e-78,-4.281483102842436,7.652472181179995e-11,-1.6984058867459608e-78,-0.9920741064742447,-1.5254608165733548e-08,3.385640051381365e-76,0.15431004087367203,0,70,255.0,255.0,255.0
109,5.45,-1.4999999999237268,-1.6928200256906726e-78,-4.330891550204369,-8.824442261699343e-10,1.9585154090960547e-77,-0.984216379789381,-2.310414975353597e-08,5.127783939701266e-76,0.15999902652087744,0,70,255.0,255.0,255.0
110,5.5,-1.5,0.0,-4.3799,-2.2338902535417886e-09,4.957943351026653e-77,-0.9760742038221569,-3.09536913413384e-08,6.869927828021168e-76,0.1656880121680837,0,70,255.0,255.0,255.0
111,5.550000000000001,-1.5000000001381804,3.066805591294958e-78,-4.428493873771297,-3.049202620063619e-09,6.767464888710866e-77,-0.9676262189376151,-1.6588033195343602e-09,3.6815832271558206e-77,0.17223138321358383,0,70,255.0,255.0,255.0
112,5.6000000000000005,-1.5000000002805078,6.225650763268767e-78,-4.476657169084557,-2.3997705854952515e-09,5.326101673742295e-77,-0.9588510655007985,2.7636084702269157e-08,-6.133611182589888e-76,0.17877475425908382,0,70,255.0,255.0,255.0
113,5.65,-1.500000000353745,7.851093139595115e-78,-4.5243735275121715,-2.855941498367126e-10,6.338537061209976e-78,-0.9497487435117068,5.693097272407268e-08,-1.2635380687895358e-75,0.18531812530458383,0,70,255.0,255.0,255.0
114,5.7,-1.5000000002846547,6.317690343947648e-78,-4.571626590626523,3.293326686911996e-09,-7.309279014153018e-77,-0.9403192529703401,8.62258607458762e-08,-1.9137150193200827e-75,0.19186149635008382,0,70,255.0,255.0,255.0
115,5.75,-1.5,0.0,-4.6184,8.336991924750876e-09,-1.8503296487079764e-76,-0.9305625938766985,1.1552074876767972e-07,-2.5638919698506296e-75,0.19840486739558383,0,70,255.0,255.0,255.0
116,5.800000000000001,-1.4999999994843036,-1.1445474283649097e-77,-4.664677399638687,1.1379779100649566e-08,-2.5256522803107406e-76,-0.9204789122526489,6.190738268266129e-09,-1.3739855656038845e-76,0.20494239756639124,0,70,255.0,255.0,255.0
117,5.8500000000000005,-1.4999999989531305,-2.3234444958698997e-77,-4.710442443283457,8.95606575157759e-09,-1.987728205268387e-76,-0.9100683541200593,-1.0313927223114553e-07,2.2890948567298095e-75,0.21147992773719854,0,70,255.0,255.0,255.0
118,5.9,-1.4999999986798054,-2.930067849192441e-77,-4.7556787871088835,1.0658518775350536e-09,-2.3655742358093905e-77,-0.8993309194789292,-2.1246928273055717e-07,4.715588270020008e-75,0.2180174579080058,0,70,255.0,255.0,255.0
119,5.95,-1.4999999989376536,-2.3577941350099892e-77,-4.80037008728954,-1.2290862521478054e-08,2.7278600647516037e-76,-0.8882666083292587,-3.217992932299688e-07,7.142081683310205e-75,0.2245549880788131,0,70,255.0,255.0,255.0
120,6.0,-1.5,0.0,-4.8445,-3.111407744546172e-08,6.90552425972924e-76,-0.8768754206710478,-4.311293037293805e-07,9.568575096600405e-75,0.23109251824962662,0,70,255.0,255.0,255.0
121,6.050000000000001,-1.500000001924605,4.2715091543301425e-77,-4.8880525276739615,-4.246991378253464e-08,9.425862632371878e-76,-0.8651781320517848,-2.310414975353015e-08,5.127783939699977e-76,0.23679902652088894,0,70,255.0,255.0,255.0
122,6.1000000000000005,-1.5000000039069705,8.671212907152723e-77,-4.93101305778162,-3.3424492420815114e-08,7.418302653699322e-76,-0.8531955180189588,3.84921004222313e-07,-8.543018308660249e-75,0.24250553479215112,0,70,255.0,255.0,255.0
123,6.15,-1.5000000049270332,1.0935162082810255e-76,-4.9733673240522975,-3.977813360303484e-09,8.828443237116623e-77,-0.8409275785725698,7.929461581981561e-07,-1.7598815011290491e-74,0.24821204306341332,0,70,255.0,255.0,255.0
124,6.2,-1.5000000039647308,8.7994075056452e-77,-5.015101060215317,4.587012339900021e-08,-1.0180512357591106e-75,-0.8283743137126175,1.200971312173999e-06,-2.6654611713920738e-74,0.25391855133467556,0,70,255.0,255.0,255.0
125,6.25,-1.5,0.0,-5.0562,1.16119317857096e-07,-2.5771767390208985e-75,-0.8155357234391023,1.6089964661498425e-06,-3.571040841655097e-74,0.2596250596059395,0,70,255.0,255.0,255.0
126,6.300000000000001,-1.4999999928172763,-1.5941489188955658e-76,-5.096649289665472,1.5849987602948905e-07,-3.5177798249176757e-75,-0.802376559540202,8.622586074585477e-08,-1.9137150193195925e-75,0.26674149635006233,0,70,255.0,255.0,255.0
127,6.3500000000000005,-1.4999999854189878,-3.2361407132740987e-76,-5.136431725590066,1.2474190393168286e-07,-2.7685482409528894e-75,-0.7888615738040959,-1.4365447446581059e-06,3.1882978377911183e-74,0.27385793309418505,0,70,255.0,255.0,255.0
128,6.4,-1.4999999816120615,-4.0810580482048573e-76,-5.175529516681927,1.484540156367893e-08,-3.294819871265685e-76,-0.7749907662307837,-2.959315350062067e-06,6.567967177514196e-74,0.2809743698383077,0,70,255.0,255.0,255.0
129,6.45,-1.4999999852034231,-3.2839835887570773e-76,-5.2139248718491915,-1.7118963107452272e-07,3.799418936561283e-75,-0.7607641368202653,-4.482085955466027e-06,9.947636517237274e-74,0.2880908065824304,0,70,255.0,255.0,255.0
130,6.5,-1.5,0.0,-5.2516,-4.333631939829223e-07,9.61815453011067e-75,-0.7461816855725406,-6.004856560869987e-06,1.3327305856960349e-73,0.295207243326554,0,70,255.0,255.0,255.0
131,6.550000000000001,-1.5000000268062899,5.94944476014925e-76,-5.2885375136641555,-5.915295903354214e-07,1.3128533036433517e-74,-0.7312676297874063,-3.217992932298872e-07,7.142081683308404e-75,0.30135498807880723,0,70,255.0,255.0,255.0
132,6.6000000000000005,-1.500000054417078,1.2077441562381122e-75,-5.324721639858114,-4.655431233059162e-07,1.0332362698441627e-74,-0.7160461867646598,5.361257974410111e-06,-1.1898889520298445e-73,0.3075027328310603,0,70,255.0,255.0,255.0
133,6.65,-1.5000000686247212,1.52307159845384e-75,-5.360137009219995,-5.540379289441208e-08,1.2296435161351148e-75,-0.7005173565043005,1.104431524205011e-05,-2.451198720892773e-73,0.3136504775833134,0,70,255.0,255.0,255.0
134,6.7,-1.5000000552215762,1.2255993604463793e-75,-5.394768252387917,6.38888400899091e-07,-1.4179624510486015e-74,-0.6846811390063284,1.672737250969011e-05,-3.7125084897557015e-73,0.31979822233556643,0,70,255.0,255.0,255.0
135,6.75,-1.5,0.0,-5.4286,1.617333458074593e-06,-3.589544138142178e-74,-0.6685375342707439,2.2410429777330116e-05,-4.973818258618631e-73,0.32594596708781953,0,70,255.0,255.0,255.0
136,6.800000000000001,-1.4999998999575643,-2.220363012170143e-75,-5.461617455677908,2.2076184853121967e-06,-4.8996352320816395e-74,-0.6521209213101806,1.2009713121736995e-06,-2.6654611713914097e-74,0.33071855133470174,0,70,255.0,255.0,255.0
137,6.8500000000000005,-1.4999997969127001,-4.507362553625039e-75,-5.493808114977479,1.7374305892919828e-06,-3.856090255281361e-74,-0.6354656791372735,-2.0008487152982344e-05,4.4407260243402664e-73,0.3354911355815839,0,70,255.0,255.0,255.0
138,6.9,-1.499999743889054,-5.684180588994876e-75,-5.5251600464380966,2.067697700139698e-07,-4.589092077413885e-75,-0.6185718077520224,-4.121794561813839e-05,9.147998165819673e-73,0.34026371982846604,0,70,255.0,255.0,255.0
139,6.95,-1.4999997939102718,-4.573999082909812e-75,-5.555661318599143,-2.3843639725218406e-06,5.291907910538279e-74,-0.6014393071544271,-6.242740408329443e-05,1.385527030729908e-72,0.3450363040753482,0,70,255.0,255.0,255.0
140,7.0,-1.5,0.0,-5.5853,-6.03597063831545e-06,1.3396361099557645e-73,-0.5840681773444878,-8.363686254845047e-05,1.856254244877849e-72,0.3498088883222312,0,70,255.0,255.0,255.0
141,7.050000000000001,-1.5000003733634533,8.286507572665648e-75,-5.614060663624214,-8.238944350913367e-06,1.828568762468321e-73,-0.5662486849718706,-4.482085955464902e-06,9.947636517234772e-74,0.36297080658244546,0,70,255.0,255.0,255.0
142,7.1000000000000005,-1.5000007579321213,1.6821706058262047e-74,-5.6419139002319705,-6.4841792338620145e-06,1.4391124751281287e-73,-0.5477710966862431,7.467269063751925e-05,-1.6573015145331224e-72,0.3761327248426594,0,70,255.0,255.0,255.0
143,7.15,-1.5000009558190628,2.121365075752567e-74,-5.668826805027621,-7.716752871614686e-07,1.7126724793520425e-74,-0.5286354124876048,0.0001538274672305034,-3.414079394238592e-72,0.3892946431028734,0,70,255.0,255.0,255.0
144,7.2,-1.5000007691373363,1.7070396971192869e-74,-5.694766473215514,8.898567489188276e-06,-1.974966919110452e-73,-0.5088416323759558,0.00023298224382348756,-5.170857273944063e-72,0.4024565613630874,0,70,255.0,255.0,255.0
145,7.25,-1.5,0.0,-5.7197,2.2526549095187207e-05,-4.99959002600884e-73,-0.4883897563512962,0.0003121370204164716,-6.927635153649533e-72,0.41561847962330045,0,70,255.0,255.0,255.0
146,7.300000000000001,-1.4999986065886228,-3.092566727849245e-74,-5.743596689825239,3.074815891834126e-05,-6.824311526665117e-73,-0.4674123388023252,1.6727372509685876e-05,-3.712508489754767e-73,0.423478222335529,0,70,255.0,255.0,255.0
147,7.3500000000000005,-1.4999971713588147,-6.277946167942313e-74,-5.766434684094639,2.419928634615607e-05,-5.370840874984378e-73,-0.4460419341177431,-0.00027868227539709465,6.185133455698463e-72,0.43133796504775745,0,70,255.0,255.0,255.0
148,7.4,-1.499996432834695,-7.91704224411078e-74,-5.78819433345142,2.8799313786318902e-06,-6.391780709666778e-74,-0.4242785422975496,-0.0005740919233038751,1.2741517760372403e-71,0.43919770775998584,0,70,255.0,255.0,255.0
149,7.45,-1.4999971295403836,-6.370758880186165e-74,-5.8088559885388,-3.320990598423124e-05,7.370676885387982e-73,-0.40212216334174467,-0.0008695015712106558,1.9297902065046342e-71,0.44705745047221424,0,70,255.0,255.0,255.0
150,7.5,-1.5,0.0,-5.8284,-8.407022574243337e-05,1.8658723994079595e-72,-0.37957279725032833,-0.0011649112191174367,2.585428636972028e-71,0.45491719318444357,0,70,255.0,255.0,255.0
151,7.550000000000001,-1.5000060002820546,1.1541616154130414e-73,-5.846818177074832,-0.00016275369132244777,2.5468677344192156e-72,-0.35731795981883296,-0.0019824274040830944,1.3855270307295586e-72,0.4352763040753596,0,70,255.0,255.0,255.0
152,7.6000000000000005,-1.5000169566326198,2.3429614065943053e-73,-5.8641481633894745,-0.0002823129661507432,2.0044251024809378e-72,-0.3360451668427921,-0.002799943589048738,-2.308323230826073e-71,0.41563541496627604,0,70,255.0,255.0,255.0
153,7.65,-1.5000349128421573,2.954680390069055e-73,-5.880439061166702,-0.00044274805022732054,2.3854450359315133e-73,-0.31575441832220547,-0.0036174597740143816,-4.755199164725102e-71,0.39599452585719247,0,70,255.0,255.0,255.0
154,7.7,-1.5000619127011299,2.3775995823625378e-73,-5.895739972629286,-0.00064405894355218,-2.750774062244146e-72,-0.296445714257073,-0.004434975958980025,-7.202075098624131e-71,0.37635363674810884,0,70,255.0,255.0,255.0
155,7.75,-1.5001,0.0,-5.9101,-0.0008862456461253216,-6.963530595030954e-72,-0.2781190546473947,-0.005252492143945672,-9.648951032523158e-71,0.35671274763902705,0,70,255.0,255.0,255.0
156,7.800000000000001,-1.500150192283158,-4.3073897888672414e-73,-5.923564201875436,-0.0011077333936283683,-9.505039785010348e-72,-0.26053182192234137,-0.0036070177561760676,-5.170857273942752e-72,0.34677656136309776,0,70,255.0,255.0,255.0
157,7.8500000000000005,-1.5002094021107064,-8.744051009582988e-73,-5.936161462347464,-0.0012469474217429318,-7.480616322425312e-72,-0.24344139851108476,-0.0019615433684064924,8.614779577734447e-71,0.33684037508716863,0,70,255.0,255.0,255.0
158,7.9,-1.5002735157966756,-1.1027017335865138e-72,-5.947916621881774,-0.001303887730469017,-8.90260207275932e-73,-0.22684778441362463,-0.00031606898063691723,1.7746644882863168e-70,0.3269041888112395,0,70,255.0,255.0,255.0
159,7.95,-1.5003384196550968,-8.873322441431529e-73,-5.958854520944056,-0.0012785543198066233,1.0266028560437785e-71,-0.21075097962996092,0.0013294054071326588,2.6878510187991885e-70,0.3169680025353104,0,70,255.0,255.0,255.0
160,8.0,-1.5004,0.0,-5.969,-0.0011709471897557513,2.598824998071586e-71,-0.19515098416009366,0.002974879794902234,3.601037549312062e-70,0.3070318162593819,0,70,255.0,255.0,255.0
161,8.05,-1.5004556305853134,1.6075397540055927e-72,-5.978380215423425,-0.0010703127341634665,3.5473291405622188e-71,-0.18018675249180388,0.001050498428789107,1.929790206504155e-71,0.2915374504722014,0,70,255.0,255.0,255.0
162,8.1,-1.5005086349245547,3.2633242631737406e-72,-5.98703158722067,-0.0010658973468768377,2.791804018722061e-71,-0.1659972391128736,-0.0008738829373239514,-3.21507950801111e-70,0.2760430846850215,0,70,255.0,255.0,255.0
163,8.15,-1.5005638239711394,4.115338895339152e-72,-5.994992851306201,-0.0011577010278958646,3.322496325510593e-72,-0.15258244402330184,-0.0027982643034370784,-6.623138036672757e-70,0.26054871889784104,0,70,255.0,255.0,255.0
164,8.200000000000001,-1.5006260086784828,3.3115690183363286e-72,-6.002302743594489,-0.0013457237772205493,-3.83133401795079e-71,-0.13994236722308911,-0.004722645669550205,-1.0031196565334403e-69,0.24505435311066054,0,70,255.0,255.0,255.0
165,8.25,-1.5007,0.0,-6.009,-0.0016299655948508799,-9.698946932783248e-71,-0.12807700871223582,-0.0066470270356632655,-1.343925509399593e-69,0.22955998732348193,0,70,255.0,255.0,255.0
166,8.3,-1.5007896853755884,-5.999420037135646e-72,-6.015122136430865,-0.0019550156697170683,-1.3238812583747839e-70,-0.11691316811044554,-0.006354975958984073,-7.20207509862233e-71,0.21699363674812303,0,70,255.0,255.0,255.0
167,8.35,-1.5008952581910746,-1.217889195173667e-71,-6.020701788769857,-0.0022654631907492854,-1.0419154442645708e-70,-0.10637764503742358,-0.006062924882304891,1.199884007427101e-69,0.20442728617276457,0,70,255.0,255.0,255.0
168,8.4,-1.5010159883187664,-1.5358653847770095e-71,-6.025770372893419,-0.0025613081579475548,-1.2399725094766476e-71,-0.09647043949316916,-0.005770873805625699,2.4717887658404706e-69,0.19186093559740564,0,70,255.0,255.0,255.0
169,8.450000000000001,-1.5011511456309719,-1.235894382920216e-71,-6.0303593046779875,-0.0028425505713118634,1.4298733215759348e-70,-0.08719155147768273,-0.005478822728946507,3.7436935242538405e-69,0.17929458502204673,0,70,255.0,255.0,255.0
170,8.5,-1.5013,0.0,-6.0345,-0.0031091904308422035,3.6196962733061406e-70,-0.07854098099096454,-0.005186771652267316,5.015598282667166e-69,0.16672823444668883,0,70,255.0,255.0,255.0
171,8.55,-1.5014616279123327,2.2390140394536988e-71,-6.03822403885312,-0.003349624586970451,4.940792119442913e-70,-0.07052857506641431,-0.004430594592862436,2.6878510187985107e-70,0.15376800253531578,0,70,255.0,255.0,255.0
172,8.6,-1.5016343323111474,4.545224354377294e-71,-6.041563657699901,-0.003552249890128447,3.8884813751860747e-70,-0.063164180737433,-0.003674417533457583,-4.478028078907295e-69,0.14080777062394317,0,70,255.0,255.0,255.0
173,8.65,-1.5018162227537963,5.731927649574122e-71,-6.044551257120123,-0.0037170663403162064,4.6276404053555036e-71,-0.05644779800402007,-0.0029182404740527024,-9.22484125969461e-69,0.1278475387125701,0,70,255.0,255.0,255.0
174,8.700000000000001,-1.5020054087976298,4.6124206298472305e-71,-6.047219237693563,-0.0038440739375337216,-5.3363598845086636e-70,-0.0503794268661758,-0.0021620634146478222,-1.3971654440481924e-68,0.11488730680119705,0,70,255.0,255.0,255.0
175,8.75,-1.5022,0.0,-6.0496,-0.003933272681780989,-1.3508890399946238e-69,-0.044959067323900384,-0.0014058863552429274,-1.8718467621269073e-68,0.10192707488982478,0,70,255.0,255.0,255.0
176,8.8,-1.5023990029750807,-8.356114154101233e-71,-6.051726508156658,-0.0040384859824008235,-1.8439287219396874e-69,-0.04022053162388837,-0.0028026456695503803,-1.0031196565331848e-69,0.0876143531106531,0,70,255.0,255.0,255.0
177,8.85,-1.5026050125643353,-1.6963008222335512e-70,-6.053633980430538,-0.004213537248736024,-1.4512010056479732e-69,-0.03619763201283508,-0.004199404983857784,1.6712228308202073e-68,0.07330163133148195,0,70,255.0,255.0,255.0
178,8.9,-1.5028215206660496,-2.1391845213519485e-70,-6.055358198626091,-0.004458426480786602,-1.7270589111945396e-70,-0.03289036849074022,-0.005596164298165236,3.442757627293796e-68,0.05898890955231027,0,70,255.0,255.0,255.0
179,8.950000000000001,-1.5030520191785093,-1.7213788136468715e-70,-6.056934944547761,-0.004773153678552555,1.9915566216458722e-69,-0.030298741057603967,-0.00699292361247269,5.214292423767385e-68,0.0446761877731386,0,70,255.0,255.0,255.0
180,9.0,-1.5033,0.0,-6.0584,-0.005157718842033866,5.041586532647881e-69,-0.02842274971342635,-0.008389682926780072,6.985827220240911e-68,0.030363465993967498,0,70,255.0,255.0,255.0
181,9.05,-1.5035679601873446,3.118544257695123e-70,-6.05978832852025,-0.00555243148342703,6.881635675814457e-69,-0.02721329843802638,-0.007398822728946287,3.743693524252879e-69,0.018014585022030627,0,70,255.0,255.0,255.0
182,9.1,-1.5038544174315114,6.330680853496475e-70,-6.061131620577946,-0.0058976011149284935,5.415955885073285e-69,-0.02662129121122327,-0.006407962531112537,-6.2370885153901015e-68,0.0056657040500942,0,70,255.0,255.0,255.0
183,9.15,-1.5041568945820059,7.983545320450377e-70,-6.062460748375516,-0.00619322773653828,6.445471604242618e-70,-0.026646728033016983,-0.005417102333278754,-1.2848546383205726e-67,-0.006683176921842671,0,70,255.0,255.0,255.0
184,9.200000000000001,-1.5044729144883335,6.424273191602761e-70,-6.06380658411539,-0.0064393113482563765,-7.43259049813262e-69,-0.02728960890340755,-0.004426242135444968,-1.946000425102135e-67,-0.01903205789377954,0,70,255.0,255.0,255.0
185,9.25,-1.5048,0.0,-6.0652,-0.006635851950082778,-1.8815457090596903e-68,-0.028549933822394912,-0.0034353819376111983,-2.6071462118836732e-67,-0.03138093886571594,0,70,255.0,255.0,255.0
186,9.3,-1.5051363562755415,-1.163856561537037e-69,-6.0666721777623405,-0.0068237880838892505,-2.568261398131814e-68,-0.030446274624007574,-0.004082063414647611,-1.397165444047827e-68,-0.04447269319878943,0,70,255.0,255.0,255.0
187,9.35,-1.5054829177096198,-2.3626422591752347e-69,-6.068255537257679,-0.007044058291547536,-2.0212622534645164e-68,-0.03299720314227382,-0.004728744891684001,2.32771312307402e-67,-0.05756444753186245,0,70,255.0,255.0,255.0
188,9.4,-1.5058413010059273,-2.979499676044957e-69,-6.069982807871845,-0.007296662573057651,-2.4054827505775764e-69,-0.03620271937719382,-0.005375426368720414,4.795142790552911e-67,-0.07065620186493593,0,70,255.0,255.0,255.0
189,9.450000000000001,-1.5062131228681563,-2.3975713952764177e-69,-6.071886718990676,-0.007581600928419586,2.7738805370884632e-68,-0.04006282332876751,-0.006022107845756827,7.262572458031802e-67,-0.08374795619800943,0,70,255.0,255.0,255.0
190,9.5,-1.5066,0.0,-6.074,-0.00789887335763333,7.022024182973972e-68,-0.04457751499699471,-0.006668789322793162,9.730002125510602e-67,-0.09683971053108231,0,70,255.0,255.0,255.0
191,9.55,-1.507003414710489,4.343571820378635e-69,-6.076356560430387,-0.008240416181015087,9.584882024945808e-68,-0.04981760306594357,-0.006992923612476897,5.214292423766034e-68,-0.11276381222686947,0,70,255.0,255.0,255.0
192,9.600000000000001,-1.5074243117300095,8.817500951351424e-69,-6.07899503039134,-0.008598165718881029,7.543453425350585e-68,-0.055853896219681815,-0.007317057902160632,-8.687143640757395e-67,-0.12868791392265663,0,70,255.0,255.0,255.0
193,9.65,-1.5078635013942854,1.1119644172134786e-68,-6.081955220137101,-0.008972121971231147,8.977383841886077e-69,-0.06268639445820916,-0.007641192191844356,-1.7895716523891066e-66,-0.14461201561844322,0,70,255.0,255.0,255.0
194,9.700000000000001,-1.5083217940390408,8.947858261945394e-69,-6.085276939921908,-0.009362284938065462,-1.035226309854058e-67,-0.07031509778152611,-0.007965326481528092,-2.710428940702506e-66,-0.16053611731423037,0,70,255.0,255.0,255.0
195,9.75,-1.5088,0.0,-6.089,-0.009768654619383952,-2.6206551022836196e-67,-0.07874000618963212,-0.008289460771211843,-3.631286229015874e-66,-0.17646021901001663,0,70,255.0,255.0,255.0
196,9.8,-1.5092987848825015,-1.6210430719977501e-68,-6.093159180516113,-0.010182547192050369,-3.577126670165143e-67,-0.0876593131122267,-0.008266242135444584,-1.946000425101639e-67,-0.18031205789376148,0,70,255.0,255.0,255.0
197,9.850000000000001,-1.509818235370342,-3.2907361546230426e-68,-6.09776914117696,-0.010595278832928422,-2.8152551447937853e-67,-0.09677121197900852,-0.008243023499677326,3.242086143995546e-66,-0.1841638967775063,0,70,255.0,255.0,255.0
198,9.9,-1.5103582934169313,-4.14990770124942e-68,-6.10283951157975,-0.011006849542018098,-3.3504052616966845e-68,-0.10607570278997724,-0.00821980486391007,6.678772330501134e-66,-0.18801573566125102,0,70,255.0,255.0,255.0
199,9.950000000000001,-1.5109189009756807,-3.339386165250516e-68,-6.108379921321694,-0.011417259319319426,3.8635171857073866e-67,-0.11557278554513356,-0.00819658622814281,1.0115458517006847e-65,-0.19186757454499584,0,70,255.0,255.0,255.0
200,10.0,-1.5115,0.0,-6.1144,-0.011826508164832376,9.780417990837081e-67,-0.12526246024447676,-0.008173367592375497,1.3552144703512434e-65,-0.19571941342873989,0,70,255.0,255.0,255.0
201,10.05,-1.5121014457595043,6.049815105953138e-68,-6.120895517505163,-0.012229395050785576,1.3350018478165986e-66,-0.13431314448514547,-0.007942107845752285,7.262572458029945e-67,-0.16630795619800362,0,70,255.0,255.0,255.0
202,10.100000000000001,-1.512722746788623,1.2281194523357026e-67,-6.127806804900823,-0.012620718949407616,1.0506675236640083e-66,-0.14189325586427737,-0.007710848099129074,-1.2099630211906445e-65,-0.13689649896726738,0,70,255.0,255.0,255.0
203,10.15,-1.5133633249379896,1.5487666387784195e-67,-6.135060333543899,-0.013000479860698482,1.2503882662598127e-67,-0.14800279438187225,-0.0074795883525058705,-2.4925517669615427e-65,-0.10748504173653216,0,70,255.0,255.0,255.0
204,10.200000000000001,-1.5140226020582377,1.246275883480752e-67,-6.142582574791317,-0.0133686777846582,-1.4418842432975478e-66,-0.15264176003793048,-0.00724832860588266,-3.775140512732487e-65,-0.0780735845057959,0,70,255.0,255.0,255.0
205,10.25,-1.5147,0.0,-6.1503,-0.013725312721286746,-3.65010168610647e-66,-0.15581015283245184,-0.007017068859259512,-5.057729258503386e-65,-0.048662127275060696,0,70,255.0,255.0,255.0
206,10.3,-1.5153954320794811,-2.25782173518148e-67,-6.158153949463233,-0.014099872604806442,-4.98229472424988e-66,-0.15840010894718476,-0.007965326481528142,-2.7104289407018104e-66,-0.05493611731425454,0,70,255.0,255.0,255.0
207,10.350000000000001,-1.5161107774751659,-4.583404193880507e-67,-6.166145239219752,-0.014521845369439571,-3.921144580176654e-66,-0.16130376456387738,-0.008913584103796772,4.515643470363024e-65,-0.06121010735344838,0,70,255.0,255.0,255.0
208,10.4,-1.5168484068311103,-5.7800757849887375e-67,-6.174289554244653,-0.014991231015186115,-4.6665125388695626e-67,-0.16452111968252955,-0.009861841726065369,9.30232983479606e-65,-0.06748409739264201,0,70,255.0,255.0,255.0
209,10.450000000000001,-1.5176106907913696,-4.651164917397959e-67,-6.182602579513037,-0.015508029542046105,5.381185254619455e-66,-0.16805217430314154,-0.010810099348333999,1.4089016199229266e-64,-0.07375808743183584,0,70,255.0,255.0,255.0
210,10.5,-1.5184,0.0,-6.1911,-0.01607224095001951,1.3622364945342173e-65,-0.1718969284257131,-0.011758356970602568,1.8875702563662303e-64,-0.08003207747102947,0,70,255.0,255.0,255.0
211,10.55,-1.5192176259225716,8.426305430130605e-67,-6.1997942846419045,-0.01661911452998825,1.8594177049182928e-65,-0.175862419726114,-0.010116586228146793,1.0115458517004266e-65,-0.07858757454500369,0,70,255.0,255.0,255.0
212,10.600000000000001,-1.5200605433107133,1.7105497323186324e-66,-6.208685038220173,-0.017083899572834203,1.4633910797042613e-65,-0.1797556858802136,-0.00847481548569102,-1.685261086026145e-64,-0.07714307161897792,0,70,255.0,255.0,255.0
213,10.65,-1.5209246477375697,2.1571536501176533e-66,-6.217768649477488,-0.017466596078557352,1.7415661889218543e-66,-0.18357672688801177,-0.006833044743235306,-3.471676757222269e-64,-0.07569856869295219,0,70,255.0,255.0,255.0
214,10.700000000000001,-1.5218058347762837,1.735838378611108e-66,-6.227041507156535,-0.01776720404715773,-2.008285677518027e-65,-0.18732554274950877,-0.005191274000779532,-5.258092428418457e-64,-0.0742540657669264,0,70,255.0,255.0,255.0
215,10.75,-1.5227,0.0,-6.2365,-0.017985723478635304,-5.083935809526222e-65,-0.19100213346470438,-0.003549503258323733,-7.044508099614582e-64,-0.07280956284089979,0,70,255.0,255.0,255.0
216,10.8,-1.5236044642302329,-3.1447399985340946e-66,-6.246140911969148,-0.018207669275240475,-6.939441347248182e-65,-0.1946302121483713,-0.005328328605882913,-3.775140512731505e-65,-0.07231358450577549,0,70,255.0,255.0,255.0
217,10.850000000000001,-1.5245222492819803,-6.38385850988648e-66,-6.2559626078995585,-0.018518556339223603,-5.461449860799379e-65,-0.19823349191528203,-0.007107153953442092,6.289479997068281e-64,-0.0718176061706512,0,70,255.0,255.0,255.0
218,10.9,-1.5254578022186116,-8.050607021971738e-66,-6.265963847845396,-0.018918384670584678,-6.499613501800417e-66,-0.20181197276543641,-0.008885979301001209,1.2956474045409474e-63,-0.07132162783552691,0,70,255.0,255.0,255.0
219,10.950000000000001,-1.5264155701034952,-6.478237022704633e-66,-6.276143391860822,-0.019407154269323722,7.49502418461017e-65,-0.2053656546988347,-0.010664804648560388,1.9623468093750907e-63,-0.07082564950040261,0,70,255.0,255.0,255.0
220,11.0,-1.5274,0.0,-6.2865,-0.01998486513544071,1.8973506743570672e-64,-0.20889453771547664,-0.01244362999611942,2.6290462142092087e-63,-0.07032967116527788,0,70,255.0,255.0,255.0
221,11.05,-1.5284141171564973,1.1736329451123316e-65,-6.297032467481509,-0.020566208369051948,2.5898347684074436e-64,-0.21240073168040433,-0.010810099348329648,1.4089016199225554e-64,-0.0699180874318276,0,70,255.0,255.0,255.0
222,11.100000000000001,-1.5294552595613653,2.382488430722728e-65,-6.307739730181596,-0.021065875070273694,2.038240836349325e-64,-0.2158863464586595,-0.009176568700539876,-2.3472658902246976e-63,-0.06950650369837733,0,70,255.0,255.0,255.0
223,11.15,-1.530519343387985,3.0045274437769295e-65,-6.31862075914093,-0.021483865239105934,2.425688781827978e-65,-0.21935138205024204,-0.007543038052750161,-4.8354219424415617e-63,-0.06909491996492707,0,70,255.0,255.0,255.0
224,11.200000000000001,-1.5316022848097361,2.4177109712207437e-65,-6.329674525400176,-0.021820178875548702,-2.7971811060922645e-64,-0.2227958384551522,-0.005909507404960389,-7.323577994658515e-63,-0.0686833362314768,0,70,255.0,255.0,255.0
225,11.25,-1.5327,0.0,-6.3409,-0.02207481597960197,-7.081009116475646e-64,-0.2262197156733897,-0.004275976757170591,-9.81173404687538e-63,-0.06827175249802608,0,70,255.0,255.0,255.0
226,11.3,-1.533809467143778,-4.3800577805959164e-65,-6.352296418104822,-0.022311497248550728,-9.665394938904955e-64,-0.2296388611300139,-0.005191274000779529,-5.2580924284171046e-64,-0.06849406576693942,0,70,255.0,255.0,255.0
227,11.350000000000001,-1.534931912472558,-8.891567871902265e-65,-6.36386407137406,-0.022593943379679928,-7.606818359317364e-64,-0.23306912225008372,-0.0061065712443884685,8.760115561191958e-63,-0.06871637903585276,0,70,255.0,255.0,255.0
228,11.4,-1.536069624229449,-1.1213049072910545e-64,-6.375603515590887,-0.02292215437298957,-9.05279377713193e-65,-0.23651049903359914,-0.007021868487997374,1.8046040365225295e-62,-0.06893869230476608,0,70,255.0,255.0,255.0
229,11.450000000000001,-1.53722489065756,-9.023020182612508e-65,-6.387515306538477,-0.023296130228479667,1.0439222005908029e-63,-0.2399629914805603,-0.007937165731606313,2.7331965169258964e-62,-0.06916100557367942,0,70,255.0,255.0,255.0
230,11.5,-1.5384,0.0,-6.3996,-0.023715870946150196,2.6426685791545516e-63,-0.24342659959096707,-0.008852462975215275,3.6617889973292305e-62,-0.06938331884259297,0,70,255.0,255.0,255.0
231,11.55,-1.5395968142683907,1.6346598177271335e-64,-6.41185786009921,-0.024155802636744706,3.607174498721238e-63,-0.2468838237995417,-0.008744804648564846,1.9623468093745836e-63,-0.06890564950038991,0,70,255.0,255.0,255.0
232,11.600000000000001,-1.5408154905484022,3.318378305688633e-64,-6.42428798432217,-0.024590351411006694,2.838903260092012e-63,-0.25031716454100617,-0.008637146321914415,-3.2693196354543137e-62,-0.06842798015818684,0,70,255.0,255.0,255.0
233,11.65,-1.5420557596942188,4.184766884786524e-64,-6.436889178495525,-0.025019517268936146,3.37854863266997e-64,-0.2537266218153603,-0.00852948799526399,-6.734873951845964e-62,-0.0679503108159838,0,70,255.0,255.0,255.0
234,11.700000000000001,-1.5433173525600237,3.36743697592293e-64,-6.4496602484459205,-0.02544330021053309,-3.8959706917539877e-63,-0.2571121956226045,-0.008421829668613559,-1.0200428268237736e-61,-0.06747264147378072,0,70,255.0,255.0,255.0
235,11.75,-1.5446,0.0,-6.4626,-0.0258617002357975,-9.862573404970642e-63,-0.26047388596273846,-0.008314171341963161,-1.3665982584629385e-61,-0.06699497213157901,0,70,255.0,255.0,255.0
236,11.8,-1.54590327578266,-6.100633492848942e-64,-6.475707341498342,-0.02626529220447048,-1.3462158500994453e-62,-0.263817843671815,-0.007829507404955876,-7.323577994656615e-63,-0.06676333623148131,0,70,255.0,255.0,255.0
237,11.850000000000001,-1.547226125333833,-1.2384356435564305e-63,-6.488981591337265,-0.0266446509762931,-1.059493120443631e-62,-0.2671502195858867,-0.007344843467948589,1.2201266985698062e-61,-0.06653170033138361,0,70,255.0,255.0,255.0
238,11.9,-1.5485673369936754,-1.5617762631855047e-63,-6.502422170427016,-0.02699977655126534,-1.260891515296667e-63,-0.27047101370495336,-0.0068601795309413205,2.513489177086133e-61,-0.06630006443128593,0,70,255.0,255.0,255.0
239,11.950000000000001,-1.5499256991023451,-1.2567445885430467e-63,-6.5160284996778435,-0.027330668929387226,1.453996056642515e-62,-0.27378022602901525,-0.006375515593934034,3.806851655602506e-61,-0.06606842853118823,0,70,255.0,255.0,255.0
240,12.0,-1.5513,0.0,-6.5298,-0.02763732811065874,3.6807625040728015e-62,-0.27707785655807216,-0.005890851656926571,5.100214134118832e-61,-0.06583679263109143,0,70,255.0,255.0,255.0
241,12.05,-1.5526892826009686,2.2767874153668634e-63,-6.5437359739074195,-0.027935028545372175,5.024145950525658e-62,-0.2803568015131917,-0.006017165731610726,2.733196516925195e-62,-0.06532100557368867,0,70,255.0,255.0,255.0
242,12.100000000000001,-1.554093608116266,4.6219047436568585e-63,-6.557835250328772,-0.028239044683819818,3.954082155765325e-62,-0.28360995711544107,-0.006143479806294881,-4.553574830733793e-61,-0.0648052185162859,0,70,255.0,255.0,255.0
243,12.15,-1.5555132923310793,5.828628364263366e-63,-6.572096539796414,-0.028549376526001664,4.705711197919683e-63,-0.2868373233648203,-0.006269793880979031,-9.380469313159934e-61,-0.06428943145888315,0,70,255.0,255.0,255.0
244,12.200000000000001,-1.5569486510305952,4.6902346565798926e-63,-6.586518552842706,-0.028866024071917722,-5.42638715739466e-62,-0.2900389002613294,-0.006396107955663186,-1.4207363795586246e-60,-0.06377364440148038,0,70,255.0,255.0,255.0
245,12.25,-1.5584,0.0,-6.6011,-0.029188987321567977,-1.3736792675794142e-61,-0.29321468780496834,-0.006522422030347169,-1.9034258278012386e-60,-0.06325785734407718,0,70,255.0,255.0,255.0
246,12.3,-1.5598675938134656,-8.497086312182561e-63,-6.6158399628719815,-0.029514593614042003,-1.8750367952003184e-61,-0.29638695027541506,-0.006501829668613773,-1.0200428268235116e-61,-0.06363264147378987,0,70,255.0,255.0,255.0
247,12.350000000000001,-1.5613514422011028,-1.7249183331071002e-62,-6.63073900734765,-0.029839170288429362,-1.4756835502617665e-61,-0.2995779519523474,-0.006481237306880377,1.6994172624365363e-60,-0.06400742560350256,0,70,255.0,255.0,255.0
248,12.4,-1.562851493682007,-2.1752737193867965e-62,-6.645798070387325,-0.030162717344730042,-1.7561953276382051e-62,-0.30278769283576534,-0.006460644945146981,3.50083880755536e-60,-0.06438220973321522,0,70,255.0,255.0,255.0
249,12.450000000000001,-1.5643676967752742,-1.750419403777652e-62,-6.661018088951334,-0.030485234782944057,2.025155257293613e-61,-0.3060161729256689,-0.006440052583413586,5.302260352674248e-60,-0.06475699386292791,0,70,255.0,255.0,255.0
250,12.5,-1.5659,0.0,-6.6764,-0.030806722603071397,5.126640819910376e-61,-0.309263392222058,-0.0064194602216802454,7.103681897793069e-60,-0.06513177799264014,0,70,255.0,255.0,255.0
251,12.55,-1.5674483421451693,3.1711557833363376e-62,-6.691944174604652,-0.031126596998461653,6.997732585748709e-61,-0.3124953973851535,-0.006375515593929742,3.806851655601515e-61,-0.06414842853117618,0,70,255.0,255.0,255.0
252,12.600000000000001,-1.569012623079323,6.437482858062714e-62,-6.7076487202806305,-0.031444274162464377,5.507325985470534e-61,-0.3156782350751757,-0.006331570966179238,-6.342311566672766e-60,-0.06316507906971222,0,70,255.0,255.0,255.0
253,12.65,-1.5705927329408926,8.118232041120843e-62,-6.7235111786542845,-0.03175975409507957,6.554210190760819e-62,-0.31881190529212466,-0.006287626338428737,-1.3065308298905447e-59,-0.0621817296082483,0,70,255.0,255.0,255.0
254,12.700000000000001,-1.572188561868308,6.532654149452619e-62,-6.739529091351959,-0.03207303679630725,-7.55798231343498e-61,-0.32189640803600056,-0.006243681710678233,-1.9788305031138363e-59,-0.06119838014678434,0,70,255.0,255.0,255.0
255,12.75,-1.5738,0.0,-6.7557,-0.0323841222661474,-1.913288401206209e-60,-0.324931743306803,-0.00619973708292787,-2.651130176337104e-59,-0.06021503068531997,0,70,255.0,255.0,255.0
256,12.8,-1.5754270376058581,-1.1834914502127094e-61,-6.772021738709412,-0.03269901839211218,-2.611589354779451e-60,-0.3279354601839729,-0.0063961079556631465,-1.4207363795582526e-60,-0.05993364440147255,0,70,255.0,255.0,255.0
257,12.850000000000001,-1.5770700654816052,-2.402501309914376e-61,-6.7884933115298285,-0.03302373306171372,-2.0553620391620357e-60,-0.3309251077469504,-0.006592478828398423,2.3669829004254534e-59,-0.059652258117625125,0,70,255.0,255.0,255.0
258,12.9,-1.5787295745544232,-3.0297654445096583e-61,-6.805114014995537,-0.03335826627495202,-2.4460645435405204e-61,-0.33390068599573536,-0.006788849701133694,4.876039438806642e-59,-0.05937087183377771,0,70,255.0,255.0,255.0
259,12.950000000000001,-1.5804060557514945,-2.4380197194032808e-61,-6.821883145640832,-0.03370261803182709,2.820677399644633e-60,-0.3368621949303281,-0.006985220573868971,7.3850959771879205e-59,-0.05908948554993029,0,70,255.0,255.0,255.0
260,13.0,-1.5821,0.0,-6.8388,-0.03405678833233891,7.140489522833799e-60,-0.3398096345507284,-0.00718159144660413,9.89415251556911e-59,-0.05880809926608288,0,70,255.0,255.0,255.0
261,13.05,-1.583811507431399,4.4168502225172035e-61,-6.855864070557701,-0.03439732943308935,9.746584160542937e-60,-0.342754761878954,-0.006440052583413526,5.302260352672878e-60,-0.05899699386294097,0,70,255.0,255.0,255.0
262,13.100000000000001,-1.5855391149942564,8.966256953851234e-61,-6.87307563360006,-0.034700793590680276,7.670715558101094e-60,-0.3457093339370226,-0.005698513720222921,-8.833700445034535e-59,-0.059185888459799066,0,70,255.0,255.0,255.0
263,13.15,-1.5872809688414145,1.130723857392655e-60,-6.890435161363567,-0.034967180805111645,9.128837155085977e-61,-0.3486733507249339,-0.004956974857032342,-1.8197626925336025e-58,-0.05937478305665716,0,70,255.0,255.0,255.0
264,13.200000000000001,-1.589035215125715,9.098813462667869e-61,-6.907943126084718,-0.03519649107638351,-1.052691136723503e-59,-0.3516468122426883,-0.004215435993841738,-2.7561553405637847e-58,-0.05956367765351525,0,70,255.0,255.0,255.0
265,13.25,-1.5908,0.0,-6.9256,-0.03538872440449582,-2.6648669690128985e-59,-0.35462971849028546,-0.00347389713065116,-3.692547988593933e-58,-0.05975257225037556,0,70,255.0,255.0,255.0
266,13.3,-1.5925741326685463,-1.6483909439856102e-60,-6.943405979059785,-0.03558366387552918,-3.6374747287392284e-59,-0.3576054923002142,-0.004323681710682815,-1.9788305031133254e-59,-0.059278380146771954,0,70,255.0,255.0,255.0
267,13.350000000000001,-1.5943590745413698,-3.346252650549055e-60,-6.9613601540699355,-0.035821092575564116,-2.8627500193242327e-59,-0.36055755650496274,-0.00517346629071447,3.296781887971268e-58,-0.058804188043168344,0,70,255.0,255.0,255.0
268,13.4,-1.5961569500799195,-4.219918885119654e-60,-6.979461339550195,-0.036101010504600614,-3.4069284076803433e-60,-0.363485911104531,-0.006023250870746094,6.791446826253745e-58,-0.058329995939564755,0,70,255.0,255.0,255.0
269,13.450000000000001,-1.5979698837456462,-3.3957234131268203e-60,-6.997708350020302,-0.036423417662638714,3.928696806929549e-59,-0.3663905560989192,-0.00687303545077775,1.0286111764536347e-57,-0.05785580383596115,0,70,255.0,255.0,255.0
270,13.5,-1.5998,0.0,-7.0161,-0.03678831404967839,9.945418923768213e-59,-0.3692714914881271,-0.007722820030809263,1.3780776702818824e-57,-0.057381611732356674,0,70,255.0,255.0,255.0
271,13.55,-1.6016487618944155,6.151878753690721e-60,-7.034635213203162,-0.03715601506479524,1.357524049890262e-58,-0.37213526892018445,-0.006985220573864604,7.385095977186035e-59,-0.05716948554993397,0,70,255.0,255.0,255.0
272,13.600000000000001,-1.6035149868402656,1.2488384906811097e-59,-7.0533133501202,-0.03748683610706486,1.0683928521486825e-58,-0.37498844004312054,-0.006247621116919945,-1.2303757507381617e-57,-0.05695735936751127,0,70,255.0,255.0,255.0
273,13.65,-1.6053968308389077,1.5748951683085962e-59,-7.072133880435655,-0.037780777176487236,1.2714829915212833e-59,-0.3778310048569355,-0.005510021659975312,-2.5346024612481373e-57,-0.05674523318508857,0,70,255.0,255.0,255.0
274,13.700000000000001,-1.6072924498917,1.2673012306240494e-59,-7.091096273834075,-0.03803783827306239,-1.4662096090994681e-58,-0.3806629633616294,-0.004772422203030653,-3.8388291717581593e-57,-0.05653310700266587,0,70,255.0,255.0,255.0
275,13.75,-1.6092,0.0,-7.1102,-0.0382580193967903,-3.711680872605995e-58,-0.3834843155572021,-0.004034822746086131,-5.143055882268136e-57,-0.056320980820242283,0,70,255.0,255.0,255.0
276,13.8,-1.611118019753792,-2.295912407077727e-59,-7.129444368127565,-0.03846427586528851,-5.0663487266871254e-58,-0.38628543201904636,-0.004215435993841823,-2.7561553405630765e-58,-0.055723677653525164,0,70,255.0,255.0,255.0
277,13.850000000000001,-1.6130465780975687,-4.660728697669533e-59,-7.1488280454492665,-0.038679562996174484,-3.987296406662307e-58,-0.38905668332255466,-0.004396049241597515,4.591824814155521e-57,-0.055126374486808044,0,70,255.0,255.0,255.0
278,13.9,-1.6149861265644494,-5.877588784722418e-59,-7.168349538707182,-0.03890388078944825,-4.745239125317077e-59,-0.3917980694677271,-0.004576662489353202,9.459265162367176e-57,-0.054529071320090945,0,70,255.0,255.0,255.0
279,13.950000000000001,-1.6169371166875535,-4.729632581183513e-59,-7.1880073546434,-0.0391372292451098,5.471968755704922e-58,-0.39450959045456374,-0.004757275737108894,1.4326705510579006e-56,-0.053931768153373826,0,70,255.0,255.0,255.0
280,14.0,-1.6189,0.0,-7.2078,-0.03937960836315914,1.385218159804716e-57,-0.3971912462830644,-0.004937888984864469,1.9194145858790656e-56,-0.05333446498665717,0,70,255.0,255.0,255.0
281,14.05,-1.6208751590904165,8.568461752941837e-59,-7.227726514286574,-0.03962688147405031,1.8907870856858237e-57,-0.39987500300362966,-0.004953035450782095,1.0286111764533646e-57,-0.054015803835953335,0,70,255.0,255.0,255.0
282,14.100000000000001,-1.62286270076946,1.7394076299997023e-58,-7.247788068082738,-0.03987491190823735,1.488079277450054e-57,-0.4025928266666598,-0.004968181916699722,-1.7136923505883927e-56,-0.0546971426852495,0,70,255.0,255.0,255.0
283,14.15,-1.6248626629032952,2.1935459970581076e-58,-7.267986364735614,-0.040123699665720276,1.7709473509746978e-58,-0.40534471727215465,-0.004983328382617347,-3.530245818822057e-56,-0.05537848153454564,0,70,255.0,255.0,255.0
284,14.200000000000001,-1.626875083358087,1.7651229094110015e-58,-7.288323107592328,-0.04037324474649909,-2.042166541372022e-57,-0.40813067482011434,-0.004998474848534973,-5.346799287055786e-56,-0.0560598203838418,0,70,255.0,255.0,255.0
285,14.25,-1.6289,0.0,-7.3088,-0.04062354715057377,-5.169704551958264e-57,-0.41095069931053885,-0.005013621314452488,-7.163352755289449e-56,-0.05674115923313838,0,70,255.0,255.0,255.0
286,14.3,-1.630937343884542,-3.197793460468962e-58,-7.329417574726139,-0.040868198238510754,-7.056513470074583e-57,-0.4137345559664341,-0.004772422203026424,-3.8388291717571745e-57,-0.05461310700266978,0,70,255.0,255.0,255.0
287,14.350000000000001,-1.6329866188245916,-6.491557650231856e-58,-7.350171682219785,-0.04110078937087642,-5.553587469133988e-57,-0.4164120100108059,-0.00453122309160036,6.395586920938014e-56,-0.05248505477220118,0,70,255.0,255.0,255.0
288,14.4,-1.6350472218223702,-8.18642510976019e-58,-7.371057002350361,-0.04132132054767078,-6.609265491367108e-58,-0.4189830614436542,-0.004290023980174305,1.3175056759051505e-55,-0.050357002541732664,0,70,255.0,255.0,255.0
289,14.450000000000001,-1.6371185498800993,-6.587528379525649e-58,-7.392068214987292,-0.04152979176889385,7.621469289917591e-57,-0.4214477102649792,-0.004048824868748241,1.995452659716524e-55,-0.04822895031126406,0,70,255.0,255.0,255.0
290,14.5,-1.6392,0.0,-7.4132,-0.041726203034545606,1.929360004802834e-56,-0.42380595647478064,-0.003807625757321964,2.673399643527873e-55,-0.04610089808079776,0,70,255.0,255.0,255.0
291,14.55,-1.6412914653714155,1.1934327666581663e-57,-7.43444878680887,-0.04194032557190638,2.6335266794612504e-56,-0.4261627731306349,-0.0047572757371087925,1.432670551057529e-56,-0.04817176815337068,0,70,255.0,255.0,255.0
292,14.600000000000001,-1.6433948239321738,2.4226822970927718e-57,-7.455818003038124,-0.04220193060825649,2.0726270599085887e-56,-0.4286231332901178,-0.005706925716895622,-2.386865533316367e-55,-0.0502426382259436,0,70,255.0,255.0,255.0
293,14.65,-1.6455124498072244,3.0552154441982643e-57,-7.477312825862942,-0.04251101814359593,2.466611461449363e-57,-0.43118703695322924,-0.006656575696682416,-4.916998121738398e-55,-0.052313508298516456,0,70,255.0,255.0,255.0
294,14.700000000000001,-1.6476467171215166,2.45849906086916e-57,-7.498938432458507,-0.04286758817792473,-2.8443710618298353e-56,-0.4338544841199694,-0.007606225676469245,-7.447130710160518e-55,-0.05438437837108938,0,70,255.0,255.0,255.0
295,14.75,-1.6498,0.0,-7.5207,-0.043271640711242856,-7.20046956401551e-56,-0.43662547479033814,-0.008555875656255929,-9.977263298582545e-55,-0.05645524844366312,0,70,255.0,255.0,255.0
296,14.8,-1.651973594629796,-4.453951720585769e-57,-7.542600878038379,-0.04365849947386274,-9.828455370837542e-56,-0.43939035151102596,-0.006918474848538957,-5.346799287054386e-56,-0.054139820383846585,0,70,255.0,255.0,255.0
297,14.850000000000001,-1.6541644854467132,-9.041573423347899e-57,-7.56463710562772,-0.043963488196096766,-7.735149492720954e-56,-0.44203945682872287,-0.005281074040821985,8.907903441171668e-55,-0.05182439232403004,0,70,255.0,255.0,255.0
298,14.9,-1.6563685789487326,-1.140221926581704e-56,-7.586802894197868,-0.04418660687794493,-9.205519296660732e-57,-0.44457279074342887,-0.003643673233105071,1.835048681104844e-54,-0.04950896426421359,0,70,255.0,255.0,255.0
299,14.950000000000001,-1.6585817816338346,-9.175243405524076e-57,-7.609092455178679,-0.04432785551940726,1.0615337318327585e-55,-0.4469903532551442,-0.002006272425388099,2.7793070180925546e-54,-0.04719353620439705,0,70,255.0,255.0,255.0
300,15.0,-1.6608,0.0,-7.6315,-0.044387234120483746,2.6872518251259202e-55,-0.4492921443638686,-0.00036887161767129584,3.723565355080232e-54,-0.04487810814457882,0,70,255.0,255.0,255.0
301,15.05,-1.663020556109401,1.6622374115684913e-56,-7.65402130103761,-0.04444967653264413,3.668029480388893e-55,-0.4515718208252648,-0.0021288248687441978,1.995452659716009e-55,-0.046308950311268866,0,70,255.0,255.0,255.0
302,15.100000000000001,-1.6652464342809736,3.3743611396298838e-56,-7.676658374450999,-0.044600116607358166,2.8867970910975236e-55,-0.45392303939499556,-0.0038887781198170992,-3.32447482313703e-54,-0.04773979247795892,0,70,255.0,255.0,255.0
303,15.15,-1.667482034397846,4.25536616190699e-56,-7.699414797345583,-0.044838554344625844,3.4355465725193693e-56,-0.4563458000730607,-0.005648731370889938,-6.848494912245537e-54,-0.049170634644648915,0,70,255.0,255.0,255.0
304,15.200000000000001,-1.6697317563431457,3.4242474561227125e-56,-7.722294146826777,-0.045164989744447166,-3.9616978211480514e-55,-0.4588401028594604,-0.007408684621962839,-1.0372515001354168e-53,-0.05060147681133896,0,70,255.0,255.0,255.0
305,15.25,-1.672,0.0,-7.7453,-0.04557942280682212,-1.002896034410213e-54,-0.4614059477541946,-0.009168637873035679,-1.3896535090462666e-53,-0.05203231897802807,0,70,255.0,255.0,255.0
306,15.3,-1.6742897809326005,-6.2035544742153855e-56,-7.76843471781118,-0.04599879439555975,-1.3689272384471812e-54,-0.46397036518792195,-0.007606225676469136,-7.447130710158557e-55,-0.05054437837106451,0,70,255.0,255.0,255.0
307,15.350000000000001,-1.6765985774293921,-1.2593287216184742e-55,-7.791695796568288,-0.04634004537446904,-1.0773673415117992e-54,-0.4664603855913011,-0.006043813479902594,1.2407108948430955e-53,-0.04905643776410096,0,70,255.0,255.0,255.0
308,15.4,-1.6789224834598837,-1.5881242721046248e-55,-7.815079516419804,-0.04660317574355,-1.2821634360411379e-55,-0.468876008964332,-0.004481401283336106,2.55589309678773e-53,-0.04756849715713746,0,70,255.0,255.0,255.0
309,15.450000000000001,-1.6812575929935833,-1.2779465483938443e-55,-7.838582157514215,-0.04678818550280265,1.4785257552759443e-54,-0.4712172353070148,-0.002918989086769563,3.871075298732411e-53,-0.0460805565501739,0,70,255.0,255.0,255.0
310,15.5,-1.6836,0.0,-7.8622,-0.04689507465222696,3.7428589551282595e-54,-0.47348406461934944,-0.0013565768902029651,5.186257500677043e-53,-0.044592615943210845,0,70,255.0,255.0,255.0
311,15.55,-1.6859467201601972,2.3151980485293053e-55,-7.8859302277176715,-0.04697914588511685,5.108906005749835e-54,-0.4757307184230402,-0.002006272425392406,2.779307018091822e-54,-0.04527353620441802,0,70,255.0,255.0,255.0
312,15.600000000000001,-1.6882984560014576,4.699878772510908e-55,-7.909773639275856,-0.0470957018947662,4.020789656937445e-54,-0.4780114182397913,-0.002655967960581847,-4.6303960970586785e-53,-0.04595445646562519,0,70,255.0,255.0,255.0
313,15.65,-1.6906568317626198,5.9269604722278e-55,-7.933731936975202,-0.04724474268117503,4.785099086912603e-55,-0.48032616406960266,-0.003305663495771265,-9.538722895926363e-53,-0.04663537672683234,0,70,255.0,255.0,255.0
314,15.700000000000001,-1.693023471682521,4.769361447963106e-55,-7.957806823116367,-0.04742626824434333,-5.517933238988971e-54,-0.48267495591247456,-0.0039553590309607065,-1.4447049694794226e-52,-0.04731629698803951,0,70,255.0,255.0,255.0
315,15.75,-1.6954,0.0,-7.982,-0.0476402785842711,-1.3968539786102824e-53,-0.48505779376840663,-0.004605054566150346,-1.935537649366191e-52,-0.04799721724924755,0,70,255.0,255.0,255.0
316,15.8,-1.6977881384266114,-8.640436746695681e-55,-8.006312371318135,-0.04789262206397383,-1.906669678455216e-53,-0.4874267611199211,-0.005488684621958874,-1.0372515001351486e-53,-0.04676147681133072,0,70,255.0,255.0,255.0
317,15.850000000000001,-1.7001899985647773,-1.7540186368425158e-54,-8.030741646328295,-0.048189147046467,-1.5005791286237983e-53,-0.48973394144953974,-0.006372314677767402,1.728087349339161e-52,-0.045525736373413894,0,70,255.0,255.0,255.0
318,15.9,-1.7026077894896379,-2.2119717616806576e-54,-8.05528473567939,-0.04852985353175057,-1.785823291160931e-54,-0.4919793347572625,-0.007255944733575898,3.5598998486917725e-52,-0.04428999593549711,0,70,255.0,255.0,255.0
319,15.950000000000001,-1.7050437202763322,-1.7799499243458577e-54,-8.079938550020323,-0.048914741519824584,2.0593207200679923e-53,-0.4941629410430895,-0.008139574789384426,5.391712348044448e-52,-0.04305425549758028,0,70,255.0,255.0,255.0
320,16.0,-1.7075,0.0,-8.1047,-0.049343811010689013,5.213130018928304e-53,-0.4962847603070205,-0.009023204845192867,7.223524847397058e-52,-0.04181851505966261,0,70,255.0,255.0,255.0
321,16.05,-1.7099775261333583,3.224654893825342e-54,-8.129566687009795,-0.04973836585898807,7.115788113245881e-53,-0.49838623709726665,-0.006758989086768997,3.871075298731401e-53,-0.0422405565501828,0,70,255.0,255.0,255.0
322,16.1,-1.7124719497394334,6.546086670118972e-54,-8.154538975410969,-0.05001970991936592,5.600237548801449e-53,-0.5005088159620388,-0.004494773328345128,-6.449309787650778e-52,-0.04266259804070299,0,70,255.0,255.0,255.0
323,16.150000000000002,-1.7149776102788294,8.255190999499862e-54,-8.179617920307242,-0.05018784319182258,6.664783255950108e-54,-0.5026524969013371,-0.002230557569921258,-1.3285727105174698e-51,-0.043084639531223184,0,70,255.0,255.0,255.0
324,16.2,-1.7174888472121503,6.642863552587256e-54,-8.204804576802344,-0.050242765676358055,-7.685489556372721e-53,-0.504817279915161,3.3658188502450406e-05,-2.0122144422698128e-51,-0.04350668102174335,0,70,255.0,255.0,255.0
325,16.25,-1.72,0.0,-8.2301,-0.050184477372972325,-1.9455666097102932e-52,-0.5070031650035113,0.0022978739469264875,-2.695856174022204e-51,-0.04392872251225999,0,70,255.0,255.0,255.0
326,16.3,-1.7225073570399556,-1.20345759006318e-53,-8.25550488064268,-0.050129914500073196,-2.6556482774528303e-52,-0.509188290491019,-0.000115359030961216,-1.4447049694790426e-52,-0.04347629698804755,0,70,255.0,255.0,255.0
327,16.35,-1.7250150024774888,-2.4430328043633373e-53,-8.281018452027833,-0.05019601327606845,-2.0900371066581987e-52,-0.5113507947023161,-0.0025285920088489195,2.4069151801263954e-51,-0.043023871463835114,0,70,255.0,255.0,255.0
328,16.400000000000002,-1.7275289693950444,-3.0808792236318785e-53,-8.306639583091643,-0.05038277370095809,-2.4873309732640025e-53,-0.5134906776374026,-0.004941824986736623,4.9583008572006954e-51,-0.04257144593962268,0,70,255.0,255.0,255.0
329,16.45,-1.7300552908750664,-2.4791504286003116e-53,-8.332367142770302,-0.05069019577474209,2.8682637505423002e-52,-0.5156079392962782,-0.007355057964624155,7.509686534274814e-51,-0.042119020415410276,0,70,255.0,255.0,255.0
330,16.5,-1.7326,0.0,-8.3582,-0.051118279497420496,7.260953436948342e-52,-0.5177025796789434,-0.009768290942511748,1.0061072211349114e-50,-0.0416665948911934,0,70,255.0,255.0,255.0
331,16.55,-1.7351674457068187,4.491364870870186e-53,-8.384136990419481,-0.05156597614071801,9.911014298486735e-52,-0.5197726009386616,-0.008139574789388648,5.391712348043064e-52,-0.041134255497532725,0,70,255.0,255.0,255.0
332,16.6,-1.737755240350611,9.117522550441451e-53,-8.410176816477705,-0.051932236976359375,7.800124671752654e-52,-0.5218160052286968,-0.006510858636265547,-8.982729741740501e-51,-0.04060191610387206,0,70,255.0,255.0,255.0
333,16.650000000000002,-1.7403593121409937,1.1497997794577532e-52,-8.43631814732619,-0.052217062004344575,9.28284556746105e-53,-0.5238327925490489,-0.004882142483142446,-1.850463071828531e-50,-0.040069576710211385,0,70,255.0,255.0,255.0
334,16.7,-1.7429755892875844,9.252315359142529e-53,-8.462559652116449,-0.05242045122467361,-1.0704506046531916e-51,-0.5258229628997177,-0.0032534263300194608,-2.8026531694829437e-50,-0.039537237316550754,0,70,255.0,255.0,255.0
335,16.75,-1.7456,0.0,-8.4889,-0.0525424046373465,-2.7098247138083076e-51,-0.5277865162807037,-0.0016247101768964156,-3.754843267137425e-50,-0.039004897922887416,0,70,255.0,255.0,255.0
336,16.8,-1.7482292601327696,-1.6762001893417565e-52,-8.515338357679395,-0.05263018093705624,-3.698840891649411e-51,-0.5297533057543206,-0.0018863418114930235,-2.0122144422693223e-51,-0.039666681021785354,0,70,255.0,255.0,255.0
337,16.85,-1.750863236120068,-3.4027057397402476e-52,-8.541875882061346,-0.05273103881849581,-2.9110461580352417e-51,-0.5317531843828823,-0.0021479734460896314,3.3524003786835606e-50,-0.04032846412068329,0,70,255.0,255.0,255.0
338,16.900000000000002,-1.7535025820409815,-4.291111195467825e-52,-8.5685142276036,-0.052844978281665206,-3.4644051296580216e-52,-0.533786152166389,-0.002409605080686239,6.906022201594054e-50,-0.04099024721958123,0,70,255.0,255.0,255.0
339,16.95,-1.7561479519745966,-3.453011100796979e-52,-8.595255048763903,-0.05297199932656443,3.994976043558538e-51,-0.5358522091048403,-0.002671236715282828,1.0459644024504295e-49,-0.04165203031847912,0,70,255.0,255.0,255.0
340,17.0,-1.7588,0.0,-8.6221,-0.05311210195319348,1.0113203511538397e-50,-0.5379513551982369,-0.0029328683498793806,1.4013265847414787e-49,-0.04231381341737794,0,70,255.0,255.0,255.0
341,17.05,-1.7614595137621032,6.2556642702800065e-52,-8.649049578862932,-0.05327330011105608,1.380426213674897e-50,-0.5400141760440567,-0.0035150579646245766,7.509686534272957e-51,-0.04019902041541276,0,70,255.0,255.0,255.0
342,17.1,-1.7641278151691178,1.2699070703916842e-51,-8.676099655276904,-0.053463607749655945,1.08641721649657e-50,-0.5419712572397782,-0.004097247579369773,-1.2511328540560195e-49,-0.03808422741344757,0,70,255.0,255.0,255.0
343,17.150000000000002,-1.766806359695081,1.601464500241354e-51,-8.70324494225941,-0.05368302486899306,1.2929335961885916e-51,-0.5438225987854015,-0.004679437194114969,-2.5773625734547684e-49,-0.03596943441148239,0,70,255.0,255.0,255.0
344,17.2,-1.7694966028140293,1.288681286727366e-51,-8.730480152827942,-0.053931551469067425,-1.4909453569580963e-50,-0.5455682006809264,-0.005261626808860123,-3.903592292853424e-49,-0.033854641409517355,0,70,255.0,255.0,255.0
345,17.25,-1.7722,0.0,-8.7578,-0.054209187549879065,-3.774298933234528e-50,-0.5472080629263533,-0.005843816423605208,-5.229822012252174e-49,-0.03173984840755484,0,70,255.0,255.0,255.0
346,17.3,-1.7749174848188178,-2.3346456891778274e-51,-8.785200926868871,-0.05448461861871979,-5.151820765534648e-50,-0.5488459900694553,-0.005173426330023436,-2.802653169482264e-50,-0.033777237316528846,0,70,255.0,255.0,255.0
347,17.35,-1.7776479032034609,-4.739357707592713e-51,-8.812686296831036,-0.054726530182881414,-4.054564250182757e-50,-0.5505857866580062,-0.004503036236441663,4.669291378355721e-49,-0.035814626225502855,0,70,255.0,255.0,255.0
348,17.400000000000002,-1.7803895791786946,-5.976746881418636e-51,-8.840261203358764,-0.05493492224236396,-4.825293871788594e-51,-0.5524274526920058,-0.0038326461428598905,9.618848073659668e-49,-0.03785201513447686,0,70,255.0,255.0,255.0
349,17.45,-1.7831408367692856,-4.809424036829768e-51,-8.867930739924327,-0.0551097947971674,5.564283823476533e-50,-0.5543709881714538,-0.0031622560492781653,1.4568404768963262e-48,-0.03988940404345073,0,70,255.0,255.0,255.0
350,17.5,-1.7859,0.0,-8.8957,-0.055251147847291765,1.4085875381784272e-49,-0.5564163930963507,-0.002491865955696504,1.9517961464267214e-48,-0.041926792952422964,0,70,255.0,255.0,255.0
351,17.55,-1.788665746962626,8.713016329683309e-51,-8.923572313661577,-0.05538022541406614,1.9226856848463694e-49,-0.5584578636781233,-0.0026712367152785825,1.045964402450172e-49,-0.039732030318483214,0,70,255.0,255.0,255.0
352,17.6,-1.7914381720170398,1.7687523759979169e-50,-8.95154395739895,-0.05551827151881963,1.513183978423446e-49,-0.560389596128199,-0.002850607474860661,-1.742603265936687e-48,-0.03753726768454347,0,70,255.0,255.0,255.0
353,17.650000000000002,-1.7942177235901409,2.230552302543318e-50,-8.979609444305535,-0.05566528616155221,1.8008241890965799e-50,-0.5622115904465778,-0.0030299782344427395,-3.5898029721183906e-48,-0.03534250505060372,0,70,255.0,255.0,255.0
354,17.7,-1.7970048501088278,1.7949014860591705e-50,-9.007763287474745,-0.0558212693422639,-2.076618993694802e-49,-0.5639238466332595,-0.003209348994024805,-5.437002678299964e-48,-0.03314774241666413,0,70,255.0,255.0,255.0
355,17.75,-1.7998,0.0,-9.036,-0.05598622106095468,-5.256920259390256e-49,-0.565526364688244,-0.003388719753606495,-7.284202384481669e-48,-0.030952979782719936,0,70,255.0,255.0,255.0
356,17.8,-1.8026035273306795,-3.251741962955541e-50,-9.064315418484819,-0.05615447972501635,-7.175560662832012e-49,-0.5670985552180502,-0.0033416268088601537,-3.903592292852473e-49,-0.03193464140952253,0,70,255.0,255.0,255.0
357,17.85,-1.8054154087283811,-6.601073733232397e-50,-9.092710673573162,-0.0563203837418407,-5.647279488675507e-49,-0.5687198288291963,-0.003294533864113812,6.503483925911174e-48,-0.03291630303632512,0,70,255.0,255.0,255.0
358,17.900000000000002,-1.808235526460743,-8.3245345220314115e-50,-9.121188219419095,-0.056483933111427735,-6.720767369207413e-50,-0.5703901855216826,-0.0032474409193674705,1.3397327081107596e-47,-0.03389796466312771,0,70,255.0,255.0,255.0
359,17.95,-1.8110637627954032,-6.698663540553708e-50,-9.149750510176684,-0.05664512783377744,7.750047592431558e-49,-0.572109625295509,-0.003200347974621132,2.029117023630353e-47,-0.03487962628993023,0,70,255.0,255.0,255.0
360,18.0,-1.8139,0.0,-9.1784,-0.05680396790888984,1.9619093499382596e-48,-0.5738781481506755,-0.0031532550298746798,2.718501339149995e-47,-0.03586128791672838,0,70,255.0,255.0,255.0
361,18.05,-1.8167441437146568,1.2135666218853831e-49,-9.20713801239915,-0.056961855685868666,2.6779556966481676e-48,-0.5756279154496804,-0.003162256049278234,1.4568404768959665e-48,-0.034129404043463096,0,70,255.0,255.0,255.0
362,18.1,-1.8195961930694367,2.4635542556931667e-49,-9.23596134830841,-0.05712019351381767,2.1075933976278583e-48,-0.5772910885550219,-0.003171257068681788,-2.4271332437708017e-47,-0.032397520170197806,0,70,255.0,255.0,255.0
363,18.150000000000002,-1.822456170566888,3.106758578558233e-49,-9.26486567801809,-0.05727898139273685,2.5082245287733124e-49,-0.5788676674667002,-0.003180258088085342,-4.9999505352312e-47,-0.030665636296932523,0,70,255.0,255.0,255.0
364,18.2,-1.8253240987095596,2.4999752676155657e-49,-9.293846671818516,-0.057438219322626195,-2.892357137603144e-48,-0.580357652184715,-0.0031892591074888952,-7.572767826691416e-47,-0.02893375242366736,0,70,255.0,255.0,255.0
365,18.25,-1.8282,0.0,-9.3229,-0.05759790730348573,-7.321945373814013e-48,-0.5817610427090668,-0.0031982601268925603,-1.014558511815181e-46,-0.0272018685504003,0,70,255.0,255.0,255.0
366,18.3,-1.8310838978106942,-4.529092291245978e-49,-9.352022931918587,-0.057758097531508665,-9.994266720309469e-48,-0.5831737829832428,-0.003209348994024686,-5.437002678298631e-48,-0.029307742416636837,0,70,255.0,255.0,255.0
367,18.35,-1.8339758189938737,-9.194109649449427e-49,-9.381219133193214,-0.057918842202888204,-7.865645641643882e-48,-0.5846918169507305,-0.0032204378611568113,9.058184582492085e-47,-0.031413616282873376,0,70,255.0,255.0,255.0
368,18.400000000000002,-1.8368757912717057,-1.1594580862029789e-48,-9.41049386850855,-0.05808014131762435,-9.360821378172536e-49,-0.5863151446115302,-0.0032315267282889363,1.8660069432814034e-46,-0.03351949014910991,0,70,255.0,255.0,255.0
369,18.45,-1.8397838423663586,-9.330034716406888e-49,-9.439852402549253,-0.058241994875717094,1.0794423791169413e-47,-0.5880437659656415,-0.003242615595421061,2.8261954283135303e-46,-0.0356253640153463,0,70,255.0,255.0,255.0
370,18.5,-1.8427,0.0,-9.4693,-0.05840440287716645,2.732587214531779e-47,-0.5898776810130647,-0.0032537044625530753,3.786383913345726e-46,-0.03773123788157928,0,70,255.0,255.0,255.0
371,18.55,-1.8456242650425665,1.690280254309853e-48,-9.498839859926509,-0.05856575418809581,3.729911118458971e-47,-0.5916929526173523,-0.00320034797462102,2.029117023629858e-47,-0.03487962628992683,0,70,255.0,255.0,255.0
372,18.6,-1.8485565309550698,3.431288434210454e-48,-9.528466918918744,-0.05872443767462855,2.9354989168947674e-47,-0.5933656436420575,-0.0031469914866889643,-3.380560508619754e-46,-0.032028014698274376,0,70,255.0,255.0,255.0
373,18.650000000000002,-1.8514966643462896,4.327156486956091e-48,-9.558174047947723,-0.058880453336764706,3.493506098391676e-48,-0.5948957540871799,-0.003093634998756909,-6.964032719602495e-46,-0.029176403106621916,0,70,255.0,255.0,255.0
374,18.7,-1.8544445318250062,3.4820163598011994e-48,-9.587954117984467,-0.05903380117450424,-4.0285338027074507e-47,-0.5962832839527196,-0.0030402785108248572,-1.0547504930584979e-45,-0.026324791514969664,0,70,255.0,255.0,255.0
375,18.75,-1.8574,0.0,-9.6178,-0.05918448118784719,-1.0198154320745715e-46,-0.5975282332386767,-0.0029869220228927462,-1.413097714156772e-45,-0.023473179923316323,0,70,255.0,255.0,255.0
376,18.8,-1.8603630420190396,-6.308211788114815e-48,-9.647706428375383,-0.05933888571610685,-1.3920217801804937e-46,-0.5987424065473514,-0.0031892591074931726,-7.57276782668956e-47,-0.025093752423676487,0,70,255.0,255.0,255.0
377,18.85,-1.8633340571858479,-1.2805742771896872e-47,-9.67767559113182,-0.059503407098596514,-1.0955431103414681e-46,-0.6000376084810444,-0.003391596192093599,1.2616423576229809e-45,-0.02671432492403665,0,70,255.0,255.0,255.0
378,18.900000000000002,-1.8663135513431364,-1.6149167861621392e-47,-9.707711539700568,-0.05967804533531621,-1.30379422557495e-47,-0.6014138390397552,-0.0035939332766940254,2.5990123935128572e-45,-0.028334897424396814,0,70,255.0,255.0,255.0
379,18.95,-1.8693020303336167,-1.2995061967564111e-47,-9.737818325512878,-0.059862800426265905,1.503469283171286e-46,-0.602871098223484,-0.0037962703612944375,3.9363824294026386e-45,-0.02995546992475686,0,70,255.0,255.0,255.0
380,19.0,-1.8723,0.0,-9.768,-0.060057672371445645,3.806003006845108e-46,-0.6044093860322309,-0.003998607445894753,5.273752465292514e-45,-0.03157604242511969,0,70,255.0,255.0,255.0
381,19.05,-1.8753075668812753,2.35425668981494e-47,-9.798259226571975,-0.060238702947478434,5.195096008876077e-46,-0.6059454211932421,-0.0032426155954167093,2.826195428312831e-46,-0.02986536401532491,0,70,255.0,255.0,255.0
382,19.1,-1.8783232403015395,4.779168265337703e-47,-9.828593116553984,-0.06038193393098732,4.088622549676394e-46,-0.6073959224337634,-0.0024866237449386657,-4.708513379629948e-45,-0.028154685605530135,0,70,255.0,255.0,255.0
383,19.150000000000002,-1.8813451302811655,6.026951495952944e-47,-9.858997393250009,-0.060487365321972304,4.865826292460609e-47,-0.6087608897537952,-0.0017306318944606226,-9.69964630209118e-45,-0.026444007195735357,0,70,255.0,255.0,255.0
384,19.200000000000003,-1.8843713468405279,4.849823151045322e-47,-9.889467779964024,-0.060554997120433385,-5.611023752414925e-46,-0.610040323153337,-0.000974640043982579,-1.469077922455241e-44,-0.024733328785940582,0,70,255.0,255.0,255.0
385,19.25,-1.8874,0.0,-9.92,-0.060584829326370555,-1.420419659530586e-45,-0.611234222632389,-0.00021864819350420062,-1.9681912147013287e-44,-0.023022650376145037,0,70,255.0,255.0,255.0
386,19.3,-1.8904298904558592,-8.786205580448277e-47,-9.95059106533673,-0.06061830249397879,-1.9388362255323817e-45,-0.6124199086796679,-0.0011202785108249918,-1.0547504930582388e-45,-0.024404791515006984,0,70,255.0,255.0,255.0
387,19.35,-1.8934625816079957,-1.783609878416112e-46,-9.981243142652248,-0.06069685717745305,-1.5258947088364112e-45,-0.6136747017838897,-0.002021908828145783,1.757241116089681e-44,-0.025786932653868926,0,70,255.0,255.0,255.0
388,19.400000000000002,-1.8965003275322025,-2.249288919764964e-46,-10.011959687299404,-0.06082049337679337,-1.8159510944267596e-46,-0.6149986019450547,-0.0029235391454665743,3.619957281485185e-44,-0.027169073792730872,0,70,255.0,255.0,255.0
389,19.450000000000003,-1.899545382304273,-1.809978640742493e-46,-10.04274415463104,-0.06098921109199972,2.094062572648826e-45,-0.6163916091631629,-0.003825169462787366,5.48267344688069e-44,-0.02855121493159282,0,70,255.0,255.0,255.0
390,19.5,-1.9026,0.0,-10.0736,-0.0612030103230721,5.301078337437833e-45,-0.617853723438214,-0.0047267997801079265,7.345389612276063e-44,-0.029933356070454664,0,70,255.0,255.0,255.0
391,19.55,-1.9056656712952875,3.279056563197817e-46,-10.104529312081107,-0.06141608707660716,7.235835301241918e-45,-0.6193029440880936,-0.0037962703612943608,3.936382429401672e-45,-0.028035469924729002,0,70,255.0,255.0,255.0
392,19.6,-1.9087408332664786,6.656522687130679e-46,-10.135528712837022,-0.06158263735920154,5.694716580378006e-45,-0.620657270430687,-0.0028657409424807947,-6.558113126395729e-44,-0.02613758377900334,0,70,255.0,255.0,255.0
393,19.650000000000002,-1.9118231595900257,8.394460529464561e-46,-10.166593457552388,-0.061702661170855246,6.7772217484609416e-46,-0.621916702465994,-0.001935211523667229,-1.3509864495731627e-43,-0.024239697633277678,0,70,255.0,255.0,255.0
394,19.700000000000003,-1.914910323942382,6.75493224786544e-46,-10.197718801511835,-0.06177615851156827,-7.815147915353812e-45,-0.6230812401940148,-0.0010046821048536629,-2.046161586506752e-43,-0.022341811487552012,0,70,255.0,255.0,255.0
395,19.75,-1.918,0.0,-10.2289,-0.0618031293813406,-1.9783893690220746e-44,-0.6241508836147491,-7.415268603999658e-05,-2.741336723440293e-43,-0.020443925341826485,0,70,255.0,255.0,255.0
396,19.8,-1.9210906243629904,-1.2237605694746442e-45,-10.260133286338851,-0.06182934919959116,-2.700450497943529e-44,-0.6251843149679435,-0.000974640043982446,-1.4690779224548462e-44,-0.020893328785948746,0,70,255.0,255.0,255.0
397,19.85,-1.9241836853260907,-2.4842480870106604e-45,-10.291418805999665,-0.06190059338573885,-2.125297161267561e-44,-0.626240216493344,-0.0018751274019248954,2.4475211389493237e-43,-0.021342732230071007,0,70,255.0,255.0,255.0
398,19.900000000000002,-1.927281434107696,-3.1328553198093286e-45,-10.322757682491055,-0.06201686193978366,-2.5292935899416976e-45,-0.6273185881909507,-0.002775614759867345,5.041950070144132e-43,-0.021792135674193268,0,70,255.0,255.0,255.0
399,19.950000000000003,-1.9303861219262008,-2.5209750350719284e-45,-10.354151039321632,-0.062178154861725586,2.916652908876643e-44,-0.6284194300607634,-0.003676102117809794,7.63637900133894e-43,-0.022241539118315525,0,70,255.0,255.0,255.0
400,20.0,-1.9335,0.0,-10.3856,-0.06238447215156463,7.383449642344515e-44,-0.6295427421027823,-0.004576589475752013,1.0230807932533565e-42,-0.022690942562436867,0,70,255.0,255.0,255.0
401,20.05,-1.9366246312527509,4.5671366215787956e-45,-10.417105542563498,-0.06259451612502823,1.0078218461649924e-43,-0.6306797960401334,-0.0038251694627914673,5.482673446879216e-44,-0.022791214931605276,0,70,255.0,255.0,255.0
402,20.1,-1.939758825429159,9.271340079329574e-45,-10.448668063164321,-0.06276698909784378,7.931716987032445e-44,-0.6318218635959427,-0.0030737494498309214,-9.134273243157722e-43,-0.022891487300773686,0,70,255.0,255.0,255.0
403,20.150000000000002,-1.942900703979191,1.169197522629086e-44,-10.480287812483398,-0.06290189107001132,9.439452184920728e-45,-0.6329689447702107,-0.002322329436870375,-1.8816813831003368e-42,-0.022991759669942095,0,70,255.0,255.0,255.0
404,20.200000000000003,-1.946048388352816,9.408406915501164e-45,-10.51196504120165,-0.06299922204153081,-1.0885096843971188e-43,-0.6341210395629371,-0.0015709094239098292,-2.849935441884901e-42,-0.023092032039110505,0,70,255.0,255.0,255.0
405,20.25,-1.9492,0.0,-10.5437,-0.0630589820124023,-2.7555409200355987e-43,-0.6352781479741216,-0.0008194894109491146,-3.8181895006693964e-42,-0.02319230440827802,0,70,255.0,255.0,255.0
406,20.3,-1.9523540506260062,-1.7044785916840536e-44,-10.575492543407167,-0.06310458630029726,-3.761242334865617e-43,-0.6364165008715175,-0.0010046821048492996,-2.0461615865062013e-43,-0.022341811487552463,0,70,255.0,255.0,255.0
407,20.35,-1.9555106129572748,-3.460111223030763e-44,-10.60734094134305,-0.06315945022288723,-2.960157078686221e-43,-0.6375123291228769,-0.0011898747987494848,3.408957183368156e-42,-0.02149131856682691,0,70,255.0,255.0,255.0
408,20.400000000000002,-1.95867014997554,-4.3635045585354107e-44,-10.639243067575354,-0.06322357378017221,-3.5228515149741127e-44,-0.6385656327282002,-0.00137506749264967,7.022530525386933e-42,-0.020640825646101355,0,70,255.0,255.0,255.0
409,20.450000000000003,-1.961833124662537,-3.511265262693271e-44,-10.67119679587177,-0.06329695697215221,4.062373446700812e-43,-0.639576411687487,-0.001560260186549855,1.0636103867405709e-41,-0.0197903327253758,0,70,255.0,255.0,255.0
410,20.5,-1.965,0.0,-10.7032,-0.0633795997988272,1.0283818715907944e-42,-0.6405446660007378,-0.0017454528804500269,1.424967720942423e-41,-0.018939839804649417,0,70,255.0,255.0,255.0
411,20.55,-1.9681711662432242,6.361200704578336e-44,-10.735250683807843,-0.06346713867378369,1.4037147493297476e-42,-0.6414782004738113,-0.0017561021178099658,7.636379001336871e-43,-0.018401539118289803,0,70,255.0,255.0,255.0
412,20.6,-1.971346722741743,1.2913310884190098e-43,-10.767347371463478,-0.0635552100106082,1.1047456616041642e-42,-0.6423848199125668,-0.0017667513551699046,-1.2722401409156855e-41,-0.01786323843193019,0,70,255.0,255.0,255.0
413,20.650000000000002,-1.9745266961186496,1.628482071151256e-43,-10.799488717215194,-0.06364381380930069,1.3147460841404338e-43,-0.6432645243170043,-0.0017774005925298435,-2.6208440718447395e-41,-0.01732493774557058,0,70,255.0,255.0,255.0
414,20.700000000000003,-1.9777111129970377,1.3104220359222973e-43,-10.831673375311274,-0.06373295006986117,-1.5160984102406124e-42,-0.6441173136871239,-0.0017880498298897824,-3.969448002773794e-41,-0.016786637059210966,0,70,255.0,255.0,255.0
415,20.75,-1.9809,0.0,-10.8639,-0.06382261879228968,-3.8379733943596174e-42,-0.6449431880229254,-0.0017986990672496095,-5.318051933702752e-41,-0.016248336372849614,0,70,255.0,255.0,255.0
416,20.8,-1.9840932844010972,-2.3740324226629286e-43,-10.896167921361473,-0.06390685900456855,-5.238734763832429e-42,-0.6457826972332247,-0.0015709094239054057,-2.849935441884125e-42,-0.01733203203912252,0,70,255.0,255.0,255.0
417,20.85,-1.9872904960757543,-4.8193132313729625e-43,-10.928479172803044,-0.06397970973468022,-4.122966938548033e-42,-0.6466763912268376,-0.0013431197805612019,4.748064845325927e-41,-0.018415727705395422,0,70,255.0,255.0,255.0
418,20.900000000000002,-1.9904910655498624,-6.0775778287514815e-43,-10.960836463563881,-0.06404117098262467,-4.9066991850643494e-43,-0.6476242700037642,-0.001115330137216998,9.781123234840265e-41,-0.019499423371668323,0,70,255.0,255.0,255.0
419,20.950000000000003,-1.993694423349314,-4.890561617419862e-43,-10.993242502883144,-0.06409124274840192,5.6581562962923716e-42,-0.6486263335640046,-0.0008875404938727941,1.4814181624354605e-40,-0.020583119037941227,0,70,255.0,255.0,255.0
420,21.0,-1.9969,0.0,-11.0257,-0.06412992503201195,1.4323511705847674e-41,-0.6496825819075585,-0.0006597508505283844,1.9847240013868586e-40,-0.021666814704214943,0,70,255.0,255.0,255.0
421,21.05,-2.000107696152387,8.860009620193882e-43,-11.058210430746268,-0.06418542530793903,1.9551224305999963e-41,-0.6507190105932991,-0.0015602601865540538,1.0636103867402856e-41,-0.01979033272541028,0,70,255.0,255.0,255.0
422,21.1,-2.0033192929552404,1.798592183707284e-42,-11.090770337324349,-0.06428595105066735,1.538712209258797e-41,-0.6516616151800996,-0.0024607695225797232,-1.7720019240388015e-40,-0.017913850746605623,0,70,255.0,255.0,255.0
423,21.150000000000002,-2.006537041681901,2.2681829243854674e-42,-11.123375028529296,-0.06443150226019699,1.831205065611697e-42,-0.6525103956679597,-0.0033612788586053926,-3.650364886751632e-40,-0.01603736876780096,0,70,255.0,255.0,255.0
424,21.200000000000003,-2.0097631936057074,1.8251824433757152e-42,-11.156019813156165,-0.06462207893652791,-2.1116526774928859e-41,-0.6532653520568796,-0.004261788194631062,-5.5287278494644615e-40,-0.0141608867889963,0,70,255.0,255.0,255.0
425,21.25,-2.013,0.0,-11.1887,-0.06485768107966007,-5.345607342903108e-41,-0.6539264843468594,-0.0051622975306558905,-7.407090812177158e-40,-0.012284404810194438,0,70,255.0,255.0,255.0
426,21.3,-2.0162487309893544,-3.3066006058112597e-42,-11.221411955653462,-0.06507943976367392,-7.296616246016743e-41,-0.6545572603935931,-0.0037080498298978984,-3.9694480027727106e-41,-0.012946637059151387,0,70,255.0,255.0,255.0
427,21.35,-2.0195067321032836,-6.71243741169184e-42,-11.254156277899568,-0.06522848606264987,-5.742552143180386e-41,-0.6552211480527745,-0.0022538021291399067,6.613201211622616e-40,-0.013608869308108337,0,70,255.0,255.0,255.0
428,21.400000000000002,-2.0227703677225355,-8.464973914666722e-42,-11.286934622318947,-0.06530481997658792,-6.834150343940343e-42,-0.6559181473244039,-0.0007995544283819151,1.36233472235225e-39,-0.014271101557065286,0,70,255.0,255.0,255.0
429,21.450000000000003,-2.0260360022278583,-6.811673611760874e-42,-11.319748644492217,-0.06530844150548806,7.88079508034231e-41,-0.656648258208481,0.000654693272376077,2.063349323542239e-39,-0.014933333806022235,0,70,255.0,255.0,255.0
430,21.5,-2.0293,0.0,-11.3526,-0.0652393506493503,1.9950078201027664e-40,-0.6574114807050061,0.002108940973134521,2.7643639247321768e-39,-0.01559556605498269,0,70,255.0,255.0,255.0
431,21.55,-2.032559779890196,1.234040146122565e-41,-11.385489746639896,-0.06516081563736843,2.7231342553466972e-40,-0.6581719478323296,0.0010324595061398448,1.4814181624350545e-40,-0.014823119037956356,0,70,255.0,255.0,255.0
432,21.6,-2.0358169786316265,2.5051157463060074e-41,-11.418416551077385,-0.06513610469873632,2.1431496363462732e-40,-0.6588937926088018,-4.4021960854831454e-05,-2.468080292245166e-39,-0.014050672020930022,0,70,255.0,255.0,255.0
433,21.650000000000002,-2.0390742874279586,3.1591712734281403e-41,-11.451378482194931,-0.06516521783345393,2.5505396310149563e-41,-0.6595770150344227,-0.0011205034278495077,-5.084302400733838e-39,-0.013278225003903688,0,70,255.0,255.0,255.0
434,21.700000000000003,-2.0423343974828607,2.5421512003667774e-41,-11.484373608874984,-0.06524815504152127,-2.9411527643876364e-40,-0.6602216151091921,-0.002196984894844184,-7.700524509222509e-39,-0.012505777986877353,0,70,255.0,255.0,255.0
435,21.75,-2.0456,0.0,-11.5174,-0.06538491632293833,-7.445470546120754e-40,-0.6608275928331103,-0.0032734663618385618,-1.0316746617710994e-38,-0.011733330969851075,0,70,255.0,255.0,255.0
436,21.8,-2.048872949449863,-4.605500523909134e-41,-11.55045625778696,-0.06552529768685007,-1.0162875396785115e-39,-0.6614269482770817,-0.002341788194630854,-5.528727849462959e-40,-0.012240886789001778,0,70,255.0,255.0,255.0
437,21.85,-2.0521517533702123,-9.349219244054845e-41,-11.583543117790892,-0.06561909514240143,-7.998343331067059e-40,-0.6620516815120104,-0.001410110027423146,9.211001047818403e-39,-0.01274844260815248,0,70,255.0,255.0,255.0
438,21.900000000000002,-2.0554340825656308,-1.1790187702245891e-40,-11.616661848901343,-0.06566630868959239,-9.5187434896658e-41,-0.662701792537897,-0.00047843186021543846,1.8974874880583099e-38,-0.013255998427303184,0,70,255.0,255.0,255.0
439,21.950000000000003,-2.058717607840699,-9.48743744029103e-41,-11.649813720007867,-0.06566693832842296,1.097653154951631e-39,-0.6633772813547408,0.00045324630699226974,2.8738748713347797e-38,-0.013763554246453886,0,70,255.0,255.0,255.0
440,22.0,-2.062,0.0,-11.683,-0.06562098405889316,2.778687436438025e-39,-0.6640781479625423,0.0013849244742001332,3.850262254611179e-38,-0.014271110065602777,0,70,255.0,255.0,255.0
441,22.05,-2.0652796223103524,1.7187961949513967e-40,-11.716221222212267,-0.06556999361522897,3.792836733179376e-39,-0.664760259059333,0.0006546932723677908,2.0633493235416743e-39,-0.013013333806027365,0,70,255.0,255.0,255.0
442,22.1,-2.068557607887524,3.489176122991337e-40,-11.749474977759052,-0.06555551473165637,2.9850223687921946e-39,-0.6653794813431451,-7.553792946455164e-05,-3.437592389902844e-38,-0.011755557546451953,0,70,255.0,255.0,255.0
443,22.150000000000002,-2.07183578230952,4.400157953555541e-40,-11.782758122199699,-0.06557754740817541,3.5524434327648215e-40,-0.6659358148139782,-0.000805769131296894,-7.081519712159855e-38,-0.010497781286876541,0,70,255.0,255.0,255.0
444,22.200000000000003,-2.075115971154344,3.5407598560797316e-40,-11.816067511093568,-0.06563609164478608,-4.0964973433677625e-39,-0.6664292594718327,-0.0015360003331292365,-1.0725447034416867e-37,-0.00924000502730113,0,70,255.0,255.0,255.0
445,22.25,-2.0784,0.0,-11.8494,-0.06573114744148835,-1.0370202691140024e-38,-0.6668598153167082,-0.002266231534961416,-1.4369374356673618e-37,-0.00798222876772492,0,70,255.0,255.0,255.0
446,22.3,-2.081689361308726,-6.414634727414674e-40,-11.882753253363969,-0.06584272785223348,-1.4155059393038993e-38,-0.6672760154855744,-0.0021969848948439666,-7.700524509220432e-39,-0.008665777986920996,0,70,255.0,255.0,255.0
447,22.35,-2.0849842150796896,-1.3021782567559866e-39,-11.916128171172907,-0.06595084593097275,-1.1140255142062081e-38,-0.6677263931154004,-0.002127738254726517,1.2829269454829531e-37,-0.009349327206117072,0,70,255.0,255.0,255.0
448,22.400000000000002,-2.08828438819629,-1.6421613043997582e-39,-11.94952646229986,-0.06605550167770613,-1.3257899382092748e-39,-0.6682109482061861,-0.0020584916146090676,2.642859136058111e-37,-0.010032876425313149,0,70,255.0,255.0,255.0
449,22.450000000000003,-2.091589707541927,-1.3214295680289829e-39,-11.982949835617877,-0.06615669509243366,1.5288336218519407e-38,-0.6687296807579317,-0.001989244974491618,4.002791326633268e-37,-0.010716425644509225,0,70,255.0,255.0,255.0
450,22.5,-2.0949,0.0,-12.0164,-0.06625442617515528,3.870212332812207e-38,-0.669282590770637,-0.0019199983343738403,5.36272351720833e-37,-0.011399974863705253,0,70,255.0,255.0,255.0
451,22.55,-2.098214932454742,2.39397427147073e-39,-12.049877764331857,-0.0663390949758397,5.28274008389766e-38,-0.6698156789983896,-0.001466753693003169,2.873874871334002e-38,-0.009923554246394042,0,70,255.0,255.0,255.0
452,22.6,-2.101533531793716,4.859795414724811e-39,-12.083380337549327,-0.06640110154445561,4.1575998199456115e-38,-0.6702749461952764,-0.0010135090516324979,-4.7879485429415295e-37,-0.008447133629082828,0,70,255.0,255.0,255.0
453,22.650000000000002,-2.1048546649053197,6.128629422243479e-39,-12.11690402860087,-0.06644044588100295,4.9479154095606276e-39,-0.6706603923612978,-0.0005602644102618267,-9.86328457301646e-37,-0.006970713011771616,0,70,255.0,255.0,255.0
454,22.700000000000003,-2.1081771986779487,4.931642286507957e-39,-12.150445146434944,-0.06645712798548178,-5.705684753070988e-38,-0.6709720174964536,-0.00010701976889115547,-1.4938620603091389e-36,-0.005494292394460403,0,70,255.0,255.0,255.0
455,22.75,-2.1115,0.0,-12.184,-0.06645114785789208,-1.4443829062134827e-37,-0.6712098216007439,0.0003462248724797057,-2.0013956633165955e-36,-0.00401787177715196,0,70,255.0,255.0,255.0
456,22.8,-2.1148221088723065,-8.934433613141451e-39,-12.217566089308614,-0.06643289224440821,-1.971545439628674e-37,-0.6714452685208554,0.0003839996668748574,-1.0725447034413943e-37,-0.005400005027309815,0,70,255.0,255.0,255.0
457,22.85,-2.1181432577454453,-1.8137003402143262e-38,-12.251145678629793,-0.06641274789120459,-1.5516373765576236e-37,-0.6717498221034749,0.00042177446127000915,1.7868867226283166e-36,-0.00678213827746767,0,70,255.0,255.0,255.0
458,22.900000000000002,-2.121463352182431,-2.287235638457415e-38,-12.28474222329667,-0.06639071479828122,-1.8465871700033142e-38,-0.6721234823486022,0.0004595492556651609,3.681027915600773e-36,-0.008164271527625526,0,70,255.0,255.0,255.0
459,22.950000000000003,-2.1247822977462785,-1.8405139578002845e-38,-12.318359178642364,-0.06636679296563808,2.1293905390432007e-37,-0.6725662492562375,0.0004973240500603126,5.575169108573229e-36,-0.00954640477778338,0,70,255.0,255.0,255.0
460,23.0,-2.1281,0.0,-12.352,-0.06634098239327518,5.39051039157271e-37,-0.6730781228263805,0.0005350988444556837,7.469310301545548e-36,-0.010928538027940249,0,70,255.0,255.0,255.0
461,23.05,-2.1314166320560326,3.3343760181095085e-38,-12.385666678433694,-0.06632933604652619,7.35790775012493e-37,-0.6735712469181927,-6.924497449586095e-05,4.002791326632171e-37,-0.00879642564454738,0,70,255.0,255.0,255.0
462,23.1,-2.134733437224502,6.768821819384823e-38,-12.419355347931502,-0.06634790689072477,5.790789524235933e-37,-0.6739577653908352,-0.0006735887934474056,-6.668752036219114e-36,-0.0066643132611545145,0,70,255.0,255.0,255.0
463,23.150000000000002,-2.1380519263649544,8.536079611605312e-38,-12.45306067821246,-0.06639669492587093,6.891557139057221e-38,-0.6742376782443081,-0.00127793261239895,-1.3737783205101443e-35,-0.004532200877761647,0,70,255.0,255.0,255.0
464,23.200000000000003,-2.141373610336938,6.868891602550344e-38,-12.486777338995614,-0.06647570015196466,-7.946993680865707e-37,-0.6744109854786114,-0.0018822764313504948,-2.0806814373983775e-35,-0.00240008849436878,0,70,255.0,255.0,255.0
465,23.25,-2.1447,0.0,-12.5205,-0.06658492256900597,-2.0117658660077357e-36,-0.6744776870937451,-0.00248662025030133,-2.7875845542865597e-35,-0.0002679761109787293,0,70,255.0,255.0,255.0
466,23.3,-2.1480321629035624,-1.2444060711123888e-37,-12.55422479695661,-0.06669776356948587,-2.7460085560871048e-36,-0.6745257438063796,-0.0020270197688949153,-1.4938620603087311e-36,-0.0016542923944035534,0,70,255.0,255.0,255.0
467,23.35,-2.1513693933565476,-2.5261586937324966e-37,-12.587953729644209,-0.06678762454589547,-2.161152072038611e-36,-0.6746431163331855,-0.001567419287488501,2.4888121422248134e-35,-0.0030406086778283774,0,70,255.0,255.0,255.0
468,23.400000000000002,-2.154710542357751,-3.1857082807963836e-37,-12.621690263853502,-0.06685450549823473,-2.571964138622557e-37,-0.6748298046741624,-0.0011078188060820863,5.1270104904805e-35,-0.004426924961253202,0,70,255.0,255.0,255.0
469,23.450000000000003,-2.1580544609059698,-2.563505245240108e-37,-12.655437865375196,-0.06689840642650367,2.965858418441961e-36,-0.6750858088293108,-0.0006482183246756716,7.765208838736187e-35,-0.0058132412446780255,0,70,255.0,255.0,255.0
470,23.5,-2.1614,0.0,-12.6892,-0.06691932733070229,7.508012424873671e-36,-0.6754111287986304,-0.0001886178432689567,1.0403407186991685e-34,-0.0071995575281036395,0,70,255.0,255.0,255.0
471,23.55,-2.164745916329717,4.644186682638604e-37,-12.722978933739864,-0.0669116096755325,1.0248243449335925e-35,-0.6757337778562786,0.0004973240500603424,5.5751691085717274e-36,-0.005706404777824737,0,70,255.0,255.0,255.0
472,23.6,-2.168090589349309,9.427752592991504e-37,-12.75677213349167,-0.06686959492569625,8.065529335730851e-36,-0.6759817692764128,0.0011832659433896415,-9.28837336527734e-35,-0.004213252027545834,0,70,255.0,255.0,255.0
473,23.650000000000002,-2.1714323042040427,1.1889225162025002e-36,-12.790575866373548,-0.06679328308119355,9.59870084058452e-37,-0.6761551030590331,0.0018692078367189406,-1.9134263641411853e-34,-0.0027200992772669326,0,70,255.0,255.0,255.0
474,23.700000000000003,-2.174769346039184,9.567131820705406e-37,-12.824386399503615,-0.06668267414202436,-1.1068734305681283e-35,-0.6762537792041395,0.00255514973004824,-2.8980153917546366e-34,-0.00122694652698803,0,70,255.0,255.0,255.0
475,23.75,-2.1781,0.0,-12.8582,-0.06653776810818873,-2.802028383348695e-35,-0.6762777977117319,0.003241091623377157,-3.882604419368018e-34,0.00026620622329343036,0,70,255.0,255.0,255.0
476,23.8,-2.18142337177757,-1.7332340659442027e-36,-12.892013868083941,-0.06640779772838785,-3.824696524125659e-35,-0.6762831447685089,0.0019577235686577582,-2.0806814373978077e-35,-0.00048008849437427507,0,70,255.0,255.0,255.0
477,23.85,-2.184741849246218,-3.5184851678233517e-36,-12.925828936389117,-0.06634199575132296,-3.0100965270884784e-35,-0.6763258065611693,0.0006743555139383595,3.466468131888456e-34,-0.0012263832120419805,0,70,255.0,255.0,255.0
478,23.900000000000002,-2.188058640826081,-4.437119236730362e-36,-12.959647070652323,-0.06634036217699403,-3.582283922371527e-36,-0.6764057830897132,-0.0006090125407810392,7.141004407516694e-34,-0.001972677929709686,0,70,255.0,255.0,255.0
479,23.950000000000003,-2.191376954937297,-3.5705022037581496e-36,-12.993470136610354,-0.06640289700540106,4.1309078804283174e-35,-0.6765230743541404,-0.001892380595500438,1.081554068314493e-33,-0.0027189726473773913,0,70,255.0,255.0,255.0
480,24.0,-2.1947,0.0,-13.0273,-0.06652960023654406,1.0457312290907413e-34,-0.676677680354451,-0.003175748650219523,1.44900769587729e-33,-0.003465267365045932,0,70,255.0,255.0,255.0
481,24.05,-2.1980301965600044,6.46851759551295e-36,-13.061137593924379,-0.06667319941091632,1.4273961751569042e-34,-0.6768136430696935,-0.0025682183246708594,7.765208838734075e-35,-0.0019732412446540125,0,70,255.0,255.0,255.0
482,24.1,-2.2013668136658207,1.3131165411994255e-35,-13.09498012095187,-0.06678642206901114,1.1233833174780831e-34,-0.6768750044789164,-0.0019606879991221956,-1.2937035191026084e-33,-0.0004812151242620929,0,70,255.0,255.0,255.0
483,24.150000000000002,-2.2047083324916343,1.6559554430718952e-35,-13.128823851017172,-0.06686926821082854,1.3369265605427788e-35,-0.6768617645821197,-0.0013531576735735314,-2.6650591265925576e-33,0.0010108109961298262,0,70,255.0,255.0,255.0
484,24.200000000000003,-2.2080532342116324,1.3325295632962056e-35,-13.162665054054983,-0.0669217378363685,-1.5416758091145128e-34,-0.6767739233793034,-0.0007456273480248676,-4.036414734082507e-33,0.002502837116521746,0,70,255.0,255.0,255.0
485,24.25,-2.2114,0.0,-13.1965,-0.06694383094563103,-3.902722078028095e-34,-0.6766114808704675,-0.00013809702247624678,-5.40777034157236e-33,0.0039948632369135595,0,70,255.0,255.0,255.0
486,24.3,-2.2147470419824127,-2.41408363161076e-35,-13.230326156218547,-0.06693140462794205,-5.327115048215052e-34,-0.6764462829527196,0.0006351497300353891,-2.898015391753857e-34,0.002613053473004692,0,70,255.0,255.0,255.0
487,24.35,-2.2180924960905,-4.900617648015368e-35,-13.264145779803409,-0.06688031597262749,-4.192523617203485e-34,-0.676350175523167,0.001408396482547025,4.8281672632215884e-33,0.0012312437090958245,0,70,255.0,255.0,255.0
488,24.400000000000002,-2.221434429207382,-6.180109848614544e-35,-13.297962325279,-0.06679056497968734,-4.989477849933922e-35,-0.67632315858181,0.002181643235058661,9.946136065618564e-33,-0.00015056605481304254,0,70,255.0,255.0,255.0
489,24.450000000000003,-2.2247709082161755,-4.973068032809008e-35,-13.331779247169727,-0.06666215164912162,5.7536124484152205e-34,-0.6763652321286484,0.002954889987570297,1.5064104868015537e-32,-0.0015323758187219105,0,70,255.0,255.0,255.0
490,24.5,-2.2281,0.0,-13.3656,-0.06649507598093034,1.456515708302164e-33,-0.6764763961636822,0.0037281367400819887,2.0182073670412143e-32,-0.002914185582627127,0,70,255.0,255.0,255.0
491,24.55,-2.2314208355103444,9.009482766891743e-35,-13.39942658120144,-0.0663531820773158,1.98810640177033e-33,-0.6765692251194324,0.001947619404499387,1.0815540683141983e-33,-0.0007989726473812608,0,70,255.0,255.0,255.0
492,24.6,-2.234736801972178,1.8289354050862044e-34,-13.433255159834498,-0.0663003140404804,1.5646711151335856e-33,-0.6765562934284203,0.00016710206891678517,-1.8018965533783746e-32,0.0013162402878646052,0,70,255.0,255.0,255.0
493,24.650000000000002,-2.238052350678839,2.3064483951386284e-34,-13.467080447866838,-0.06633647187042413,1.8620984839192939e-34,-0.6764376010906459,-0.001613415266665817,-3.711948513588169e-32,0.003431453223110471,0,70,255.0,255.0,255.0
494,24.700000000000003,-2.2413719329236668,1.8559742567939835e-34,-13.500897157266117,-0.06646165556714698,-2.1472773984546373e-33,-0.6762131481061092,-0.0033939326022484183,-5.622000473797963e-32,0.005546666158356337,0,70,255.0,255.0,255.0
495,24.75,-2.2447,0.0,-13.5347,-0.06667586513064895,-5.435790625405846e-33,-0.6758829344748103,-0.005174449937830672,-7.532052434007624e-32,0.007661879093602053,0,70,255.0,255.0,255.0
496,24.8,-2.248039215976209,-3.3623847435956213e-34,-13.568485118975698,-0.06687186706279523,-7.419714102259816e-33,-0.6755328165695567,-0.002665627348020325,-4.0364147340814306e-33,0.006342837116546088,0,70,255.0,255.0,255.0
497,24.85,-2.251385096020788,-6.825679855543282e-34,-13.602254380858605,-0.06694242786545099,-5.8394320988139946e-33,-0.6752486507631557,-0.00015680475820997828,6.724769487191338e-32,0.005023795139490124,0,70,255.0,255.0,255.0
498,24.900000000000002,-2.254731368077263,-8.60778259569306e-34,-13.636011083253663,-0.06688754753861623,-6.949446150683804e-34,-0.6750304370556076,0.002352017831600369,1.3853180447790821e-31,0.0037047531624341597,0,70,255.0,255.0,255.0
499,24.950000000000003,-2.2580717600891584,-6.926590223895032e-34,-13.669758523765815,-0.06670722608229095,8.013748348977021e-33,-0.6748781754469122,0.004860840421410715,2.09815914083903e-31,0.002385711185378195,0,70,255.0,255.0,255.0
500,25.0,-2.2614,0.0,-13.7035,-0.06640146349647516,2.028664679332122e-32,-0.6747918659370699,0.007369663011220995,2.8110002368989277e-31,0.0010666692083196594,0,70,255.0,255.0,255.0
501,25.05,-2.26471190058482,1.254859069769331e-33,-13.737237742895772,-0.06609534967150528,2.769075000726893e-32,-0.6747075086023301,0.004874889987574181,1.5064104868011478e-32,0.0023076241812701247,0,70,255.0,255.0,255.0
502,25.1,-2.26801161394467,2.547378401708692e-33,-13.77096971673109,-0.06591397449771774,2.1793057280122394e-32,-0.6745611035189428,0.0023801169639273657,-2.509718139538698e-31,0.00354857915422059,0,70,255.0,255.0,255.0
503,25.150000000000002,-2.2713053770121117,3.2124681987633606e-33,-13.804692819118523,-0.06585733797511253,2.5935686118815976e-33,-0.674352650686908,-0.00011465605971944844,-5.17007732775751e-31,0.004789534127171055,0,70,255.0,255.0,255.0
504,25.200000000000003,-2.2745994267197016,2.585038663878614e-33,-13.838403947670637,-0.06592544010368967,-2.990771599745346e-32,-0.6740821501062257,-0.0026094290833662635,-7.830436515976324e-31,0.0060304891001215204,0,70,255.0,255.0,255.0
505,25.25,-2.2779,0.0,-13.8721,-0.06611828088344916,-7.571079654787903e-32,-0.673749601776896,-0.00510420210701279,-1.0490795704194948e-30,0.007271444073067457,0,70,255.0,255.0,255.0
506,25.3,-2.2812115816845124,-4.683197804717762e-33,-13.905778309441217,-0.0663307342511809,-1.0334328592681592e-31,-0.6733811490211115,-0.003393932602256642,-5.622000473796452e-32,0.007466666158316928,0,70,255.0,255.0,255.0
507,25.35,-2.2845316482005305,-9.506945621280439e-33,-13.939437952217041,-0.06645767414367483,-8.133279702167557e-32,-0.6730029351610644,-0.0016836630975004944,9.366395609435657e-31,0.0076618882435664,0,70,255.0,255.0,255.0
508,25.400000000000002,-2.2878559238742926,-1.1989094535484138e-32,-13.973078440272253,-0.06649910056093095,-9.679329832457985e-33,-0.6726149601967547,2.660640725565301e-05,1.929499126625096e-30,0.007857110328815873,0,70,255.0,255.0,255.0
509,25.450000000000003,-2.2911801330320367,-9.647495633124948e-33,-14.006699285551646,-0.06645501350294927,1.116171156408368e-31,-0.6722172241281827,0.0017368759120118009,2.9223586923066263e-30,0.008052332414065343,0,70,255.0,255.0,255.0
510,25.5,-2.2945,0.0,-14.0403,-0.06632541296972978,2.825565393981949e-31,-0.6718097269553482,0.0034471454167678273,3.9152182579880865e-30,0.008247554499314802,0,70,255.0,255.0,255.0
511,25.55,-2.297812172677131,1.7477932149101715e-32,-14.073880219339356,-0.06616571332377522,3.856823936999947e-31,-0.6713998953132304,0.002940840421415129,2.098159140838466e-31,0.00814571118539824,0,70,255.0,255.0,255.0
512,25.6,-2.3011169932532076,3.5480404083413065e-32,-14.107440074400753,-0.06603132892758827,3.035381308065798e-31,-0.6709951558368084,0.002434535426062431,-3.495586429820393e-30,0.008043867871481678,0,70,255.0,255.0,255.0
513,25.650000000000002,-2.3044157274907193,4.474390994317318e-32,-14.140979819792467,-0.06592225978116896,3.6123750717950246e-32,-0.6705955085260822,0.0019282304307097326,-7.200988773724634e-30,0.007942024557565115,0,70,255.0,255.0,255.0
514,25.700000000000003,-2.3077096411521536,3.600494386862119e-32,-14.17449971012279,-0.06583850588451728,-4.165607465658938e-31,-0.6702009533810519,0.0014219254353570344,-1.0906391117628873e-29,0.007840181243648553,0,70,255.0,255.0,255.0
515,25.75,-2.311,0.0,-14.208,-0.06578006723763326,-1.0545153610449005e-30,-0.6698114904017175,0.0009156204400039281,-1.461179346153285e-29,0.007738337929732886,0,70,255.0,255.0,255.0
516,25.8,-2.3142877276069664,-6.52285307916891e-32,-14.241480813201354,-0.0657264124537171,-1.4393862888731629e-30,-0.6694192697259704,0.0012305709166417866,-7.8304365159742055e-31,0.007950489100149663,0,70,255.0,255.0,255.0
517,25.85,-2.3175723787866414,-1.3241467071237178e-31,-14.274941750179956,-0.06565701014596909,-1.1328197262046436e-30,-0.6690164414917026,0.0015455213932796452,1.304570615833801e-29,0.008162640270566441,0,70,255.0,255.0,255.0
518,25.900000000000002,-2.320853166162833,-1.6698654523720856e-31,-14.308382280557884,-0.06557186031438915,-1.3481567303934344e-31,-0.6686030056989137,0.0018604718699175037,2.6874455968273437e-29,0.008374791440983218,0,70,255.0,255.0,255.0
519,25.950000000000003,-2.32412930235935,-1.3437227984135978e-31,-14.341801873957206,-0.06547096295897732,1.554625870622738e-30,-0.6681789623476042,0.0021754223465553623,4.070320577820887e-29,0.008586942611399995,0,70,255.0,255.0,255.0
520,26.0,-2.3274,0.0,-14.3752,-0.06535431807973363,3.9355049047814074e-30,-0.6677443114377738,0.0024903728231930877,5.45319555881433e-29,0.008799093781818534,0,70,255.0,255.0,255.0
521,26.05,-2.330664916895004,2.4343619101765467e-31,-14.408575727855231,-0.06524863686135393,5.371862761792656e-30,-0.6672750257828776,0.0017368759119947511,2.9223586923058426e-30,0.009972332414027302,0,70,255.0,255.0,255.0
522,26.1,-2.333925491600228,4.941782787660741e-31,-14.44192652487943,-0.06518063048853415,4.227740774011995e-30,-0.6667470781963711,0.0009833790007964145,-4.868723820353162e-29,0.011145571046236069,0,70,255.0,255.0,255.0
523,26.150000000000002,-2.33718360785795,6.23202271005661e-31,-14.475249457976009,-0.06515029896127429,5.031389414394247e-31,-0.6661604686782541,0.00022988208959807792,-1.0029683509936909e-28,0.012318809678444837,0,70,255.0,255.0,255.0
524,26.200000000000003,-2.3404411494104487,5.014841754968181e-31,-14.508541594048395,-0.06515764227957434,-5.801942735925061e-30,-0.6655151972285265,-0.0005236148216002587,-1.5190643199520655e-28,0.013492048310653603,0,70,255.0,255.0,255.0
525,26.25,-2.3437,0.0,-14.5418,-0.06520266044343431,-1.4687504258080728e-29,-0.6648112638471886,-0.0012771117327987636,-2.0351602889104037e-28,0.014665286942866729,0,70,255.0,255.0,255.0
526,26.3,-2.346961404813017,-9.085162332789295e-31,-14.575022675377722,-0.06524704010087003,-2.0048064758297462e-29,-0.6641046271425252,-0.0004980745646301687,-1.090639111762593e-29,0.013600181243669936,0,70,255.0,255.0,255.0
527,26.35,-2.3502240548124473,-1.8442984443519242e-30,-14.608211350302335,-0.06525246789989733,-1.5778143369843336e-29,-0.6634512457228217,0.0002809626035384261,1.817032466557885e-28,0.012535075544473143,0,70,255.0,255.0,255.0
528,26.400000000000002,-2.353486002405367,-2.3258225387854357e-30,-14.641368687538089,-0.06521894384051619,-1.877740092718347e-30,-0.6628511195880779,0.0010599997717070206,3.7431288442920296e-28,0.011469969845276349,0,70,255.0,255.0,255.0
529,26.450000000000003,-2.3567452999988583,-1.871564422145912e-30,-14.674497349849227,-0.06514646792272663,2.1653145073077485e-29,-0.6623042487382939,0.0018390369398756158,5.669225222026174e-28,0.010404864146079558,0,70,255.0,255.0,255.0
530,26.5,-2.36,0.0,-14.7076,-0.06503504014652864,5.48145121275415e-29,-0.6618106331734698,0.002618074108044155,7.595321599760181e-28,0.009339758446885504,0,70,255.0,255.0,255.0
531,26.55,-2.363248663852925,3.390628742098063e-30,-14.74067837063388,-0.06491520273516366,7.482039627139717e-29,-0.6613144656470128,0.0021754223465552717,4.070320577819769e-29,0.01050694261139588,0,70,255.0,255.0,255.0
532,26.6,-2.366491889149984,6.883015498641624e-30,-14.773730473911233,-0.0648174979118731,5.888483270536132e-29,-0.6607599389123302,0.0017327705850663884,-6.781257484196227e-28,0.011674126775906258,0,70,255.0,255.0,255.0
533,26.650000000000002,-2.3697307825205804,8.68008788413608e-30,-14.806753391871643,-0.06474192567665701,7.007821429433965e-30,-0.6601470529694221,0.0012901188235775053,-1.3969547026174432e-27,0.012841310940416633,0,70,255.0,255.0,255.0
534,26.700000000000003,-2.3729664505941184,6.98477351308683e-30,-14.839744206554704,-0.06468848602951535,-8.081063755638499e-29,-0.6594758078182885,0.000847467062088622,-2.1157836568152635e-27,0.01400849510492701,0,70,255.0,255.0,255.0
535,26.75,-2.3762,0.0,-14.8727,-0.06465717897044815,-2.0457054425208527e-28,-0.6587462034589294,0.00040481530059954807,-2.834612611013031e-27,0.01517567926943908,0,70,255.0,255.0,255.0
536,26.8,-2.379431939775281,-1.2653998735113325e-29,-14.90561824208676,-0.0646121489584735,-2.7923352032729123e-28,-0.6579815102694272,0.0013963851783866195,-1.5190643199516543e-28,0.015412048310651552,0,70,255.0,255.0,255.0
537,26.85,-2.382660388587616,-2.568776355021457e-29,-14.938497954052744,-0.06451754045260949,-2.19761187451602e-28,-0.6572049986278643,0.002387955056173691,2.5307997470227003e-27,0.015648417351864025,0,70,255.0,255.0,255.0
538,26.900000000000002,-2.3858828675123105,-3.239452899775888e-29,-14.971338544975346,-0.06437335345285612,-2.6153545625017563e-29,-0.6564166685342407,0.0033795249339607625,5.213505926040567e-27,0.0158847863930765,0,70,255.0,255.0,255.0
539,26.950000000000003,-2.38909689762467,-2.6067529630201406e-29,-15.004139423931967,-0.0641795879592134,3.015894051524621e-28,-0.6556165199885566,0.004371094811747834,7.896212105058432e-27,0.01612115543428897,0,70,255.0,255.0,255.0
540,27.0,-2.3923,0.0,-15.0369,-0.06393624397168135,7.634676648807995e-28,-0.654804552990812,0.005362664689534835,1.0578918284076108e-26,0.01635752447550054,0,70,255.0,255.0,255.0
541,27.05,-2.3954907770459513,4.722536619835523e-29,-15.069619861019083,-0.06370820143094577,1.0421136850377677e-27,-0.6539914932752727,0.003759036939888171,5.669225222024627e-28,0.01616486414606761,0,70,255.0,255.0,255.0
542,27.1,-2.398672156499553,9.586803870221665e-29,-15.102299309877802,-0.06356034027769253,8.201599171010465e-28,-0.6531880665762052,0.0021554091902415075,-9.445073239671182e-27,0.015972203816634684,0,70,255.0,255.0,255.0
543,27.150000000000002,-2.401848147430179,1.2089802810689942e-28,-15.134938828226979,-0.06349266051192161,9.7606361070636e-29,-0.6523942728936092,0.000551781440594843,-1.9457069001544823e-26,0.015779543487201755,0,70,255.0,255.0,255.0
544,27.200000000000003,-2.405022758907203,9.728534500771879e-29,-15.167538897717439,-0.06350516213363304,-1.1255469830534637e-27,-0.651610112227485,-0.00105184630905182,-2.946906476341847e-26,0.015586883157768827,0,70,255.0,255.0,255.0
