idx,t,px,py,pz,vx,vy,vz,ax,ay,az,yaw,mode,ledr,ledg,ledb
0,0.0,13.5,3.0,0.0,-2.4849605440839382e-20,6.504229151892383e-20,0.019030436776039605,2.981952652900726e-19,-7.80507498227086e-19,-0.5155652413124753,0,70,255.0,255.0,255.0
1,0.05,13.5,3.0,0.0003090957239374257,-1.1430818502786115e-20,2.991945409870496e-20,-0.006625999083021784,2.3855621223205807e-19,-6.244059985816688e-19,-0.5106921930499801,0,70,255.0,255.0,255.0
2,0.1,13.5,3.0,-0.0006585390347500995,-9.939842176335754e-22,2.6016916607569546e-21,-0.03203878252895842,1.7891715917404357e-19,-4.683044989362516e-19,-0.5058191447874851,0,70,255.0,255.0,255.0
3,0.15000000000000002,13.5,3.0,-0.0028907216554063375,6.460897414618245e-21,-1.6910995794920202e-20,-0.0572079135617703,1.1927810611602901e-19,-3.122029992908343e-19,-0.50094609652499,0,70,255.0,255.0,255.0
4,0.2,13.5,3.0,-0.006375269517375051,1.0933826393969325e-20,-2.861860826832648e-20,-0.08213339218145743,5.963905305801453e-20,-1.5610149964541715e-19,-0.49607304826249493,0,70,255.0,255.0,255.0
5,0.25,13.5,3.0,-0.0111,1.2424802720419691e-20,-3.252114575946192e-20,-0.1068152183880198,0.0,0.0,-0.49119999999999986,0,70,255.0,255.0,255.0
6,0.30000000000000004,13.5,3.0,-0.017052730482624956,1.0933826393969325e-20,-2.861860826832648e-20,-0.13125339218145746,-5.963905305801458e-20,1.5610149964541732e-19,-0.48632695173750495,0,70,255.0,255.0,255.0
7,0.35000000000000003,13.5,3.0,-0.02422127834459367,6.460897414618234e-21,-1.6910995794920187e-20,-0.15544791356177032,-1.1927810611602908e-19,3.122029992908345e-19,-0.4814539034750101,0,70,255.0,255.0,255.0
8,0.4,13.5,3.0,-0.032593460965249905,-9.939842176335806e-22,2.6016916607569606e-21,-0.17939878252895844,-1.789171591740436e-19,4.683044989362517e-19,-0.4765808552125152,0,70,255.0,255.0,255.0
9,0.45,13.5,3.0,-0.04215709572393743,-1.143081850278612e-20,2.991945409870497e-20,-0.20310599908302182,-2.3855621223205807e-19,6.244059985816688e-19,-0.47170780695002035,0,70,255.0,255.0,255.0
10,0.5,13.5,3.0,-0.0529,-2.4849605440839382e-20,6.504229151892383e-20,-0.22656956322396044,-2.9819526529007265e-19,7.805074982270861e-19,-0.4668347586875261,0,70,255.0,255.0,255.0
11,0.55,13.5,3.0,-0.06480937379343764,-3.23044870730912e-20,8.455497897460099e-20,-0.24975243219114862,2.407412430484045e-34,-5.7777898331617076e-34,-0.46048000000000017,0,70,255.0,255.0,255.0
12,0.6000000000000001,13.5,3.0,-0.07786994758687528,-2.484960544083935e-20,6.504229151892379e-20,-0.27261756322396047,2.9819526529007313e-19,-7.805074982270872e-19,-0.4541252413124742,0,70,255.0,255.0,255.0
13,0.65,13.5,3.0,-0.09206583448359407,-2.4849605440839327e-21,6.5042291518923654e-21,-0.29516495632239603,5.963905305801452e-19,-1.5610149964541723e-18,-0.44777048262494834,0,70,255.0,255.0,255.0
14,0.7000000000000001,13.5,3.0,-0.10738114758687527,3.47894476171752e-20,-9.10592081264935e-20,-0.3173946114864553,8.945857958702181e-19,-2.341522494681259e-18,-0.4414157239374224,0,70,255.0,255.0,255.0
15,0.75,13.5,3.0,-0.1238,8.697361904293784e-20,-2.2764802031623344e-19,-0.3393065287161383,1.1927810611602904e-18,-3.1220299929083446e-18,-0.4350609652498987,0,70,255.0,255.0,255.0
16,0.8,13.5,3.0,-0.14130657434362454,1.1828412189839546e-19,-3.0960130763007747e-19,-0.3609048790539482,5.963905305801362e-20,-1.5610149964541465e-19,-0.42887304826249545,0,70,255.0,255.0,255.0
17,0.8500000000000001,13.5,3.0,-0.15988533130790536,9.29375243487392e-20,-2.4325817028077496e-19,-0.3821938335423879,-1.0735029550442632e-18,2.8098269936175153e-18,-0.42268513127509216,0,70,255.0,255.0,255.0
18,0.9,13.5,3.0,-0.17952080110037383,1.0933826393969304e-20,-2.86186082683264e-20,-0.40317339218145737,-2.2066449631465377e-18,5.775755486880439e-18,-0.41649721428768893,0,70,255.0,255.0,255.0
19,0.9500000000000001,13.5,3.0,-0.20019751392856158,-1.2772697196591467e-19,3.343173784072692e-19,-0.4238435549711568,-3.3397869712488145e-18,8.741683980143368e-18,-0.4103092973002857,0,70,255.0,255.0,255.0
20,1.0,13.5,3.0,-0.2219,-3.23044870730912e-19,8.4554978974601e-19,-0.444204321911486,-4.472928979351088e-18,1.170761247340629e-17,-0.4041213803128847,0,70,255.0,255.0,255.0
21,1.05,13.5,3.0,-0.24461232883206424,-4.408320005204906e-19,1.153850251545709e-18,-0.4642280515930587,-2.385562122320537e-19,6.244059985816571e-19,-0.3968278069500214,0,70,255.0,255.0,255.0
22,1.1,13.5,3.0,-0.2683167271815035,-3.4690049195411744e-19,9.079903896041756e-19,-0.4838871026064882,3.995816554886981e-18,-1.0458800476242975e-17,-0.38953423358715816,0,70,255.0,255.0,255.0
23,1.1500000000000001,13.5,3.0,-0.29299496111491063,-4.125034503179213e-20,1.0797020392141041e-19,-0.5031814749517745,8.230189322006015e-18,-2.1542006951067608e-17,-0.38224066022429487,0,70,255.0,255.0,255.0
24,1.2000000000000002,13.5,3.0,-0.3186287966988786,4.761184402464848e-19,-1.246210305502587e-18,-0.5221111686289177,1.246456208912505e-17,-3.2625213425892243e-17,-0.3749470868614316,0,70,255.0,255.0,255.0
25,1.25,13.5,3.0,-0.3452,1.20520586388071e-18,-3.1545511386678063e-18,-0.5406761836379177,1.6698934856244065e-17,-4.3708419900716826e-17,-0.36765351349857234,0,70,255.0,255.0,255.0
26,1.3,13.5,3.0,-0.37269131032811864,1.6450438801835673e-18,-4.3057996985527585e-18,-0.5589349145738176,8.945857958702035e-19,-2.341522494681224e-18,-0.3626957239374235,0,70,255.0,255.0,255.0
27,1.35,13.5,3.0,-0.40108935996608086,1.2946644434677307e-18,-3.3887033881359292e-18,-0.5769457560316601,-1.4909763264503658e-17,3.902537491135438e-17,-0.35773793437627466,0,70,255.0,255.0,255.0
28,1.4000000000000001,13.5,3.0,-0.4303817544399837,1.5406755373319998e-19,-4.0326220741731794e-19,-0.5947087080114452,-3.071411232487752e-17,8.039227231738997e-17,-0.3527801448151258,0,70,255.0,255.0,255.0
29,1.4500000000000002,13.5,3.0,-0.46055609927592445,-1.7767467890200246e-18,4.650523843603077e-18,-0.6122237705131727,-4.651846138525138e-17,1.217591697234256e-16,-0.347822355253977,0,70,255.0,255.0,255.0
30,1.5,13.5,3.0,-0.4916,-4.497778584791928e-18,1.1772654764925215e-17,-0.6294909435368428,-6.232281044562517e-17,1.63126067129461e-16,-0.3428645656928282,0,70,255.0,255.0,255.0
31,1.55,13.5,3.0,-0.5235000298554613,-6.139343520213777e-18,1.6069348542665323e-17,-0.6464482901116706,-3.3397869712487686e-18,8.74168398014323e-18,-0.3354292973002863,0,70,255.0,255.0,255.0
32,1.6,13.5,3.0,-0.5562386329541733,-4.831757281916805e-18,1.2646823162939537e-17,-0.6630338732668715,5.564323650312763e-17,-1.4564269916917455e-16,-0.32799402890774443,0,70,255.0,255.0,255.0
33,1.6500000000000001,13.5,3.0,-0.5897972211251546,-5.750198699010086e-19,1.5050786257478536e-18,-0.6792476930024451,1.1462625997750404e-16,-3.000270823184923e-16,-0.32055876051520255,0,70,255.0,255.0,255.0
34,1.7000000000000002,13.5,3.0,-0.6241572061974241,6.6308687158336085e-18,-1.7355885068909725e-17,-0.6950897493183917,1.7360928345188042e-16,-4.544114654678101e-16,-0.31312349212266066,0,70,255.0,255.0,255.0
35,1.75,13.5,3.0,-0.6593,1.6785908475287002e-17,-4.393606792103305e-17,-0.7105600422147111,2.325923069262566e-16,-6.087958486171269e-16,-0.30568822373011706,0,70,255.0,255.0,255.0
36,1.8,13.5,3.0,-0.6952077702500362,2.2912330200671545e-17,-5.997159447210853e-17,-0.7257039249795,1.2464562089124856e-17,-3.262521342589164e-17,-0.30006708686143246,0,70,255.0,255.0,255.0
37,1.85,13.5,3.0,-0.7318657082172262,1.803236468419949e-17,-4.719858926362222e-17,-0.7405667509008544,-2.076631827480069e-16,5.435454217653437e-16,-0.2944459499927479,0,70,255.0,255.0,255.0
38,1.9000000000000001,13.5,3.0,-0.7692597610593979,2.1460119258708342e-18,-5.6170522955741105e-18,-0.7551485199787747,-4.2779092758513863e-16,1.119716056956579e-15,-0.28882481312406333,0,70,255.0,255.0,255.0
39,1.9500000000000002,13.5,3.0,-0.8073758759343798,-2.474672807431441e-17,6.477301643203578e-17,-0.7694492322132608,-6.479186724222704e-16,1.6958866921478143e-15,-0.28320367625537873,0,70,255.0,255.0,255.0
40,2.0,13.5,3.0,-0.8462,-6.264585531635607e-17,1.6397161691920699e-16,-0.7834688876043125,-8.680464172594012e-16,2.272057327339048e-15,-0.2775825393866942,0,70,255.0,255.0,255.0
41,2.0500000000000003,13.5,3.0,-0.8857176891443939,-8.550997728247241e-17,2.238170293457689e-16,-0.7971840099703295,-4.6518461385246944e-17,1.217591697234147e-16,-0.27102235525397833,0,70,255.0,255.0,255.0
42,2.1,13.5,3.0,-0.9259129341769223,-6.729770145488114e-17,1.761475338915494e-16,-0.8105711231297105,7.750094944889e-16,-2.0285389878921998e-15,-0.2644621711212625,0,70,255.0,255.0,255.0
43,2.15,13.5,3.0,-0.966769334637254,-8.009027833582661e-18,2.096313055654953e-17,-0.8236302270824556,1.596537450363047e-15,-4.178837145507815e-15,-0.25790198698854677,0,70,255.0,255.0,255.0
44,2.2,13.5,3.0,-1.0082704900650574,9.235604358142403e-17,-2.4173618065923337e-16,-0.836361321828565,2.4180654062372012e-15,-6.329135303123448e-15,-0.2513418028558309,0,70,255.0,255.0,255.0
45,2.25,13.5,3.0,-1.0504,2.337975127901373e-16,-6.119503997557949e-16,-0.8487644073680386,3.2395933621113484e-15,-8.479433460739062e-15,-0.24478161872311954,0,70,255.0,255.0,255.0
46,2.3000000000000003,13.5,3.0,-1.0931414731723892,3.191275789292181e-16,-8.352965229109669e-16,-0.8608400351391832,1.7360928345186383e-16,-4.544114654677653e-16,-0.23824349212266305,0,70,255.0,255.0,255.0
47,2.35,13.5,3.0,-1.1364785550750847,2.5115844113532507e-16,-6.5739154630257515e-16,-0.872588756580305,-2.892374795207593e-15,7.570610529803459e-15,-0.23170536552220664,0,70,255.0,255.0,255.0
48,2.4000000000000004,13.5,3.0,-1.1803949003915861,2.989009940845723e-17,-7.823546993061682e-17,-0.8840105716914038,-5.958358873867078e-15,1.5595632525074753e-14,-0.22516723892175014,0,70,255.0,255.0,255.0
49,2.45,13.5,3.0,-1.2248741638053915,-3.4467744625138187e-16,9.021717062048982e-16,-0.8951054804724801,-9.024342952526535e-15,2.362065452034598e-14,-0.21862911232129373,0,70,255.0,255.0,255.0
50,2.5,13.5,3.0,-1.2699,-8.725441958441932e-16,2.2838299821039728e-15,-0.9058734829235332,-1.2090327031185992e-14,3.16456765156172e-14,-0.2120909857208444,0,70,255.0,255.0,255.0
51,2.5500000000000003,13.5,3.0,-1.3154564181660506,-1.1910003384344e-15,3.117369062298098e-15,-0.9163358494729388,-6.4791867242221e-16,1.6958866921476476e-15,-0.20640367625537637,0,70,255.0,255.0,255.0
52,2.6,13.5,3.0000000000000004,-1.3615288455227395,-9.373360630864192e-16,2.453418651318751e-15,-0.9265138505490709,1.0794489686341471e-14,-2.825390313132164e-14,-0.20071636678990837,0,70,255.0,255.0,255.0
53,2.6500000000000004,13.5,3.0000000000000004,-1.4081030637964034,-1.1155136980024677e-16,2.9197874916591833e-16,-0.9364074861519296,2.2236898045105254e-14,-5.820369295479118e-14,-0.19502905732444034,0,70,255.0,255.0,255.0
54,2.7,13.5,3.0,-1.455164854713378,1.2863537414241032e-15,-3.36695064416036e-15,-0.9460167562815149,3.3679306403868934e-14,-8.815348277826048e-14,-0.18934174785897234,0,70,255.0,255.0,255.0
55,2.75,13.5,3.0,-1.5027,3.2563792705866356e-15,-8.523369528660096e-15,-0.9553416609378268,4.5121714762632626e-14,-1.1810327260172976e-13,-0.1836544383935097,0,70,255.0,255.0,255.0
56,2.8000000000000003,13.5,2.9999999999999996,-1.5506936541634093,4.444873774808382e-15,-1.1634179726281427e-14,-0.9643445669690605,2.418065406236973e-15,-6.3291353031228394e-15,-0.17646180285583468,0,70,255.0,255.0,255.0
57,2.85,13.5,2.999999999999999,-1.599128462833958,3.4981858112103518e-15,-9.156283058972432e-15,-0.9729878412234103,-4.02855839501583e-14,1.054450019954831e-13,-0.16926916731815975,0,70,255.0,255.0,255.0
58,2.9000000000000004,13.5,2.9999999999999987,-1.6479864444228025,4.1631537979253005e-16,-1.0896795267330596e-15,-0.9812714837008765,-8.298923330655396e-14,2.1721913929409e-13,-0.16207653178048473,0,70,255.0,255.0,255.0
59,2.95,13.5,2.999999999999999,-1.6972496173410976,-4.800737519445032e-15,1.256563087043654e-14,-0.9891954944014587,-1.2569288266294923e-13,3.2899327659269595e-13,-0.1548838962428098,0,70,255.0,255.0,255.0
60,3.0,13.5,3.0,-1.7469,-1.2152972886502349e-14,3.180964813253641e-14,-0.9967598733251574,-1.6839653201934447e-13,4.407674138913019e-13,-0.14769126070513483,0,70,255.0,255.0,255.0
61,3.0500000000000003,13.5,3.000000000000002,-1.7969201651803128,-1.6588494760799127e-14,4.3419349842827615e-14,-1.0039978826508182,-9.024342952525672e-15,2.362065452034381e-14,-0.1418291123212997,0,70,255.0,255.0,255.0
62,3.1,13.499999999999998,3.000000000000004,-1.8472949031414287,-1.3055407181754992e-14,3.417171358457098e-14,-1.0109427845572874,1.5034784611429171e-13,-3.9352610485061065e-13,-0.13596696393746457,0,70,255.0,255.0,255.0
63,3.1500000000000004,13.499999999999998,3.000000000000005,-1.8980095585123884,-1.553710149369864e-15,4.066739357766333e-15,-1.0175945790445646,3.0972003518111047e-13,-8.106728642215687e-13,-0.13010481555362943,0,70,255.0,255.0,255.0
64,3.2,13.499999999999998,3.000000000000004,-1.949049475922232,1.7916596336356023e-14,-4.689557283758577e-14,-1.0239532661126503,4.690922242479279e-13,-1.2278196235925232e-12,-0.12424266716979433,0,70,255.0,255.0,255.0
65,3.25,13.5,3.0,-2.0004,4.535551227542276e-14,-1.1871522300148556e-13,-1.030018845761544,6.284644133147453e-13,-1.6449663829634775e-12,-0.11838051878595834,0,70,255.0,255.0,255.0
66,3.3000000000000003,13.500000000000002,2.9999999999999925,-2.0520464851153406,6.190910526838811e-14,-1.6204321964502904e-13,-1.0357919024276674,3.367930640386571e-14,-8.81534827782521e-14,-0.11254174785897032,0,70,255.0,255.0,255.0
67,3.35,13.500000000000007,2.999999999999985,-2.1039743246003275,4.872344291580961e-14,-1.2753057127931148e-13,-1.0412730205474412,-5.611058005070086e-13,1.4686594174069592e-12,-0.10670297693198236,0,70,255.0,255.0,255.0
68,3.4000000000000004,13.500000000000007,2.999999999999981,-2.156168921527646,5.798525217686929e-15,-1.517727790433224e-14,-1.0464622001208654,-1.1558909074178883e-12,3.025472317592185e-12,-0.10086420600499432,0,70,255.0,255.0,255.0
69,3.45,13.500000000000005,2.999999999999985,-2.2086156789699753,-6.686564782597905e-14,1.750166604799066e-13,-1.0513594411479406,-1.7506760143287625e-12,4.582285217777396e-12,-0.09502543507800636,0,70,255.0,255.0,255.0
70,3.5,13.5,3.0,-2.2613,-1.692690762151887e-13,4.4305124387340584e-13,-1.055964743628666,-2.3454611212396368e-12,6.139098117962608e-12,-0.0891866641510255,0,70,255.0,255.0,255.0
71,3.5500000000000003,13.49999999999999,3.0000000000000275,-2.3142066943583273,-2.310479263127534e-13,6.047535287372885e-13,-1.060242507638512,-1.2569288266293706e-13,3.2899327659266444e-13,-0.0819238962428123,0,70,255.0,255.0,255.0
72,3.6,13.499999999999977,3.0000000000000555,-2.3673181984572604,-1.8183836448148336e-13,4.759505715326748e-13,-1.0641571332529474,2.0940753559137432e-12,-5.481111564777227e-12,-0.07466112833459916,0,70,255.0,255.0,255.0
73,3.6500000000000004,13.499999999999973,3.0000000000000706,-2.4206163553770317,-2.1640390721377972e-14,5.664237225956255e-14,-1.0677086204719721,4.313843594490443e-12,-1.1291216406147172e-11,-0.06739836042638596,0,70,255.0,255.0,255.0
74,3.7,13.499999999999979,3.0000000000000564,-2.4740830081978684,2.495459949675603e-13,-6.531710690820409e-13,-1.0708969692955859,6.533611833067123e-12,-1.7101321247517062e-11,-0.06013559251817281,0,70,255.0,255.0,255.0
75,3.75,13.5,3.0,-2.5277,6.31720792585332e-13,-1.6534897524921378e-12,-1.0737221797237895,8.753380071643801e-12,-2.2911426088886952e-11,-0.05287282460996501,0,70,255.0,255.0,255.0
76,3.8000000000000003,13.500000000000039,2.999999999999898,-2.5814499374513518,8.622825999826254e-13,-2.2569708953041247e-12,-1.0762300670182834,4.690922242478824e-13,-1.2278196235924028e-12,-0.047442667169797274,0,70,255.0,255.0,255.0
77,3.85,13.50000000000008,2.9999999999997926,-2.635318481570628,6.786300150101239e-13,-1.776271714851388e-12,-1.0784664464407692,-7.815195623147962e-12,2.0455786841701953e-11,-0.04201250972962959,0,70,255.0,255.0,255.0
78,3.9000000000000004,13.5000000000001,2.9999999999997384,-2.6892920569642285,8.076303766782465e-14,-2.1139221113391812e-13,-1.0804313179912466,-1.609948347054388e-11,4.2139393306996505e-11,-0.036582352289461856,0,70,255.0,255.0,255.0
79,3.95,13.500000000000082,2.999999999999789,-2.743357088238553,-9.313183320442616e-13,2.437667615848255e-12,-1.0821246816697154,-2.4383771317939725e-11,6.382299977229086e-11,-0.03115219484929417,0,70,255.0,255.0,255.0
80,4.0,13.5,3.0,-2.7975,-2.3576140941261392e-12,6.170907766095145e-12,-1.0835465374761761,-3.266805916533557e-11,8.55066062375852e-11,-0.025722037409135368,0,70,255.0,255.0,255.0
81,4.05,13.499999999999854,3.000000000000382,-2.8517063558362654,-3.2180824736177474e-12,8.42313005247921e-12,-1.0846452242883549,-1.7506760143288714e-12,4.582285217777675e-12,-0.018225435078010603,0,70,255.0,255.0,255.0
82,4.1000000000000005,13.499999999999703,3.0000000000007754,-2.905958275260226,-2.5326816955589996e-12,6.62913628787284e-12,-1.085369080983977,2.916670713667838e-11,-7.63420358020313e-11,-0.010728832746885707,0,70,255.0,255.0,255.0
83,4.15,13.499999999999627,3.000000000000977,-2.960237016766054,-3.0141175994992115e-13,7.889264722761099e-13,-1.0857181075630433,6.008409028768508e-11,-1.572663568218388e-10,-0.003232230415760942,0,70,255.0,255.0,255.0
84,4.2,13.4999999999997,3.0000000000007865,-3.0145238388479214,3.4757273332094867e-12,-9.097499394310979e-12,-1.0856923040255533,9.100147343869176e-11,-2.381906778416463e-10,0.004264371915363822,0,70,255.0,255.0,255.0
85,4.25,13.5,3.0,-3.0688,8.798735583919224e-12,-2.303014131188844e-11,-1.085291670371507,1.2191885658969844e-10,-3.191149988614538e-10,0.011760974246488587,0,70,255.0,255.0,255.0
86,4.3,13.500000000000545,2.9999999999985754,-3.123047839203586,1.2010047294488362e-11,-3.143554931461271e-11,-1.084581035828299,6.533611833067501e-12,-1.7101321247518086e-11,0.016664407481825787,0,70,255.0,255.0,255.0
87,4.3500000000000005,13.500000000001103,2.999999999997108,-3.1772540173884676,9.452096767225877e-12,-2.474027343663999e-11,-1.0836252296233244,-1.0885163292356548e-10,2.84912356366423e-10,0.021567840717163077,0,70,255.0,255.0,255.0
88,4.4,13.500000000001393,2.999999999996353,-3.2314062759715556,1.1248840021318547e-12,-2.9443136779705232e-12,-1.0824242517565827,-2.2423687768019643e-10,5.869260339803588e-10,0.026471273952500277,0,70,255.0,255.0,255.0
89,4.45,13.500000000001123,2.999999999997065,-3.285492356369763,-1.2971591000793682e-11,3.395232996139567e-11,-1.0809781022280744,-3.396221224368274e-10,8.889397115942945e-10,0.031374707187837476,0,70,255.0,255.0,255.0
90,4.5,13.5,3.0,-3.3395,-3.283732824155076e-11,8.594965748145861e-11,-1.0792867810377993,-4.550073671934582e-10,1.19095338920823e-09,0.03627814042317645,0,70,255.0,255.0,255.0
91,4.55,13.49999999999797,3.000000000005316,-3.3934158873493914,-4.4822106704335704e-11,1.1731906720597162e-10,-1.077286632398452,-2.43837713179412e-11,6.382299977229477e-11,0.04372780515070748,0,70,255.0,255.0,255.0
92,4.6000000000000005,13.499999999995875,3.0000000000107927,-3.4472224551859063,-3.527570537334451e-11,9.233195745868714e-11,-1.0749140005227287,4.0623982455758346e-10,-1.0633073896636608e-09,0.05117746987823865,0,70,255.0,255.0,255.0
93,4.65,13.499999999994799,3.0000000000136104,-3.5009010793477247,-4.198124248577518e-12,1.0988328239605993e-11,-1.0721688854106284,8.368634204331005e-10,-2.1904377790995963e-09,0.05862713460576968,0,70,255.0,255.0,255.0
94,4.7,13.499999999995817,3.000000000010952,-3.554433135673029,4.841063666996524e-11,-1.267118204512717e-10,-1.0690512870621516,1.2674870163086175e-09,-3.317568168535532e-09,0.06607679933330071,0,70,255.0,255.0,255.0
95,4.75,13.5,3.0,-3.6078,1.225505773822838e-10,-3.20768488613946e-10,-1.065561205477298,1.6981106121841351e-09,-4.444698557971467e-09,0.07352646406083707,0,70,255.0,255.0,255.0
96,4.800000000000001,13.50000000000758,2.9999999999801585,-3.6609838113988507,1.6727837952285452e-10,-4.37840719509274e-10,-1.0617444345778928,9.100147343866894e-11,-2.3819067784158646e-10,0.07914437191536913,0,70,255.0,255.0,255.0
97,4.8500000000000005,13.500000000015389,2.999999999959721,-3.713969761867911,1.316507247261522e-10,-3.4458755639810854e-10,-1.057646768285761,-1.5161076653067687e-09,3.9683172022882195e-09,0.08476227976990108,0,70,255.0,255.0,255.0
98,4.9,13.500000000019405,2.999999999949205,-3.766743806637547,1.5667612992178175e-11,-4.1008999280453305e-11,-1.0532682066009027,-3.123216804052207e-09,8.174825082418026e-09,0.09038018762443305,0,70,255.0,255.0,255.0
99,4.95,13.500000000015616,2.999999999959126,-3.819291900938122,-1.8067095567906738e-10,4.728949518436912e-10,-1.0486087495233178,-4.730325942797645e-09,1.2381332962547833e-08,0.09599809547896501,0,70,255.0,255.0,255.0
100,5.0,13.5,3.0,-3.8716,-4.5736498128758445e-10,1.1971242969743253e-09,-1.0436683970530063,-6.3374350815430814e-09,1.6587840842677634e-08,0.10161600333349341,0,70,255.0,255.0,255.0
101,5.050000000000001,13.499999999971708,3.00000000007405,-3.923653667055212,-6.242914113870824e-10,1.6340438108311239e-09,-1.0384236292899731,-3.396221224367418e-10,8.88939711594069e-10,0.10817470718783478,0,70,255.0,255.0,255.0
102,5.1000000000000005,13.49999999994257,3.0000000001503215,-3.9754368973424525,-4.913271935312641e-10,1.286018268133747e-09,-1.0328509263342227,5.65819083666949e-09,-1.4809961419489218e-08,0.11473341104217603,0,70,255.0,255.0,255.0
103,5.15,13.499999999927574,3.0000000001895697,-4.026933294102088,-5.847232772013528e-11,1.5304766888220743e-10,-1.0269502881857555,1.1656003795775722e-08,-3.05088625505725e-08,0.12129211489651728,0,70,255.0,255.0,255.0
104,5.2,13.49999999994172,3.000000000152544,-4.078126460574482,6.742731860463039e-10,-1.7648679869234935e-09,-1.020721714844571,1.7653816754881958e-08,-4.620776368165579e-08,0.12785081875085852,0,70,255.0,255.0,255.0
105,5.25,13.5,3.0,-4.129,1.706909347768054e-09,-4.467728699283355e-09,-1.0141652063106699,2.3651629713988182e-08,-6.190666481273907e-08,0.13440952260519978,0,70,255.0,255.0,255.0
106,5.300000000000001,13.500000000105583,2.999999999723642,-4.179537520380308,2.3298872660254746e-09,-6.098334523815222e-09,-1.0072810482622077,1.267487016308293e-09,-3.3175681685346864e-09,0.14095679933328473,0,70,255.0,255.0,255.0
107,5.3500000000000005,13.500000000214333,2.999999999438991,-4.229722648762281,1.8336580493989038e-09,-4.7994855161368765e-09,-1.0000695263773414,-2.11166556813712e-08,5.527152847566865e-08,0.14750407606136953,0,70,255.0,255.0,255.0
108,5.4,13.500000000270296,2.999999999292518,-4.2795390169541,2.182216978883628e-10,-5.711816762483762e-10,-0.9925306406560707,-4.3500798379050694e-08,1.13860625119872e-07,0.15405135278945434,0,70,255.0,255.0,255.0
109,5.45,13.500000000217504,2.999999999430697,-4.328970256763948,-2.5164217885061497e-09,6.586576995850282e-09,-0.9846643910983959,-6.588494107673018e-08,1.7244972176407534e-07,0.16059862951753917,0,70,255.0,255.0,255.0
110,5.5,13.5,3.0,-4.378,-6.370272409784631e-09,1.6673790500159095e-08,-0.9764707777043169,-8.826908377440966e-08,2.3103881840827868e-07,0.1671459062456222,0,70,255.0,255.0,255.0
111,5.550000000000001,13.499999999605958,3.0000000010313808,-4.426612251423562,-8.695257652714816e-09,2.2759294284429766e-08,-0.9679721776612019,-4.730325942796445e-09,1.238133296254468e-08,0.17279809547897151,0,70,255.0,255.0,255.0
112,5.6000000000000005,13.49999999920009,3.000000002093715,-4.474792507608426,-6.843305004064352e-09,1.791192379641377e-08,-0.9591909681564197,7.880843188881528e-08,-2.062761524831854e-07,0.17845028471232074,0,70,255.0,255.0,255.0
113,5.65,13.499999998991242,3.0000000026403586,-4.5225266380815095,-8.14414463833319e-10,2.1316790361113e-09,-0.9501271491899699,1.6234718972042703e-07,-4.249336379289155e-07,0.18410247394566998,0,70,255.0,255.0,255.0
114,5.7,13.499999999188264,3.000000002124668,-4.569800512369729,9.391413967978287e-09,-2.4581439996477635e-08,-0.9407807207618528,2.4588594755203874e-07,-6.435911233746457e-07,0.1897546631790192,0,70,255.0,255.0,255.0
115,5.75,13.5,3.0,-4.6166,2.377418029137047e-08,-6.222743330135303e-08,-0.9311516828720682,3.2942470538365046e-07,-8.622486088203754e-07,0.195406852412364,0,70,255.0,255.0,255.0
116,5.800000000000001,13.500000001470585,2.9999999961508346,-4.662910273925448,3.245114334483379e-08,-8.493884261390383e-08,-0.9211982410929872,1.7653816754877484e-08,-4.620776368164402e-08,0.20273081875086973,0,70,255.0,255.0,255.0
117,5.8500000000000005,13.500000002985304,2.99999999218615,-4.708713720804018,2.5539561966858508e-08,-6.684820966951821e-08,-0.910878600996981,-2.9411707187389e-07,7.698330814570729e-07,0.21005478508937533,0,70,255.0,255.0,255.0
118,5.9,13.500000003764733,2.9999999901460477,-4.753992030719863,3.0394361574448944e-09,-7.955534468196825e-09,-0.9001927625840497,-6.058879605026575e-07,1.5858739265957898e-06,0.21737875142788093,0,70,255.0,255.0,255.0
119,5.95,13.50000000302944,2.9999999920706304,-4.79872689375714,-3.5049234083407004e-08,9.173918299006023e-08,-0.8891407258541931,-9.176588491314249e-07,2.4019147717345065e-06,0.22470271776638653,0,70,255.0,255.0,255.0
120,6.0,13.5,3.0,-4.8429,-8.872644875569725e-08,2.32235942705253e-07,-0.8777224908074112,-1.2294297377601924e-06,3.2179556168732235e-06,0.2320266841048957,0,70,255.0,255.0,255.0
121,6.050000000000001,13.4999999945117,3.000000014365281,-4.886493852874652,-1.2110931572662037e-07,3.1699607617118557e-07,-0.8659868579668504,-6.588494107671364e-08,1.7244972176403185e-07,0.23739862951753235,0,70,255.0,255.0,255.0
122,6.1000000000000005,13.49999998885869,3.000000029161686,-4.929494209175508,-9.531494286336972e-08,2.49480914881659e-07,-0.8539826278556578,1.0976598556067444e-06,-2.8730561733451056e-06,0.24277057493016893,0,70,255.0,255.0,255.0
123,6.15,13.499999985949827,3.0000000367754507,-4.97188763903904,-1.1343330165946358e-08,2.9690458836675975e-08,-0.8417098004738335,2.2612046522902024e-06,-5.918562068454244e-06,0.2481425203428055,0,70,255.0,255.0,255.0
124,6.2,13.499999988693977,3.0000000295928104,-5.013660712601714,1.3080552236564978e-07,-3.4237529196376324e-07,-0.8291683758213774,3.42474944897366e-06,-8.96406796356338e-06,0.25351446575544206,0,70,255.0,255.0,255.0
125,6.25,13.5,3.0,-5.0548,3.311316147314185e-07,-8.667163375196589e-07,-0.8163583538982894,4.588294245657119e-06,-1.2009573858672519e-05,0.2588864111680804,0,70,255.0,255.0,255.0
126,6.300000000000001,13.500000020482611,2.999999946388042,-5.095291114575951,4.519861195616476e-07,-1.1830454620708385e-06,-0.8032223270396115,2.4588594755197707e-07,-6.435911233744827e-07,0.2665546631790256,0,70,255.0,255.0,255.0
127,6.3500000000000005,13.50000004157994,2.9999998911671057,-5.135115842493953,3.557202094866203e-07,-9.310754498571178e-07,-0.7897028875803866,-4.096522350553087e-06,1.0722391611923353e-05,0.2742229151899706,0,70,255.0,255.0,255.0
128,6.4,13.500000052435958,2.999999862752149,-5.17425501312398,4.23338845063403e-08,-1.1080630087850726e-07,-0.7758000355206146,-8.438930648658151e-06,2.208837434722119e-05,0.2818911672009156,0,70,255.0,255.0,255.0
129,6.45,13.500000042194653,2.9999998895581284,-5.2126894558360055,-4.88172855379192e-07,1.277761984864993e-06,-0.7615137708602953,-1.2781338946763218e-05,3.3454357082519026e-05,0.2895594192118607,0,70,255.0,255.0,255.0
130,6.5,13.5,3.0,-5.2504,-1.2358000101699768e-06,3.2346294073733827e-06,-0.7468440935994285,-1.7123747244868282e-05,4.482033981781684e-05,0.29722767122281013,0,70,255.0,255.0,255.0
131,6.550000000000001,13.499999923557851,3.0000002000825514,-5.287369688821551,-1.68683516251997e-06,4.415185772112168e-06,-0.7319238338746984,-9.176588491311951e-07,2.401914771733893e-06,0.29958271776638484,0,70,255.0,255.0,255.0
132,6.6000000000000005,13.499999844821556,3.0000004061698897,-5.323590420848684,-1.3275658950831111e-06,3.4748208845468116e-06,-0.7168858218227898,1.52884295466056e-05,-4.001651027434829e-05,0.30193776430995956,0,70,255.0,255.0,255.0
133,6.65,13.499999804306336,3.0000005122159528,-5.359056308465043,-1.579922078594151e-07,4.135347446773521e-07,-0.7017300574437026,3.1494517942342404e-05,-8.243493532043047e-05,0.30429281085353427,0,70,255.0,255.0,255.0
134,6.7,13.49999984252741,3.0000004121746766,-5.3937614640542675,1.8218858991511184e-06,-4.768672647496207e-06,-0.6864565407374364,4.77006063380792e-05,-0.00012485336036651266,0.3066478573971089,0,70,255.0,255.0,255.0
135,6.75,13.5,3.0,-5.4277,4.612068425948488e-06,-1.2071801291973871e-05,-0.6710652717039918,6.390669473381599e-05,-0.00016727178541259483,0.30900290394068364,0,70,255.0,255.0,255.0
136,6.800000000000001,13.50000028528598,2.9999992532817528,-5.460858130137852,6.295354530518231e-06,-1.6477697626377834e-05,-0.6550823374615886,3.4247494489727905e-06,-8.964067963561107e-06,0.3303144657554337,0,70,255.0,255.0,255.0
137,6.8500000000000005,13.500000579133832,2.9999984841533354,-5.493190474111313,4.954543370845822e-06,-1.2968208088330128e-05,-0.6380338251284483,-5.705719583586934e-05,0.0001493436494854698,0.3516260275701834,0,70,255.0,255.0,255.0
138,6.9,13.500000730338696,2.9999980883840416,-5.524643753015851,5.896349469313184e-07,-1.543332677830896e-06,-0.6199197347045704,-0.00011753914112071147,0.00030765136693450073,0.37293758938493315,0,70,255.0,255.0,255.0
139,6.95,13.500000587695705,2.999998461743165,-5.555164687946925,-6.799370741225284e-06,1.779692860511983e-05,-0.6007400661899551,-0.00017802108640555358,0.0004659590843835316,0.39424915119968285,0,70,255.0,255.0,255.0
140,7.0,13.5,3.0,-5.5847,-1.7212473693623975e-05,4.50525757605221e-05,-0.5804948195846023,-0.00023850303169039569,0.0006242668018325631,0.41556071301443076,0,70,255.0,255.0,255.0
141,7.050000000000001,13.499998935298231,3.0000035867904384,-5.613192190627046,-2.3494582959552954e-05,0.00010949560473350183,-0.5589308162789449,-1.2781338946759967e-05,0.0019534543570865898,0.4469994192118539,0,70,255.0,255.0,255.0
142,7.1000000000000005,13.499997838643115,3.000012057216769,-5.6405668827060635,-1.849060758830018e-05,0.00024039801146918092,-0.5357948776634166,0.00021294035379687174,0.0032826419123405926,0.47843812540927644,0,70,255.0,255.0,255.0
143,7.15,13.499997274338883,3.0000287342478815,-5.666745479471557,-2.200547579865856e-06,0.00043775979596755995,-0.5110870037380173,0.0004386620465405035,0.0046118294675945954,0.5098768316066989,0,70,255.0,255.0,255.0
144,7.2,13.499997806689766,3.0000569408526623,-5.691649384158034,2.537559706575001e-05,0.0007015809582286388,-0.4848071945027469,0.0006643837392841352,0.005941017022848599,0.5413155378041214,0,70,255.0,255.0,255.0
145,7.25,13.5,3.0001,-5.7152,6.423782634854741e-05,0.0010318614982524179,-0.45695544995760545,0.0008901054320277667,0.007270204578102603,0.5727542440015436,0,70,255.0,255.0,255.0
146,7.300000000000001,13.500003973521096,3.0001599995564945,-5.737345107353964,8.76829773076936e-05,0.0013544952786957018,-0.4291143974226383,4.770060633806723e-05,0.005635146639628566,0.5408878573971257,0,70,255.0,255.0,255.0
147,7.3500000000000005,13.50000806629371,3.0002340869795874,-5.758137995064435,6.900788698235491e-05,0.0015953761622152789,-0.4028666642178926,-0.0007947042193516173,0.004000088701154559,0.5090214707927084,0,70,255.0,255.0,255.0
148,7.4,13.500010172305773,3.0003181746244336,-5.777658329097924,8.212555372532151e-06,0.0017545041488111562,-0.37821225034336764,-0.0016371090450413017,0.0023650307626805513,0.47715508418829117,0,70,255.0,255.0,255.0
149,7.45,13.500008185545225,3.000408174846187,-5.7959857754209425,-9.470301752177469e-05,0.0018318792384833331,-0.35515115579906364,-0.0024795138707309865,0.0007299728242065439,0.4452886975838739,0,70,255.0,255.0,255.0
150,7.5,13.5,3.0005,-5.8132,-0.00023973883170056565,0.00182750143123181,-0.3336833805849804,-0.003321918696420671,-0.0009050851142674756,0.4134223109794575,0,70,255.0,255.0,255.0
151,7.550000000000001,13.499984370617382,3.000590014983585,-5.8293729799571,-0.0003752373262711109,0.001768523280484609,-0.31334759403050155,-0.002098021086401061,-0.0014540409156205323,0.40000915119968594,0,70,255.0,255.0,255.0
152,7.6000000000000005,13.499963496182048,3.000676394864881,-5.8445459370362,-0.00044954094034067393,0.0016820973396697568,-0.2936824654650116,-0.000874123476381473,-0.002002996716973579,0.38659599141991463,0,70,255.0,255.0,255.0
153,7.65,13.499940436438024,3.0007577672543846,-5.858752404136751,-0.00046264967390925786,0.0015682236087872518,-0.27468799488851026,0.00034977413363811464,-0.002551952518326626,0.3731828316401433,0,70,255.0,255.0,255.0
154,7.7,13.499918251129332,3.0008327597625915,-5.8720259141582005,-0.0004145635269768625,0.0014269020878370949,-0.2563641823009974,0.0015736717436577031,-0.003100908319679673,0.359769671860372,0,70,255.0,255.0,255.0
155,7.75,13.4999,3.0009,-5.8844,-0.0003052824995434881,0.0012581327768192857,-0.23871102770247313,0.002797569353677292,-0.0036498641210327264,0.34635651208060225,0,70,255.0,255.0,255.0
156,7.800000000000001,13.499888144009375,3.0009583405091664,-5.895910972817639,-0.00017073367221956246,0.0010754115993648128,-0.22189522645535506,0.0025843837392796566,-0.003658982977146085,0.32627553780411056,0,70,255.0,255.0,255.0
157,7.8500000000000005,13.4998827489781,3.0010075335608897,-5.9066062567907665,-4.684412561552088e-05,0.0008922344791046753,-0.20608347392206186,0.002371198124882025,-0.003668101833259443,0.3061945635276192,0,70,255.0,255.0,255.0
158,7.9,13.499883281942134,3.00104755635803,-5.916536054355075,6.638614026863922e-05,0.0007086014160388697,-0.19127577010259325,0.0021580125104843934,-0.0036772206893728016,0.2861135892511279,0,70,255.0,255.0,255.0
159,7.95,13.499889209937447,3.001078386103447,-5.925750567946255,0.00016895712543291768,0.0005245124101673963,-0.1774721149969492,0.0019448268960867618,-0.0036863395454861596,0.2660326149746366,0,70,255.0,255.0,255.0
160,8.0,13.4999,3.0011,-5.9343,0.0002608688298773147,0.000339967461490255,-0.16467250860512972,0.0017316412816891294,-0.0036954584015995206,0.24595164069814457,0,70,255.0,255.0,255.0
161,8.05,13.499915053345116,3.00111182297975,-5.9422335287723484,0.0003381720151510456,0.00012183032205533633,-0.15281550014807882,0.0013604861292600611,-0.005030027175797103,0.22832869758388477,0,70,255.0,255.0,255.0
162,8.1,13.499933507905554,3.0011110708915605,-5.949596235800737,0.00039691744280332097,-0.00016303525608945115,-0.14183963884674128,0.0009893309768310063,-0.006364595949994638,0.21070575446962558,0,70,255.0,255.0,255.0
163,8.15,13.499954435793436,3.001094407313496,-5.9564321784429515,0.0004371051128341452,-0.0005146292729441276,-0.13174492470111637,0.0006181758244019381,-0.007699164724192221,0.19308281135536576,0,70,255.0,255.0,255.0
164,8.200000000000001,13.499976909120878,3.0010584958236213,-5.9627854140567775,0.00045873502524351566,-0.000932951728508684,-0.12253135771120444,0.00024702067197287006,-0.009033733498389804,0.17545986824110596,0,70,255.0,255.0,255.0
165,8.25,13.5,3.001,-5.9687,0.0004618071800314327,-0.0014180026227831022,-0.11419893787700582,-0.00012413448045618626,-0.010368302272587341,0.15783692512684666,0,70,255.0,255.0,255.0
166,8.3,13.50002284261016,3.0009159675718338,-5.974220512092969,0.0004500456116115821,-0.001946732887589551,-0.10677877295232516,-0.0003463282563378293,-0.010780908319670308,0.1389696718603757,0,70,255.0,255.0,255.0
167,8.35,13.500044819399681,3.0008049828728685,-5.979393600006288,0.0004271743543976503,-0.0024960934547501286,-0.10030197069096827,-0.0005685220322194644,-0.011193514366753261,0.12010241859390541,0,70,255.0,255.0,255.0
168,8.4,13.50006537488412,3.000666014387986,-5.984266431873122,0.0003931934083896355,-0.003066084324264874,-0.09476853109293468,-0.0007907158081011075,-0.011606120413836227,0.10123516532743443,0,70,255.0,255.0,255.0
169,8.450000000000001,13.50008395357904,3.000498030602069,-5.988886175826638,0.0003481027735875384,-0.003656705496133768,-0.09017845415822467,-0.0010129095839827504,-0.012018726460919196,0.08236791206096347,0,70,255.0,255.0,255.0
170,8.5,13.5001,3.0003,-5.9933,0.00029190244999136126,-0.004267956970356789,-0.08653173988683834,-0.0012351033598643835,-0.01243133250800215,0.06350065879449318,0,70,255.0,255.0,255.0
171,8.55,13.500113576214238,3.000070706732915,-5.997554022855773,0.0002616455383970326,-0.004910898771694087,-0.08376540804261053,2.4826896091255813e-05,-0.013286339545489379,0.04715261497461751,0,70,255.0,255.0,255.0
172,8.6,13.50012721449572,2.999808197616966,-6.001690164174111,0.0002943851396004846,-0.005596590924905721,-0.08181647838937657,0.0012847571520468505,-0.014141346582976576,0.030804571154742402,0,70,255.0,255.0,255.0
173,8.65,13.50014406467008,2.9995103351345596,-6.005749294064561,0.00039012125360171943,-0.00632503342999174,-0.08068495092713633,0.0025446874080024893,-0.014996353620463802,0.014456527334866728,0,70,255.0,255.0,255.0
174,8.700000000000001,13.500167276562959,2.9991749817681024,-6.009772282636674,0.0005488538804007371,-0.0070962262869521215,-0.08037082565588988,0.0038046176639581286,-0.01585136065795103,-0.0018915164850089594,0,70,255.0,255.0,255.0
175,8.75,13.5002,2.9988,-6.0138,0.0007705830199975287,-0.007910169495786835,-0.08087410257563718,0.0050645479199137285,-0.016706367695438165,-0.01823956030488394,0,70,255.0,255.0,255.0
176,8.8,13.50024445253288,2.9983836054965067,-6.0178753964839355,0.0009993722347953259,-0.008745672025632737,-0.08231959487723192,0.004087020671998022,-0.016713733498397436,-0.03958013175890453,0,70,255.0,255.0,255.0
177,8.85,13.500299122617438,2.997925426659268,-6.022049743297268,0.0011792850871973311,-0.009581542845626572,-0.08483211575152759,0.003109493424082349,-0.016721099301356703,-0.06092070321292436,0,70,255.0,255.0,255.0
178,8.9,13.50036156643556,2.9974254450737754,-6.0263763918686335,0.0013103215772035579,-0.010417781955768401,-0.08841166519852436,0.0021319661761666424,-0.016728465104315974,-0.08226127466694495,0,70,255.0,255.0,255.0
179,8.950000000000001,13.500429340169118,2.9968836423255216,-6.030908693626665,0.0013924817048139983,-0.011254389356058193,-0.09305824321822219,0.0011544389282509351,-0.01673583090727524,-0.10360184612096554,0,70,255.0,255.0,255.0
180,9.0,13.5005,2.9963,-6.0357,0.0014257654700286528,-0.01209136504649592,-0.09877184981062086,0.0001769116803352639,-0.016743196710234484,-0.12494241757498525,0,70,255.0,255.0,255.0
181,9.05,13.500571813654243,2.995674071281058,-6.040800391208485,0.0014528655224365018,-0.012954413125774653,-0.10535621244847099,0.0009070904159786837,-0.01777872646091431,-0.13843208793901618,0,70,255.0,255.0,255.0
182,9.1,13.500645895034523,2.995003695745964,-6.046246862636817,0.0015164745116265197,-0.013869237692587341,-0.11261505860452241,0.0016372691516220775,-0.018814256211594094,-0.1519217583030466,0,70,255.0,255.0,255.0
183,9.15,13.500724069587685,2.9942862845703404,-6.052073138460908,0.0016165924375987103,-0.014835838746934057,-0.12054838827877562,0.0023674478872654976,-0.01984978596227392,-0.16541142866707753,0,70,255.0,255.0,255.0
184,9.200000000000001,13.500808162760563,2.9935192489298115,-6.058312942856665,0.0017532193003530726,-0.01585421628881476,-0.1291562014712304,0.003097626622908917,-0.020885315712953743,-0.17890109903110846,0,70,255.0,255.0,255.0
185,9.25,13.5009,2.9927,-6.065,0.0019263550998895999,-0.01692437031822942,-0.13843849818188636,0.003827805358552313,-0.021920845463633626,-0.19239076939513833,0,70,255.0,255.0,255.0
186,9.3,13.501001092850153,2.9918273093792616,-6.072157438682126,0.002117165675452363,-0.017964675471269252,-0.14775955532888999,0.003804617663958103,-0.01969136065795911,-0.18045151648500132,0,70,255.0,255.0,255.0
187,9.35,13.501111697244468,2.990905390356878,-6.079766006155465,0.002306816866285409,-0.018893506384025326,-0.15648364983038646,0.003781429969363894,-0.017461875852284668,-0.16851226357486473,0,70,255.0,255.0,255.0
188,9.4,13.501231755213702,2.989939816644864,-6.08779585428774,0.002495308672388751,-0.01971086305649771,-0.16461078168637638,0.0037582422747696846,-0.015232391046610151,-0.1565730106647277,0,70,255.0,255.0,255.0
189,9.450000000000001,13.501361208788627,2.9889361619552326,-6.096217134946676,0.0026826410937623828,-0.020416745488686362,-0.17214095089685943,0.0037350545801754747,-0.013002906240935632,-0.1446337577545907,0,70,255.0,255.0,255.0
190,9.5,13.5015,2.9879,-6.105,0.0028688141304062972,-0.021011153680591275,-0.17907415746183544,0.0037118668855812657,-0.010773421435261221,-0.13269450484445344,0,70,255.0,255.0,255.0
191,9.55,13.501647814945144,2.9868350912018964,-6.1141210540630135,0.003038471775752846,-0.02160288498915428,-0.18579756623597082,0.003074438928280579,-0.012895830907258606,-0.136241846120957,0,70,255.0,255.0,255.0
192,9.600000000000001,13.501803315987612,2.9857379428265243,-6.123582712741328,0.0031762580232343597,-0.022300736771317154,-0.19269834207393133,0.002437010970979892,-0.015018240379255992,-0.13978918739746057,0,70,255.0,255.0,255.0
193,9.65,13.501964909557504,2.9846032488502043,-6.133393844388136,0.0032821728728508353,-0.02310470902707987,-0.1997764849757168,0.0017995830136792279,-0.0171406498512533,-0.14333652867396401,0,70,255.0,255.0,255.0
194,9.700000000000001,13.502131002084932,2.983425703249256,-6.14356331735663,0.003356216324602281,-0.02401480175644248,-0.2070319949413277,0.001162155056378541,-0.01926305932325069,-0.14688386995046757,0,70,255.0,255.0,255.0
195,9.75,13.5023,2.9822,-6.1541,0.00339838837848869,-0.02503101495940493,-0.2144648719707635,0.0005247270990778631,-0.021385468795248136,-0.150431211226971,0,70,255.0,255.0,255.0
196,9.8,13.502470847369267,2.9809227258131537,-6.165010345065823,0.0034409472215376187,-0.026039784572110106,-0.22193017972721607,0.001177626622879276,-0.018965315712958224,-0.14818109903112842,0,70,255.0,255.0,255.0
197,9.850000000000001,13.50264463880509,2.9795980383370244,-6.176291142879225,0.0035161510407766194,-0.02692754653070078,-0.22928298187387655,0.0018305261466806887,-0.01654516263066831,-0.1459309868352858,0,70,255.0,255.0,255.0
198,9.9,13.502823006556282,2.978231987954319,-6.187936768159715,0.003623999836205686,-0.027694300835176936,-0.23652327841074464,0.0024834256704820783,-0.014125009548378486,-0.1436808746394433,0,70,255.0,255.0,255.0
199,9.950000000000001,13.503007582871648,2.976830625047742,-6.199941595626803,0.0037644936078248276,-0.02834004748553862,-0.24365106933782082,0.003136325194283491,-0.011704856466088574,-0.1414307624436007,0,70,255.0,255.0,255.0
200,10.0,13.5032,2.9754,-6.2123,0.003937632355634033,-0.02886478648178579,-0.2506663546551046,0.003789224718084877,-0.009284703383798637,-0.13918065024775617,0,70,255.0,255.0,255.0
201,10.05,13.503401595577788,2.9739444055454904,-6.225007165673692,0.004125739338091397,-0.02937397672240448,-0.2576177148551637,0.0037350545802095837,-0.011082906240948662,-0.13887375775460356,0,70,255.0,255.0,255.0
202,10.100000000000001,13.503612528792027,2.9724611038253785,-6.238061515741772,0.004311137813654996,-0.029973077105880673,-0.2645537304305652,0.003680884442334291,-0.012881109098098687,-0.13856686526145098,0,70,255.0,255.0,255.0
203,10.15,13.503832664217372,2.970945599332522,-6.251462282973005,0.004493827782324824,-0.030662087632214344,-0.2714744013813088,0.0036267143044589997,-0.014679311955248648,-0.1382599727682984,0,70,255.0,255.0,255.0
204,10.200000000000001,13.50406186642848,2.9693933965597763,-6.265208700136159,0.004673809244100895,-0.03144100830140554,-0.27837972770739494,0.0035725441665837064,-0.016477514812398675,-0.1379530802751458,0,70,255.0,255.0,255.0
205,10.25,13.5043,2.9678,-6.2793,0.004851082198983195,-0.0323098391134542,-0.2852697094088233,0.003518374028708436,-0.018275717669548497,-0.13764618778199234,0,70,255.0,255.0,255.0
206,10.3,13.50454677031958,2.9661620520048846,-6.293735392239405,0.005016095426109407,-0.033200308538273875,-0.2921429608521342,0.003082155056339967,-0.017343059323238107,-0.13728386995043876,0,70,255.0,255.0,255.0
207,10.350000000000001,13.504801246026801,2.964480746361461,-6.308513994153688,0.0051592977046171955,-0.03404414504577803,-0.2989980964038674,0.002645936083971498,-0.016410400976927714,-0.13692155211888515,0,70,255.0,255.0,255.0
208,10.4,13.505062336574232,2.9627584147155956,-6.323634899948266,0.005280689034506557,-0.03484134863596665,-0.30583511606402264,0.0022097171116030444,-0.015477742630617356,-0.13655923428733158,0,70,255.0,255.0,255.0
209,10.450000000000001,13.505328951414443,2.960997388713153,-6.3390972038285645,0.005380269415777499,-0.035591919308839766,-0.3126540198326005,0.0017734981392345753,-0.014545084284306967,-0.136196916455778,0,70,255.0,255.0,255.0
210,10.5,13.5056,2.9592,-6.3549,0.005458038848430016,-0.03629585706439733,-0.3194548077096004,0.0013372791668661288,-0.013612425937996442,-0.1358345986242253,0,70,255.0,255.0,255.0
211,10.55,13.505874523143891,2.957368186434971,-6.371042465368685,0.005521878957458868,-0.036976789124499566,-0.32624244173629646,0.001216325194287941,-0.013624856466092627,-0.13567076244361376,0,70,255.0,255.0,255.0
212,10.600000000000001,13.506152087100768,2.9555023107287766,-6.387524107643479,0.005579671367858812,-0.037658342711006605,-0.33302188395396193,0.0010953712217097531,-0.013637286994188813,-0.1355069262630022,0,70,255.0,255.0,255.0
213,10.65,13.506432389485699,2.9536023418050967,-6.40434451723393,0.005631416079629844,-0.03834051782391844,-0.3397931343625966,0.0009744172491315697,-0.013649717522284999,-0.13534309008239065,0,70,255.0,255.0,255.0
214,10.700000000000001,13.506715127913754,2.9516682485876116,-6.421503284549588,0.005677113092771967,-0.039023314463235106,-0.34655619296220097,0.0008534632765533819,-0.013662148050381184,-0.1351792539017791,0,70,255.0,255.0,255.0
215,10.75,13.507,2.9497,-6.439,0.005716762407285182,-0.03970673262895655,-0.35331105975277455,0.0007325093039751915,-0.013674578578477314,-0.13501541772116799,0,70,255.0,255.0,255.0
216,10.8,13.507287137104854,2.9476972022552315,-6.456833946285855,0.0057763887440501205,-0.04041253496372857,-0.3600392722026827,0.0016525441666223055,-0.014557514812403095,-0.13411308027515412,0,70,255.0,255.0,255.0
217,10.850000000000001,13.507578405570124,2.945658010723432,-6.475003175272397,0.005882016823947415,-0.04116248411019688,-0.36672236778029016,0.0025725790292694195,-0.015440451046328876,-0.13321074282914028,0,70,255.0,255.0,255.0
218,10.9,13.507876105482968,2.9435802180640174,-6.493505431116012,0.00603364664697706,-0.04195658006836145,-0.3733603464855967,0.0034926138919165015,-0.016323387280254627,-0.13230840538312644,0,70,255.0,255.0,255.0
219,10.950000000000001,13.508182536930539,2.941461616936401,-6.512338457973085,0.006231278213139065,-0.04279482283822234,-0.37995320831860274,0.0044126487545636155,-0.017206323514180406,-0.13140606793711257,0,70,255.0,255.0,255.0
220,11.0,13.5085,2.9393,-6.5315,0.0064749115224334184,-0.04367721241977949,-0.3865009532793079,0.005332683617210683,-0.018089259748106323,-0.13050373049109698,0,70,255.0,255.0,255.0
221,11.05,13.508829728436693,2.937094204544102,-6.550988149487898,0.006700566066343588,-0.044541071020589504,-0.3930244694529793,0.0036934981391959837,-0.016465084284293906,-0.1304369164557569,0,70,255.0,255.0,255.0
222,11.100000000000001,13.509168690618736,2.9348472463774944,-6.570802391266936,0.006844261336353022,-0.045323720848208904,-0.3995446449248838,0.0020543126611812837,-0.014840908820481488,-0.13037010242041677,0,70,255.0,255.0,255.0
223,11.15,13.50951278858243,2.9325631859388346,-6.590942558302024,0.006905997332461719,-0.046025161902637654,-0.40606147969502093,0.00041512718316664195,-0.01321673335666913,-0.13030328838507668,0,70,255.0,255.0,255.0
224,11.200000000000001,13.509857924364082,2.930246083666783,-6.611408483558075,0.006885774054669683,-0.04664539418387581,-0.4125749737633914,-0.0012240582948480575,-0.011592557892856712,-0.13023647434973656,0,70,255.0,255.0,255.0
225,11.25,13.5102,2.9279,-6.6322,0.006783591502976916,-0.04718441769192332,-0.4190851271299945,-0.0028632437728627336,-0.00996838242904452,-0.13016966031439248,0,70,255.0,255.0,255.0
226,11.3,13.510536349148369,2.9255275795683584,-6.653316655762555,0.006685346990570145,-0.04772718095390908,-0.4255748499853988,-0.0010665367234080148,-0.011742148050385695,-0.12941925390177492,0,70,255.0,255.0,255.0
227,11.350000000000001,13.51087003195493,2.9231258037665917,-6.674756859659864,0.006676937830636112,-0.0483586324969619,-0.4320270525201722,0.000730170326046704,-0.013515913671726871,-0.12866884748915736,0,70,255.0,255.0,255.0
228,11.4,13.511205540187309,2.920690238180645,-6.696518735675895,0.006758364023174813,-0.04907877232108176,-0.43844173473431447,0.0025268773755013595,-0.015289679293067984,-0.12791844107653985,0,70,255.0,255.0,255.0
229,11.450000000000001,13.511547365613124,2.9182164483964654,-6.718600407794618,0.006929625568186251,-0.0498876004262687,-0.44481889662782614,0.004323584424956078,-0.017063444914409157,-0.1271680346639223,0,70,255.0,255.0,255.0
230,11.5,13.5119,2.9157,-6.741,0.0071907224656704155,-0.050785116812522665,-0.45115853820070667,0.006120291474410705,-0.018837210535750493,-0.12641762825130654,0,70,255.0,255.0,255.0
231,11.55,13.51226647496983,2.9131378771824634,-6.7637156274618855,0.007454045971393923,-0.051686205163771384,-0.457460130605418,0.004412648754529456,-0.017206323514197572,-0.12564606793714386,0,70,255.0,255.0,255.0
232,11.600000000000001,13.512643981561538,2.910532738556141,-6.786745370093614,0.007631987341123367,-0.05250574916394245,-0.46372314499442124,0.0027050060346482064,-0.015575436492644654,-0.1248745076229812,0,70,255.0,255.0,255.0
233,11.65,13.51302825066834,2.9078886613385873,-6.810087298994398,0.007724546574858746,-0.05324374881303584,-0.4699475813677161,0.0009973633147670182,-0.013944549471091795,-0.12410294730881856,0,70,255.0,255.0,255.0
234,11.700000000000001,13.513415013183426,2.905209722747355,-6.8337394852634565,0.007731723672600065,-0.05390020411105162,-0.47613343972530303,-0.0007102794051142315,-0.012313662449538874,-0.1233313869946559,0,70,255.0,255.0,255.0
235,11.75,13.5138,2.9025,-6.8577,0.007653518634347326,-0.054475115057989736,-0.48228072006718165,-0.0024179221249954475,-0.010682775427986069,-0.12255982668049414,0,70,255.0,255.0,255.0
236,11.8,13.514180150972322,2.8997625117017884,-6.881967234389906,0.007562469123851238,-0.05503199839101038,-0.4884086275929371,-0.0012240582948480291,-0.011592557892839686,-0.1225564743497185,0,70,255.0,255.0,255.0
237,11.850000000000001,13.514557241798911,2.8969960420088445,-6.906540859965686,0.007531112804862521,-0.055634370847273726,-0.4945363675021537,-3.019446470061077e-05,-0.012502340357693301,-0.12255312201894286,0,70,255.0,255.0,255.0
238,11.9,13.514934257139334,2.8941983164650065,-6.931420868346512,0.007559449677381175,-0.05628223242677971,-0.5006639397948314,0.0011636693654467653,-0.013412122822546885,-0.12254976968816722,0,70,255.0,255.0,255.0
239,11.950000000000001,13.515314181653173,2.8913670606141126,-6.956607251151559,0.0076474797414072,-0.056975583129528405,-0.5067913444709703,0.0023575331955941834,-0.014321905287400502,-0.12254641735739158,0,70,255.0,255.0,255.0
240,12.0,13.5157,2.8885,-6.9821,0.007795202996940591,-0.057714422955519755,-0.5129185815305705,0.003551397025741608,-0.015231687752254308,-0.1225430650266146,0,70,255.0,255.0,255.0
241,12.05,13.51609372114088,2.885595276010383,-7.007898634978494,0.007944077533208145,-0.05847380127218626,-0.5190173590228335,0.0024035844249605076,-0.015143444914405235,-0.12140803466390133,0,70,255.0,255.0,255.0
242,12.100000000000001,13.516493451242821,2.8826526934084797,-7.034000790043648,0.008035561439436645,-0.0592287674469603,-0.5250593849969608,0.0012557718241794072,-0.01505520207655616,-0.12027300430118806,0,70,255.0,255.0,255.0
243,12.15,13.516896320774324,2.879672472801385,-7.0604036276195545,0.008069654715626087,-0.05997932147984187,-0.5310446594529522,0.00010795922339834792,-0.014966959238707089,-0.11913797393847485,0,70,255.0,255.0,255.0
244,12.200000000000001,13.517299460203882,2.8766548347961938,-7.087104310130309,0.008046357361776477,-0.060725463370831,-0.5369731823908082,-0.001039853377382753,-0.014878716400858015,-0.11800294357576158,0,70,255.0,255.0,255.0
245,12.25,13.5177,2.8736,-7.1141,0.007965669377887816,-0.06146719311992766,-0.5428449538105282,-0.0021876659781638053,-0.014790473563008832,-0.11686791321304568,0,70,255.0,255.0,255.0
246,12.3,13.51809616446416,2.8705083842566803,-7.141388625696119,0.007893220743305866,-0.06219279652024168,-0.5487059363157216,-0.000710279405114196,-0.014233662449551446,-0.11757138699468649,0,70,255.0,255.0,255.0
247,12.350000000000001,13.518490553229807,2.867381184357237,-7.1689711798597235,0.007894641437376396,-0.06289055936488283,-0.554602092509997,0.0007671071679354134,-0.013676851336094059,-0.11827486077632729,0,70,255.0,255.0,255.0
248,12.4,13.518886859763375,2.8642197923294535,-7.19684942117527,0.007969931460099404,-0.06356048165385107,-0.5605334223933542,0.0022444937409849706,-0.013120040222636693,-0.11897833455796808,0,70,255.0,255.0,255.0
249,12.450000000000001,13.519288777531296,2.861025600201113,-7.22502510832721,0.008119090811474895,-0.06420256338714649,-0.5664999259657938,0.00372188031403458,-0.012563229109179307,-0.11968180833960888,0,70,255.0,255.0,255.0
250,12.5,13.5197,2.8578,-7.2535,0.00834211949150286,-0.06481680456476901,-0.5725016032273151,0.0051992668870841224,-0.012006417995721552,-0.12038528212125144,0,70,255.0,255.0,255.0
251,12.55,13.52012322100248,2.8545439869628955,-7.282274862237033,0.008579039493570561,-0.06542701264684697,-0.5784788957142811,0.0042775331956237846,-0.012401905287396358,-0.11870641735738442,0,70,255.0,255.0,255.0
252,12.600000000000001,13.520557135837949,2.851256969162572,-7.31134649051746,0.008769872811065242,-0.06605699509350867,-0.5843722449630538,0.0033557995041634467,-0.012797392579071165,-0.11702755259351742,0,70,255.0,255.0,255.0
253,12.65,13.520999440172176,2.8479379578808017,-7.340710687679367,0.008914619443986907,-0.06670675190475409,-0.5901816509736327,0.0024340658127031418,-0.013192879870745957,-0.11534868782965048,0,70,255.0,255.0,255.0
254,12.700000000000001,13.521447829670937,2.8445859643993536,-7.370363256560852,0.009013279392335557,-0.06737628308058326,-0.5959071137460187,0.001512332121242804,-0.013588367162420765,-0.11366982306578347,0,70,255.0,255.0,255.0
255,12.75,13.5219,2.8412,-7.4003,0.009065852656111187,-0.06806558862099614,-0.601548633280211,0.0005905984297825267,-0.013983854454095224,-0.11199095830191386,0,70,255.0,255.0,255.0
256,12.8,13.522354151525922,2.837779667891738,-7.430517525355752,0.009102621282420219,-0.06873915289237009,-0.6071544808271528,0.0008801466225787161,-0.012958716400862443,-0.11224294357575548,0,70,255.0,255.0,255.0
257,12.850000000000001,13.522810503418404,2.834326938992474,-7.461015658070444,0.00915386731836906,-0.0693614602610824,-0.6127729276377867,0.0011696948153749054,-0.011933578347629663,-0.11249492884959712,0,70,255.0,255.0,255.0
258,12.9,13.523269779547922,2.830844376147341,-7.491795028107259,0.00921959076395771,-0.06993251072713305,-0.6184039737121125,0.0014592430081710843,-0.010908440294396918,-0.11274691412343874,0,70,255.0,255.0,255.0
259,12.950000000000001,13.52373270378496,2.8273345422014717,-7.522856265429383,0.00929979161918617,-0.07045230429052209,-0.6240476190501306,0.0017487912009672736,-0.009883302241164137,-0.11299889939728036,0,70,255.0,255.0,255.0
260,13.0,13.5242,2.8238,-7.5542,0.009394469884054435,-0.07092084095124948,-0.6297038636518404,0.0020383393937634248,-0.008858164187931283,-0.1132508846711211,0,70,255.0,255.0,255.0
261,13.05,13.524672172893828,2.820242141470152,-7.585826236339959,0.009490475376749496,-0.07140837578367715,-0.6353351809771088,0.0018018803140390054,-0.010643229109175126,-0.11200180833961111,0,70,255.0,255.0,255.0
262,13.100000000000001,13.525148850488444,2.816657674867531,-7.617732477200769,0.009574657915458336,-0.07198516386216701,-0.6409040444858016,0.0015654212343145862,-0.012428294030418969,-0.11075273200810112,0,70,255.0,255.0,255.0
263,13.15,13.525629441636141,2.813042137529834,-7.649915599891597,0.009647017500180956,-0.07265120518671904,-0.6464104541779188,0.0013289621545901752,-0.014213358951662747,-0.10950365567659119,0,70,255.0,255.0,255.0
264,13.200000000000001,13.526113355189228,2.809391066794758,-7.682372481721617,0.009707554130917355,-0.07340649975733328,-0.6518544100534607,0.001092503074865756,-0.015998423872906592,-0.1082545793450812,0,70,255.0,255.0,255.0
265,13.25,13.5266,2.8057,-7.7151,0.00975626780766753,-0.07425104757400969,-0.657235912112427,0.0008560439951413173,-0.01778348879415015,-0.10700550301357392,0,70,255.0,255.0,255.0
266,13.3,13.527089156898764,2.8019661662276527,-7.74809592928441,0.009815477210577135,-0.07508334397292364,-0.662608795264411,0.0015123321212428386,-0.015508367162407456,-0.107909823065779,0,70,255.0,255.0,255.0
267,13.350000000000001,13.52758209462783,2.7981935615374005,-7.781361633126485,0.009907501019791817,-0.07580188429025045,-0.6680268944190051,0.00216862024734436,-0.013233245530664763,-0.10881414311798408,0,70,255.0,255.0,255.0
268,13.4,13.528080453907515,2.7943878737333216,-7.814899372326355,0.01003233923531157,-0.07640666852599011,-0.6734902095762093,0.0028249083734458577,-0.010958123898922152,-0.10971846317018913,0,70,255.0,255.0,255.0
269,13.450000000000001,13.528585875458132,2.7905547906194945,-7.848711407684149,0.010189991857136402,-0.07689769668014267,-0.6789987407360241,0.003481196499547379,-0.008683002267179458,-0.1106227832223942,0,70,255.0,255.0,255.0
270,13.5,13.5291,2.7867,-7.8828,0.010380458885266305,-0.07727496875270806,-0.6845524878984488,0.004137484625648849,-0.006407880635436847,-0.11152710327460014,0,70,255.0,255.0,255.0
271,13.55,13.52962399951112,2.782827593619235,-7.9171660465224,0.01057561578093245,-0.07763424832462343,-0.6900696379652461,0.0036687912009968756,-0.00796330224117725,-0.10915889939728768,0,70,255.0,255.0,255.0
272,13.600000000000001,13.530157171000237,2.7789352789828663,-7.951804990293295,0.010747338005365998,-0.0780712989768258,-0.6954683778381777,0.003200097776344902,-0.009518723846917654,-0.10679069551997522,0,70,255.0,255.0,255.0
273,13.65,13.530698342733801,2.7750191675368807,-7.986710910802986,0.01089562555856694,-0.07858612070931517,-0.7007487075172435,0.0027314043516929445,-0.011074145452658002,-0.10442249164266285,0,70,255.0,255.0,255.0
274,13.700000000000001,13.531246342978243,2.7710753707272633,-8.021877887541786,0.01102047844053529,-0.07917871352209159,-0.705910627002444,0.002262710927040971,-0.012629567058398405,-0.10205428776535039,0,70,255.0,255.0,255.0
275,13.75,13.5318,2.7671,-8.0573,0.011121896651271036,-0.07984907741515501,-0.7109541362937785,0.0017940175023889726,-0.014184988664138753,-0.09968608388803712,0,70,255.0,255.0,255.0
276,13.8,13.532358045056764,2.7630898592954085,-8.09297268462599,0.011194059665701554,-0.08055566272858126,-0.715960652874607,0.0010925030748316312,-0.014078423872910938,-0.10057457934510074,0,70,255.0,255.0,255.0
277,13.850000000000001,13.532918821371215,2.7590445225311346,-8.128896805700343,0.0112311469587542,-0.08125691980244612,-0.7210115942282886,0.0003909886472742896,-0.013971859081683122,-0.10146307480216435,0,70,255.0,255.0,255.0
278,13.9,13.533480575157283,2.7549642561191567,-8.1650745844617,0.011233158530428982,-0.08195284863674956,-0.7261069603548234,-0.00031052578028302686,-0.01386529429045531,-0.10235157025922792,0,70,255.0,255.0,255.0
279,13.950000000000001,13.534041552628901,2.750849326471452,-8.201508242148705,0.011200094380725896,-0.08264344923149165,-0.7312467512542115,-0.0010120402078403683,-0.013758729499227493,-0.10324006571629153,0,70,255.0,255.0,255.0
280,14.0,13.5346,2.7467,-8.2382,0.011131954509644947,-0.08332872158667233,-0.7364309669264525,-0.0017135546353977127,-0.01365216470799957,-0.10412856117335156,0,70,255.0,255.0,255.0
281,14.05,13.535155020261827,2.742516969199132,-8.275151214973643,0.011080145556248911,-0.08398310076105181,-0.741607750536345,-0.0003588035004436804,-0.012523002267178958,-0.1029427832223435,0,70,255.0,255.0,255.0
282,14.100000000000001,13.535709143514902,2.738302630892596,-8.312359786905343,0.011096074159600578,-0.08458102181339024,-0.746725245248687,0.0009959476345103519,-0.011393839826358344,-0.10175700527133544,0,70,255.0,255.0,255.0
283,14.15,13.536265756637066,2.7340598079864935,-8.34982275135022,0.011179740319699944,-0.08512248474368762,-0.7517834510634784,0.002350698769464336,-0.010264677385537772,-0.1005712273203274,0,70,255.0,255.0,255.0
284,14.200000000000001,13.536828246506152,2.7297913233869275,-8.387537143863398,0.011331144036547013,-0.08560748955194401,-0.7567823679807197,0.0037054499044183687,-0.00913551494471716,-0.09938544936931934,0,70,255.0,255.0,255.0
285,14.25,13.5374,2.7255,-8.4255,0.011550285310141777,-0.08603603623815936,-0.7617219960004102,0.005060201039372325,-0.008006352503896697,-0.09819967141831043,0,70,255.0,255.0,255.0
286,14.3,13.537983473895926,2.721187863908064,-8.463708855479439,0.011781358109302854,-0.08645593422721654,-0.766632344980002,0.00418271092707057,-0.00878956705839028,-0.09821428776535938,0,70,255.0,255.0,255.0
287,14.350000000000001,13.538577404569171,2.7168537538984823,-8.502163246678291,0.011968556402848841,-0.0869149929439984,-0.7715434247769464,0.0033052208147688143,-0.009572781612883862,-0.09822890411240834,0,70,255.0,255.0,255.0
288,14.4,13.53917959829445,2.712495711934869,-8.540863210137422,0.012111880190779734,-0.08741321238850493,-0.7764552353912428,0.0024277307024670896,-0.010355996167377418,-0.0982435204594573,0,70,255.0,255.0,255.0
289,14.450000000000001,13.539787861346486,2.708111779980837,-8.579808782397704,0.012211329473095545,-0.08795059256073615,-0.781367776822892,0.0015502405901653337,-0.011139210721871,-0.09825813680650626,0,70,255.0,255.0,255.0
290,14.5,13.5404,2.7037,-8.619,0.012266904249796269,-0.088527133460692,-0.7862810490718936,0.000672750477863554,-0.011922425276364668,-0.0982727531535561,0,70,255.0,255.0,255.0
291,14.55,13.541014284154468,2.69925877516861,-8.658436563108603,0.012306422006545885,-0.08912116233008172,-0.7911748695436409,0.0009079597921210414,-0.011838729499223554,-0.09748006571633762,0,70,255.0,255.0,255.0
292,14.600000000000001,13.541630838208418,2.6947879535134724,-8.6981168263815,0.012357700229008376,-0.08971100641061439,-0.7960290556435274,0.0011431691063785287,-0.011755033722082439,-0.09668737827911913,0,70,255.0,255.0,255.0
293,14.65,13.54225025018513,2.69028774427403,-8.738038808100095,0.012420738917183738,-0.09029666570228996,-0.8008436073715529,0.0013783784206360078,-0.011671337944941329,-0.09589469084190066,0,70,255.0,255.0,255.0
294,14.700000000000001,13.542873108107896,2.6857583566897247,-8.778200526545792,0.012495538071071975,-0.09087814020510851,-0.8056185247277174,0.0016135877348934951,-0.011587642167800215,-0.09510200340468218,0,70,255.0,255.0,255.0
295,14.75,13.5435,2.6812,-8.8186,0.012582097690673085,-0.09145542991906999,-0.810353807712021,0.0018487970491509464,-0.011503946390659214,-0.09430931596746372,0,70,255.0,255.0,255.0
296,14.8,13.544131389486202,2.676613035417494,-8.859235292086145,0.01267295386451243,-0.09201941645245472,-0.8150521768454401,0.0017854499044228024,-0.011055514944729821,-0.0936254493692976,0,70,255.0,255.0,255.0
297,14.850000000000001,13.544767242597166,2.671998432047626,-8.900104647795713,0.012760642681115368,-0.09256098141354299,-0.8197163526489509,0.0017221027596946584,-0.010607083498800428,-0.0929415827711315,0,70,255.0,255.0,255.0
298,14.9,13.545407400965026,2.6673573109690114,-8.941206357462208,0.012845164140481896,-0.09308012480233477,-0.8243463351225533,0.0016587556149665168,-0.01015865205287105,-0.09225771617296541,0,70,255.0,255.0,255.0
299,14.950000000000001,13.546051706221924,2.662690793260264,-8.982538711419139,0.012926518242612019,-0.09357684661883009,-0.8289421242662474,0.0015954084702383727,-0.009710220606941657,-0.09157384957479929,0,70,255.0,255.0,255.0
300,15.0,13.5467,2.658,-9.0241,0.013004704987505732,-0.09405114686302894,-0.8335037200800332,0.0015320613255102311,-0.009261789161012612,-0.09088998297663142,0,70,255.0,255.0,255.0
301,15.05,13.547352157900725,2.6532858831614132,-9.06588866854682,0.013081762535398476,-0.09451317186010094,-0.8380404230746112,0.0015502405901994423,-0.009219210721866954,-0.09057813680649023,0,70,255.0,255.0,255.0
302,15.100000000000001,13.548008191402925,2.648548718296022,-9.107903782435654,0.01315972904652568,-0.09497306793521565,-0.8425615337606823,0.0015684198548886535,-0.009176632282721297,-0.09026629063634903,0,70,255.0,255.0,255.0
303,15.15,13.548668145954764,2.6437886118499243,-9.15014456205108,0.013238604520887341,-0.09543083508837306,-0.8470670521382462,0.001586599119577864,-0.00913405384357564,-0.08995444446620783,0,70,255.0,255.0,255.0
304,15.200000000000001,13.549332067004404,2.6390056702692175,-9.192610227777669,0.013318388958483465,-0.0958864733195732,-0.851556978207303,0.0016047783842670753,-0.009091475404429982,-0.08964259829606663,0,70,255.0,255.0,255.0
305,15.25,13.55,2.6342,-9.2353,0.013399082359314045,-0.09633998262881605,-0.8560313119678528,0.0016229576489562442,-0.00904889696528377,-0.08933075212592367,0,70,255.0,255.0,255.0
306,15.3,13.550671978910897,2.629371431936851,-9.278213233726584,0.013479995993909435,-0.09680789610714305,-0.8604981308561174,0.0016135877348593646,-0.009667642167796062,-0.08934200340466117,0,70,255.0,255.0,255.0
307,15.350000000000001,13.551347991791129,2.6245186947682835,-9.321349822461679,0.013560441132799984,-0.09730674684559568,-0.864965512308319,0.001604217820762485,-0.010286387370308354,-0.08935325468339865,0,70,255.0,255.0,255.0
308,15.4,13.552028015215916,2.61964024163129,-9.36470979433348,0.013640417775985684,-0.09783653484417389,-0.8694334563244572,0.0015948479066656056,-0.010905132572820624,-0.08936450596213615,0,70,255.0,255.0,255.0
309,15.450000000000001,13.552712025760467,2.614734525662864,-9.40829317747019,0.013719925923466544,-0.09839726010287772,-0.8739019629045326,0.001585477992568726,-0.011523877775332916,-0.08937575724087363,0,70,255.0,255.0,255.0
310,15.5,13.5534,2.6098,-9.4521,0.013798965575242558,-0.09898892262170715,-0.8783710320485447,0.0015761080784718329,-0.012142622977844852,-0.08938700851961556,0,70,255.0,255.0,255.0
311,15.55,13.55409192645569,2.6048355890911803,-9.496129596546849,0.013878253488960313,-0.09958324371132672,-0.8827990535009063,0.0015954084702383688,-0.01163022060693743,-0.08773384957484323,0,70,255.0,255.0,255.0
312,15.600000000000001,13.554787841432557,2.5998421026308427,-9.540378527717639,0.013958506422266398,-0.1001519446824009,-0.8871444170060292,0.001614708862004905,-0.011117818236030004,-0.08608069063007089,0,70,255.0,255.0,255.0
313,15.65,13.555487793181577,2.5948208216249156,-9.584842660615,0.014039724375160805,-0.1006950255349297,-0.8914071225639133,0.0016340092537714403,-0.010605415865122599,-0.08442753168529861,0,70,255.0,255.0,255.0
314,15.700000000000001,13.55619182995373,2.5897730270793256,-9.629517862341574,0.01412190734764354,-0.10121248626891316,-0.8955871701745589,0.0016533096455379763,-0.010093013494215175,-0.08277437274052626,0,70,255.0,255.0,255.0
315,15.75,13.5569,2.5847,-9.6744,0.014205055339714601,-0.10170432688435123,-0.8996845598379658,0.0016726100373045394,-0.009580611123307547,-0.08112121379575132,0,70,255.0,255.0,255.0
316,15.8,13.557612315266343,2.579603011698428,-9.71948598008602,0.014286990050253892,-0.10217112904754488,-0.9037616551402609,0.001604778384267063,-0.009091475404438191,-0.08196259829604832,0,70,255.0,255.0,255.0
317,15.850000000000001,13.55832864247865,2.5744832947083447,-9.764776866667777,0.01436553317814131,-0.10261347442479506,-0.9078808196675708,0.0015369467312295862,-0.008602339685568835,-0.08280398279634531,0,70,255.0,255.0,255.0
318,15.9,13.55904881205778,2.5693420718690474,-9.810274763206527,0.01444068472337685,-0.10303136301610176,-0.9120420534198954,0.001469115078192112,-0.008113203966699498,-0.08364536729664228,0,70,255.0,255.0,255.0
319,15.950000000000001,13.55977265442461,2.5641805660198336,-9.855981773163517,0.01451244468596052,-0.10342479482146501,-0.9162453563972349,0.0014012834251546354,-0.007624068247830141,-0.08448675179693926,0,70,255.0,255.0,255.0
320,16.0,13.5605,2.559,-9.9019,0.014580813065892314,-0.10379376984088477,-0.9204907285995894,0.0013334517721171057,-0.007134932528960136,-0.08532813629723712,0,70,255.0,255.0,255.0
321,16.05,13.561230812478932,2.5538011641151086,-9.94803048310908,0.014653786310009461,-0.10416424009849232,-0.9247143259380426,0.0015854779925687048,-0.007683877775341438,-0.0836157572408897,0,70,255.0,255.0,255.0
322,16.1,13.561965588652852,2.548583118535779,-9.994370005611259,0.014739360865149187,-0.10456215761841892,-0.9288523043236784,0.0018375042130203039,-0.00823282302172274,-0.08190337818454227,0,70,255.0,255.0,255.0
323,16.150000000000002,13.562704958587299,2.5433444908988943,-10.040914286558898,0.014837536731311494,-0.1049875224006646,-0.9329046637564968,0.002089530433471903,-0.008781768268104041,-0.08019099912819484,0,70,255.0,255.0,255.0
324,16.2,13.563449552347832,2.5380839088413407,-10.087659045004358,0.014948313908496371,-0.10544033444522931,-0.9368714042364977,0.0023415566539234842,-0.009330713514485304,-0.07847862007184754,0,70,255.0,255.0,255.0
325,16.25,13.5642,2.5328,-10.1346,0.015071692396703838,-0.10592059375211312,-0.9407525257636816,0.0025935828743750833,-0.009879658760866605,-0.07676624101549923,0,70,255.0,255.0,255.0
326,16.3,13.564956434817915,2.5274915318411377,-10.181733687477674,0.015177864709702518,-0.10641991055848996,-0.9445970411075817,0.0016533096455720907,-0.010093013494206706,-0.07701437274050296,0,70,255.0,255.0,255.0
327,16.35,13.565717002909945,2.5221578311485398,-10.229059910887196,0.01523702336126105,-0.10692989510153379,-0.948453963037732,0.0007130364167690982,-0.01030636822754681,-0.0772625044655067,0,70,255.0,255.0,255.0
328,16.400000000000002,13.566479353593017,2.516798364535373,-10.276579290557885,0.01524916835137943,-0.10745054738124465,-0.9523232915541325,-0.00022723681203389414,-0.01051972296088691,-0.07751063619051043,0,70,255.0,255.0,255.0
329,16.45,13.567241136184059,2.511412598614804,-10.324292446819047,0.015214299680057664,-0.10798186739762246,-0.9562050266567829,-0.0011675100408368201,-0.010733077694226998,-0.07775876791551414,0,70,255.0,255.0,255.0
330,16.5,13.568,2.506,-10.3722,0.015132417347295748,-0.10852385515066733,-0.9600991683456838,-0.002107783269639771,-0.010946432427566877,-0.07800689964051255,0,70,255.0,255.0,255.0
331,16.55,13.568754648249401,2.5005607085203403,-10.420301966980235,0.01506675485118288,-0.10903611766755193,-0.9639695096316198,-0.0005187165748749857,-0.009544068247816775,-0.07680675179692197,0,70,255.0,255.0,255.0
332,16.6,13.569507999707364,2.4950975568700606,-10.46859595083996,0.01508054568980825,-0.10947826197544902,-0.967779843525376,0.0010703501198897993,-0.008141704068066673,-0.07560660395333138,0,70,255.0,255.0,255.0
333,16.650000000000002,13.570264027040627,2.4896140509596116,-10.517078951209571,0.01517378986317186,-0.1098502880743586,-0.9715301700269529,0.0026594168146545846,-0.006739339888316571,-0.07440645610974078,0,70,255.0,255.0,255.0
334,16.7,13.571026702915926,2.484113696699442,-10.56574796771945,0.015346487371273695,-0.11015219596428066,-0.97522048913635,0.004248483509419257,-0.005336975708566569,-0.07320630826615028,0,70,255.0,255.0,255.0
335,16.75,13.5718,2.4786,-10.6146,0.015598638214113782,-0.11038398564521525,-0.9788508008535677,0.005837550204184014,-0.003934611528816023,-0.0720061604225517,0,70,255.0,255.0,255.0
336,16.8,13.57258657218448,2.473075234077501,-10.663632844601395,0.015851115885566362,-0.110619618771298,-0.9824689203659289,0.004261556653918971,-0.00549071351449415,-0.07271862007189364,0,70,255.0,255.0,255.0
337,16.85,13.573383798260599,2.4675367413712155,-10.712847485752969,0.016024793879505686,-0.11093305699666467,-0.9861226628607572,0.0026855631036539285,-0.0070468155001722765,-0.07343107972123557,0,70,255.0,255.0,255.0
338,16.900000000000002,13.574187738244474,2.4619806316261794,-10.762245704603846,0.016119672195931755,-0.11132430032131524,-0.9898120283380526,0.0011095695533888863,-0.008602917485850403,-0.07414353937057751,0,70,255.0,255.0,255.0
339,16.95,13.574994452152232,2.4564030145874294,-10.811829282303146,0.016135750834844576,-0.11179334874524968,-0.9935370167978147,-0.0004664239968760449,-0.010159019471528419,-0.07485599901991938,0,70,255.0,255.0,255.0
340,17.0,13.5758,2.4508,-10.8616,0.01607302979624415,-0.11234020226846805,-0.9972976282400442,-0.0020424175471410733,-0.01171512145720599,-0.0755684586692551,0,70,255.0,255.0,255.0
341,17.05,13.576601463012672,2.4451687551696564,-10.911558654614192,0.015992781606545554,-0.1129014072472541,-1.0010348089046637,-0.001167510040802687,-0.010733077694235357,-0.07391876791552059,0,70,255.0,255.0,255.0
342,17.1,13.577400007250244,2.4395106776450772,-10.961702106148174,0.015956278792163877,-0.1134135100378916,-1.0046895050315963,-0.0002926025344643008,-0.009751033931264724,-0.07226907716178607,0,70,255.0,255.0,255.0
343,17.150000000000002,13.578197819981476,2.4338282225356695,-11.012026230375058,0.015963521353099124,-0.11387651064038058,-1.0082617166208423,0.0005823049718740852,-0.008768990168294091,-0.07061938640805156,0,70,255.0,255.0,255.0
344,17.2,13.57899708847514,2.4281238449508415,-11.06252690306796,0.016014509289351286,-0.114290409054721,-1.0117514436724013,0.0014572124782124096,-0.007786946405323528,-0.06896969565431717,0,70,255.0,255.0,255.0
345,17.25,13.5798,2.4224,-11.1132,0.016109242600920365,-0.1146552052809129,-1.015158686186274,0.00233211998455074,-0.0068049026423523395,-0.06732000490057644,0,70,255.0,255.0,255.0
346,17.3,13.580608375764829,2.416658545243874,-11.164042136941845,0.016225757688268876,-0.11500675223968576,-1.0185278440154408,0.0023284835093896118,-0.007256975708561859,-0.06744630826608998,0,70,255.0,255.0,255.0
347,17.35,13.58142257273843,2.410898948048476,-11.215052889654352,0.016342090951859328,-0.1153809028517691,-1.021903317012883,0.002324847034228483,-0.007709048774771379,-0.06757261163160351,0,70,255.0,255.0,255.0
348,17.400000000000002,13.58224258182962,2.4051200782311417,-11.266232573895937,0.016458242391691726,-0.11577765711716291,-1.0252851051786012,0.0023212105590673547,-0.008161121840980898,-0.06769891499711705,0,70,255.0,255.0,255.0
349,17.45,13.583068393947205,2.3993208056092046,-11.317581505425013,0.01657421200776606,-0.11619701503586716,-1.0286732085125947,0.0023175740839062263,-0.008613194907190385,-0.06782521836263057,0,70,255.0,255.0,255.0
350,17.5,13.5839,2.3935,-11.3691,0.016689999800082345,-0.11663897660788193,-1.0320676270148639,0.002313937608745098,-0.009065267973399016,-0.06795152172813879,0,70,255.0,255.0,255.0
351,17.55,13.584737033928013,2.387657063854848,-11.420787997618442,0.01678418764037896,-0.11707158379400501,-1.0354458150335657,0.001453576003119471,-0.008239019471523844,-0.06717599901993444,0,70,255.0,255.0,255.0
352,17.6,13.585577701796034,2.3817935301610174,-11.472643935234434,0.016835357400394293,-0.11746287855503433,-1.0387852269168574,0.0005932143974938442,-0.007412770969648673,-0.0664004763117301,0,70,255.0,255.0,255.0
353,17.650000000000002,13.586419852700049,2.3759114645397625,-11.524665874041204,0.016843509080128344,-0.11781286089096989,-1.042085862664739,-0.00026714720813178277,-0.006586522467773501,-0.06562495360352574,0,70,255.0,255.0,255.0
354,17.7,13.587261335736041,2.370012932612339,-11.576851875231982,0.01680864267958112,-0.11812153080181167,-1.0453477222772098,-0.0011275088137573486,-0.005760273965898389,-0.06484943089532146,0,70,255.0,255.0,255.0
355,17.75,13.5881,2.3641,-11.6292,0.01673075819875261,-0.1183888882875597,-1.0485708057542709,-0.0019878704193829755,-0.004934025464023106,-0.06407390818711711,0,70,255.0,255.0,255.0
356,17.8,13.588934688523123,2.3581739993367328,-11.681708272584395,0.016669491750223458,-0.11865891258429348,-1.051752895850307,-0.000462787521783104,-0.005866946405327913,-0.06320969565432967,0,70,255.0,255.0,255.0
357,17.85,13.589768220077438,2.352233331307453,-11.73437456940792,0.0166844794465743,-0.11897558292809249,-1.054891775319704,0.0010622953758167675,-0.006799867346632719,-0.06234548312154222,0,70,255.0,255.0,255.0
358,17.900000000000002,13.590604407370193,2.346275663609806,-11.787196729939254,0.016775721287805134,-0.11933889931895675,-1.0579874441624613,0.0025873782734166387,-0.007732788287937526,-0.06148127058875477,0,70,255.0,255.0,255.0
359,17.95,13.591447063108632,2.34029866394144,-11.840172593647054,0.016943217273915952,-0.11974886175688623,-1.0610399023785793,0.004112461171016402,-0.008665709229242266,-0.06061705805596739,0,70,255.0,255.0,255.0
360,18.0,13.5923,2.3343,-11.8933,0.017186967404906776,-0.12020547024188098,-1.064049149968058,0.005637544068616301,-0.009598630170546962,-0.05975284552317994,0,70,255.0,255.0,255.0
361,18.05,13.593165811979505,2.3282781387982188,-11.946577312043992,0.01743384535871973,-0.1206607658688244,-1.0670466015652018,0.004237574083901727,-0.008613194907189934,-0.06014521836257707,0,70,255.0,255.0,255.0
362,18.1,13.594042217894218,2.3222347446091702,-12.000004987133886,0.017610724813296955,-0.12106678973259999,-1.0700636718043157,0.002837604099187151,-0.007627759643832904,-0.0605375912019742,0,70,255.0,255.0,255.0
363,18.150000000000002,13.59492571781918,2.3161722810210112,-12.05358400620179,0.01771760576863845,-0.12142354183320771,-1.0731003606853995,0.0014376341144725756,-0.0066423243804758746,-0.06092996404137134,0,70,255.0,255.0,255.0
364,18.2,13.595812811829427,2.3100932116219024,-12.107315350179793,0.01775448822474421,-0.12173102217064757,-1.076156668208453,3.766412975810072e-05,-0.005656889117118916,-0.06132233688076844,0,70,255.0,255.0,255.0
365,18.25,13.5967,2.304,-12.1612,0.017721372181614254,-0.12198923074491957,-1.0792325943734764,-0.0013623058549564748,-0.0046714538537611094,-0.061714709720163796,0,70,255.0,255.0,255.0
366,18.3,13.597584463558862,2.2978942454703897,-12.215238479239646,0.01765912681489726,-0.12225002394041085,-1.0823006978888656,-0.001127508813723257,-0.005760273965889533,-0.06100943089539682,0,70,255.0,255.0,255.0
367,18.35,13.59846610834569,2.291774090255865,-12.269429482056534,0.017608621300241926,-0.12256525814150854,-1.0853335374630162,-0.0008927117724900391,-0.006849094078017957,-0.06030415207062985,0,70,255.0,255.0,255.0
368,18.400000000000002,13.599345521353088,2.2856368123061457,-12.323771245253598,0.017569855637648256,-0.12293493334821266,-1.0883311130959286,-0.0006579147312568212,-0.00793791419014638,-0.059598873245862875,0,70,255.0,255.0,255.0
369,18.45,13.600223289573655,2.279479689570951,-12.378262005633772,0.017542829827116243,-0.12335904956052315,-1.0912934247876023,-0.00042311769002362004,-0.009026734302274726,-0.05889359442109595,0,70,255.0,255.0,255.0
370,18.5,13.6011,2.2733,-12.4329,0.01752754386864589,-0.1238376067784401,-1.094220472538038,-0.00018832064879048538,-0.010115554414402705,-0.058188315596325424,0,70,255.0,255.0,255.0
371,18.55,13.601976333785046,2.26709607932022,-12.487683170997423,0.01752964738170006,-0.12430713836953125,-1.0970946068793448,0.0002724611709571788,-0.00866570922924226,-0.05677705805594113,0,70,255.0,255.0,255.0
372,18.6,13.60285334872302,2.2608704943673676,-12.542608284639986,0.017554789985741608,-0.12470417770136434,-1.0998981783436321,0.000733242990704843,-0.0072158640440818135,-0.05536580051555685,0,70,255.0,255.0,255.0
373,18.650000000000002,13.603732196768473,2.2546268697544045,-12.597671812783835,0.017602971680770543,-0.12502872477393945,-1.1026311869309005,0.001194024810452507,-0.0057660188589213675,-0.053954542975172555,0,70,255.0,255.0,255.0
374,18.7,13.604614029875949,2.2483688300942952,-12.652870227285122,0.017674192466786857,-0.12528077958725647,-1.1052936326411493,0.0016548066302001386,-0.004316173673761024,-0.05254328543478837,0,70,255.0,255.0,255.0
375,18.75,13.6055,2.2421,-12.7082,0.017768452343790556,-0.12546034214131552,-1.1078855154743792,0.0021155884499477473,-0.002866328488600356,-0.051132027894404075,0,70,255.0,255.0,255.0
376,18.8,13.60639100130095,2.2358230372487284,-12.763658436770665,0.017870283658283942,-0.1256254225814588,-1.1104568745937582,0.001957664129787704,-0.0037368891171315377,-0.05172233688075779,0,70,255.0,255.0,255.0
377,18.85,13.60728689676223,2.2295367322746635,-12.819246179383532,0.01796421875676933,-0.12583403105302868,-1.1130577491624551,0.0017997398096276606,-0.0046074497456627195,-0.0523126458671115,0,70,255.0,255.0,255.0
378,18.900000000000002,13.608187291573028,2.2232389086762345,-12.874964703611068,0.018050257639246715,-0.1260861675560251,-1.1156881391804696,0.0016418154894676173,-0.005478010374193902,-0.05290295485346522,0,70,255.0,255.0,255.0
379,18.95,13.609091790922552,2.216927390051871,-12.930815485225732,0.018128400305716087,-0.12638183209044804,-1.1183480446478014,0.001483891169307585,-0.006348571002725022,-0.05349326383981889,0,70,255.0,255.0,255.0
380,19.0,13.61,2.2106,-12.9868,0.018198646756177463,-0.1267210246562976,-1.1210374655644515,0.001325966849147514,-0.007219131631256648,-0.05408357282617082,0,70,255.0,255.0,255.0
381,19.05,13.610911661011144,2.204254971684866,-13.042919081919921,0.018269217985156305,-0.12707917130463578,-1.1237178947456337,0.0014968823100059837,-0.007106734302270733,-0.053133594421106156,0,70,255.0,255.0,255.0
382,19.1,13.611827064228066,2.197892176533977,-13.099170997825894,0.018348334987178062,-0.12743169808652466,-1.1263508250065621,0.0016677977708644536,-0.006994336973284818,-0.05218361601604148,0,70,255.0,255.0,255.0
383,19.150000000000002,13.612746636939415,2.1915118955406543,-13.155553372771909,0.01843599776224275,-0.12777860500196428,-1.1289362563472378,0.0018387132317229233,-0.006881939644298902,-0.051233637610976816,0,70,255.0,255.0,255.0
384,19.200000000000003,13.61367080643384,2.185114409698221,-13.21206383181195,0.01853220631035036,-0.12811989205095456,-1.1314741887676598,0.002009628692581393,-0.006769542315312987,-0.05028365920591215,0,70,255.0,255.0,255.0
385,19.25,13.6146,2.1787,-13.2687,0.018636960631500884,-0.12845555923349558,-1.1339646222678286,0.0021805441534398506,-0.006657144986327745,-0.049333680800838664,0,70,255.0,255.0,255.0
386,19.3,13.615534354654464,2.1722690760118057,-13.325459635549658,0.018732844401091887,-0.1287778921999977,-1.1364155464237178,0.001654806630200121,-0.006236173673756479,-0.04870328543472694,0,70,255.0,255.0,255.0
387,19.35,13.616472846325506,2.1658225615894278,-13.382341029312903,0.018802441294520897,-0.12907917660087123,-1.1388349508113014,0.0011290691069603914,-0.005815202361185211,-0.04807289006861522,0,70,255.0,255.0,255.0
388,19.400000000000002,13.617414160669314,2.1593615091611453,-13.43934260530132,0.018845751311787926,-0.12935941243611623,-1.1412228354305793,0.0006033315837206618,-0.005394231048613944,-0.047442494702503495,0,70,255.0,255.0,255.0
389,19.450000000000003,13.618356983342082,2.1528869711552425,-13.496462787526491,0.01886277445289297,-0.12961859970573264,-1.1435792002815517,7.759406048093217e-05,-0.004973259736042677,-0.04681209933639177,0,70,255.0,255.0,255.0
390,19.5,13.6193,2.1464,-13.5537,0.018853510717836017,-0.12985673840972045,-1.1459040453642182,-0.0004481434627588432,-0.004552288423470774,-0.04618170397027477,0,70,255.0,255.0,255.0
391,19.55,13.620242120370994,2.1399015242679096,-13.611052775881452,0.018831404410498992,-0.13008125989537547,-1.1482039195594718,-0.00043610883072209267,-0.004428571002729418,-0.04581326383987196,0,70,255.0,255.0,255.0
392,19.6,13.62118315046991,2.1333919771083125,-13.668520084922507,0.018809899834763808,-0.1302995955099934,-1.1504853717482055,-0.00042407419868534214,-0.004304853581988063,-0.04544482370946915,0,70,255.0,255.0,255.0
393,19.650000000000002,13.62212312038333,2.126871667814761,-13.726101006022834,0.01878899699063046,-0.13051174525357429,-1.1527484019304188,-0.00041203956664859155,-0.004181136161246707,-0.04507638357906634,0,70,255.0,255.0,255.0
394,19.700000000000003,13.623062060197833,2.120340905680806,-13.783794618082108,0.018768695878098946,-0.13071770912611808,-1.154993010106112,-0.000400004934611841,-0.004057418740505352,-0.04470794344866354,0,70,255.0,255.0,255.0
395,19.75,13.624,2.1138,-13.8416,0.018748996497169275,-0.1309174871276248,-1.1572191962752851,-0.00038797030257514686,-0.003933701319764449,-0.04433950331826786,0,70,255.0,255.0,255.0
396,19.8,13.624937163861562,2.1072488269165537,-13.899516460924533,0.018741537956918693,-0.13113706821850143,-1.1594407753383908,8.962869255175321e-05,-0.004849542315301139,-0.04452365920595902,0,70,255.0,255.0,255.0
397,19.85,13.625874551794855,2.1006855299773197,-13.957544230997081,0.01875795936642445,-0.13140244135915494,-1.161671562195881,0.0005672276876786533,-0.0057653833108378275,-0.04470781509365019,0,70,255.0,255.0,255.0
398,19.900000000000002,13.626813357797369,2.0941078195798086,-14.01568377060736,0.018798260725686557,-0.13171360654958522,-1.1639115568477558,0.0010448266828055534,-0.006681224306374517,-0.04489197098134135,0,70,255.0,255.0,255.0
399,19.950000000000003,13.627754775866588,2.0875134061215315,-14.073935540145097,0.018862442034705006,-0.13207056378979237,-1.1661607592940153,0.0015224256779324534,-0.007597065301911206,-0.04507612686903252,0,70,255.0,255.0,255.0
400,20.0,13.6287,2.0809,-14.1323,0.0189505032934798,-0.13247331307977633,-1.168419169534659,0.002000024673059292,-0.008512906297447831,-0.04526028275672367,0,70,255.0,255.0,255.0
401,20.05,13.62965002418276,2.074266368065873,-14.190776580420422,0.01905044376181905,-0.13285846723061392,-1.1706249790869854,0.001997594060510527,-0.006893259736054768,-0.042972099336327896,0,70,255.0,255.0,255.0
402,20.1,13.630605042350673,2.0676155029824064,-14.249360591089184,0.019150262699530855,-0.13316263905338183,-1.172716379468292,0.0019951634479617618,-0.005273613174661705,-0.04068391591593212,0,70,255.0,255.0,255.0
403,20.150000000000002,13.631565048427202,2.0609514538660028,-14.308046311547736,0.019249960106615227,-0.1333858285480801,-1.1746933706785787,0.0019927328354129967,-0.0036539666132686423,-0.03839573249553635,0,70,255.0,255.0,255.0
404,20.200000000000003,13.632530036335822,2.054278269833066,-14.366828021337527,0.019349535983072156,-0.13352803571470867,-1.1765559527178455,0.0019903022228642316,-0.0020343200518755785,-0.03610754907514058,0,70,255.0,255.0,255.0
405,20.25,13.6335,2.0476,-14.4257,0.01944899032890164,-0.13358926055326764,-1.1783041255860927,0.0019878716103154392,-0.000414673490482631,-0.03381936565474142,0,70,255.0,255.0,255.0
406,20.3,13.634474739407397,2.0409193008199527,-14.484658017393789,0.019536686995794975,-0.13365306285904247,-1.1800273083136767,0.0015199950654177718,-0.0021374187405100355,-0.03510794344861916,0,70,255.0,255.0,255.0
407,20.35,13.635453278802458,2.034233258093054,-14.543703804646197,0.019600989835443422,-0.13380300242731863,-1.1818149199309547,0.0010521185205201043,-0.0038601639905374396,-0.0363965212424969,0,70,255.0,255.0,255.0
408,20.400000000000002,13.63643444849382,2.027537564956179,-14.602840583201715,0.019641898847846985,-0.13403907925809622,-1.1836669604379264,0.0005842419756224371,-0.005582909240564844,-0.03768509903637464,0,70,255.0,255.0,255.0
409,20.450000000000003,13.637417078790122,2.020827914546203,-14.662071574504822,0.019659414033005664,-0.13436129335137514,-1.185583429834592,0.00011636543072476965,-0.007305654490592248,-0.03897367683025237,0,70,255.0,255.0,255.0
410,20.5,13.6384,2.0141,-14.7214,0.019653535390919467,-0.13476964470715538,-1.1875643281209518,-0.00035151111417278114,-0.009028399740617976,-0.0402622546241318,0,70,255.0,255.0,255.0
411,20.55,13.63938221818765,2.007350828654316,-14.780828150004432,0.01963480825501272,-0.1351852813332184,-1.189553787658283,-0.0003975743220971779,-0.007597065301902119,-0.03931612686911448,0,70,255.0,255.0,255.0
412,20.6,13.640363442439494,2.000582664645377,-14.840354590326033,0.01961377795870975,-0.1355293512373456,-1.1914959408078634,-0.0004436375300215747,-0.0061657308631862615,-0.03836999911409717,0,70,255.0,255.0,255.0
413,20.650000000000002,13.641343557597516,1.9937990863092798,-14.899976955645423,0.01959044450201056,-0.13580185441953702,-1.1933907875696927,-0.0004897007379459714,-0.004734396424470405,-0.037423871359079854,0,70,255.0,255.0,255.0
414,20.700000000000003,13.64232244850369,1.9870036719821218,-14.959692880643209,0.01956480788491515,-0.13600279087979264,-1.1952383279437715,-0.0005357639458703682,-0.003303061985754548,-0.03647774360406254,0,70,255.0,255.0,255.0
415,20.75,13.6433,1.9802,-15.0195,0.019536868107423527,-0.13613216061811245,-1.1970385619300992,-0.0005818271537947894,-0.0018717275470376826,-0.035531615849039966,0,70,255.0,255.0,255.0
416,20.8,13.644276387842003,1.9733909845627835,-15.079395782588495,0.01952407998414952,-0.13622981180808527,-1.198781541053204,7.030222283453777e-05,-0.002034320051875673,-0.03418754907514019,0,70,255.0,255.0,255.0
417,20.85,13.645252951439561,1.9665768833254371,-15.139377034049676,0.01954389832970698,-0.1363355926233,-1.2004573168376131,0.000722431599463865,-0.002196912556713664,-0.032843482301240415,0,70,255.0,255.0,255.0
418,20.900000000000002,13.64623132111612,1.9597572898066993,-15.199440394216614,0.019596323144095908,-0.13644950306375667,-1.2020658892833278,0.0013745609760931923,-0.002359505061551655,-0.031499415527340646,0,70,255.0,255.0,255.0
419,20.950000000000003,13.64721312719512,1.9529317975253073,-15.259582502922369,0.019681354427316302,-0.1365715431294552,-1.2036072583903474,0.0020266903527225194,-0.0025220975663896453,-0.03015534875344087,0,70,255.0,255.0,255.0
420,21.0,13.6482,1.9461,-15.3198,0.019798992179368154,-0.1367017128203956,-1.2050814241586718,0.002678819729351689,-0.0026846900712269584,-0.028811281979534087,0,70,255.0,255.0,255.0
421,21.05,13.649193030444337,1.9392612330945496,-15.380090319641596,0.01991687180837166,-0.13685547143444105,-1.2065360481289145,0.0020363654307885355,-0.0034656544905919185,-0.029373676830172366,0,70,255.0,255.0,255.0
422,21.1,13.650191151802252,1.932413802052873,-15.44045407347527,0.020002628722447013,-0.1370482782694548,-1.2080187918416891,0.0013939111322253822,-0.004246618909956879,-0.029936071680810642,0,70,255.0,255.0,255.0
423,21.150000000000002,13.651192757938002,1.9255557544639212,-15.500892667488142,0.0200562629215942,-0.13728013332543676,-1.2095296552969956,0.0007514568336622288,-0.005027583329321838,-0.03049846653144892,0,70,255.0,255.0,255.0
424,21.200000000000003,13.652196242715831,1.918685137916646,-15.561407507667345,0.020077774405813233,-0.13755103660238696,-1.2110686384948341,0.00010900253509907526,-0.005808547748686799,-0.0310608613820872,0,70,255.0,255.0,255.0
425,21.25,13.6532,1.9118,-15.622,0.02006716317510411,-0.13786098810030545,-1.2126357414352045,-0.0005334517634640878,-0.0065895121680528135,-0.031623256232727215,0,70,255.0,255.0,255.0
426,21.3,13.654202690380641,1.904899283059017,-15.682670938845124,0.02004043278237075,-0.13815630245415064,-1.2141942664311256,-0.0005357639458703601,-0.005223061985754266,-0.030717743604110115,0,70,255.0,255.0,255.0
427,21.35,13.655204041351418,1.89798550846307,-15.743418672049257,0.020013586780517074,-0.13838329429888088,-1.2157075157956154,-0.0005380761282766322,-0.003856611803455717,-0.02981223097549301,0,70,255.0,255.0,255.0
428,21.400000000000002,13.656204047131872,1.891062092337614,-15.80424093583083,0.019986625169543082,-0.13854196363449622,-1.2171754895286748,-0.0005403883106829045,-0.0024901616211571694,-0.028906718346875908,0,70,255.0,255.0,255.0
429,21.450000000000003,13.657202701941555,1.8841324508081052,-15.865135466408269,0.019959547949448785,-0.13863231046099658,-1.2185981876303031,-0.0005427004930891767,-0.0011237114388586208,-0.028001205718258808,0,70,255.0,255.0,255.0
430,21.5,13.6582,1.8772,-15.9261,0.019932355120234172,-0.13865433477838207,-1.2199756101005006,-0.0005450126754953655,0.00024273874343938573,-0.027095693089638218,0,70,255.0,255.0,255.0
431,21.55,13.659196208033098,1.870267234669381,-15.987132324977914,0.019921397062163258,-0.13866331874895582,-1.2213108861465778,0.00010669035265873739,-0.0006020975663894155,-0.026315348753445267,0,70,255.0,255.0,255.0
432,21.6,13.660192682792074,1.8633329640948462,-16.048230438327714,0.019943024155500047,-0.138714544535021,-1.222607144975845,0.0007583933808128402,-0.0014469338762182168,-0.025535004417252316,0,70,255.0,255.0,255.0
433,21.650000000000002,13.661191053534504,1.8563950761856205,-16.109392389188553,0.019997236400244544,-0.13880801213657765,-1.223864386588303,0.0014100964089669432,-0.002291770186047018,-0.024754660081059365,0,70,255.0,255.0,255.0
434,21.700000000000003,13.662192949517955,1.8494514588509299,-16.170616226699597,0.020084033796396745,-0.13894372155362572,-1.225082610983951,0.002061799437121046,-0.0031366064958758193,-0.023974315744866415,0,70,255.0,255.0,255.0
435,21.75,13.6632,1.8425,-16.2319,0.020203416343956643,-0.13912167278616522,-1.2262618181627896,0.0027135024652751305,-0.003981442805704116,-0.023193971408666414,0,70,255.0,255.0,255.0
436,21.8,13.664213277486974,1.8355389782634584,-16.293242161243224,0.02032197896896674,-0.13931842255002502,-1.2274261889825588,0.002029002535128689,-0.0038885477486872754,-0.023380861382104715,0,70,255.0,255.0,255.0
437,21.85,13.665231627480287,1.828568235157545,-16.3546427746399,0.020406316597469516,-0.13951052756103396,-1.228599904301,0.0013445026049822477,-0.0037956526916704345,-0.023567751355543017,0,70,255.0,255.0,255.0
438,21.900000000000002,13.666253338730112,1.8215880029199023,-16.416102307414967,0.020456429229464966,-0.13969798781919207,-1.2297829641181133,0.0006600026748358064,-0.0037027576346535932,-0.023754641328981314,0,70,255.0,255.0,255.0
439,21.950000000000003,13.667276699986626,1.8145985137881728,-16.477621226793364,0.020472316864953096,-0.13988080332449931,-1.2309753684338982,-2.4497255310635107e-05,-0.0036098625776367524,-0.023941531302419616,0,70,255.0,255.0,255.0
440,22.0,13.6683,1.8076,-16.5392,0.020453979503933902,-0.14005897407695572,-1.232177117248355,-0.0007089971854571109,-0.003516967520619474,-0.024128421275850798,0,70,255.0,255.0,255.0
441,22.05,13.669321882019004,1.8005928522767856,-16.6008382300492,0.020422687061971097,-0.14022299105094277,-1.2333363579232064,-0.0005427004930550404,-0.0030437114388628325,-0.022241205718201203,0,70,255.0,255.0,255.0
442,22.1,13.670342407286773,1.7935780952749738,-16.662532063112693,0.020399709454628396,-0.140363345220842,-1.2344012378201752,-0.0003764038006529699,-0.0025704553571061915,-0.020353990160551606,0,70,255.0,255.0,255.0
443,22.150000000000002,13.671361991545043,1.786556912134769,-16.724276781151588,0.0203850466819058,-0.1404800365866534,-1.2353717569392615,-0.00021010710825089941,-0.0020971992753495506,-0.01846677460290201,0,70,255.0,255.0,255.0
444,22.200000000000003,13.672381050535542,1.7795304859963763,-16.78606766612699,0.020378698743803308,-0.14057306514837697,-1.2362479152804655,-4.3810415848828926e-05,-0.0016239431935929092,-0.016579559045252417,0,70,255.0,255.0,255.0
445,22.25,13.6734,1.7725,-16.8479,0.020380665640320914,-0.1406424309060127,-1.2370297128437868,0.000122486276553202,-0.0011506871118367457,-0.014692343487606507,0,70,255.0,255.0,255.0
446,22.3,13.674419194437014,1.7654664126293995,-16.909770518559988,0.02038727278316118,-0.1407016132462054,-1.2378043793245983,0.00014179943705732194,-0.0012166064958718092,-0.016294315744850275,0,70,255.0,255.0,255.0
447,22.35,13.675438743372617,1.7584297837425593,-16.971681772909342,0.020394845584026645,-0.14076409155559985,-1.2386591444182717,0.0001611125975614419,-0.0012825258799068725,-0.017896288002094043,0,70,255.0,255.0,255.0
448,22.400000000000002,13.676458695089716,1.7513899485410194,-17.0336377679787,0.020403384042917323,-0.1408298658341961,-1.2395940081248078,0.00018042575806556188,-0.0013484452639419358,-0.019498260259337808,0,70,255.0,255.0,255.0
449,22.450000000000003,13.67747909787121,1.7443467422263192,-17.095642508698706,0.0204128881598332,-0.14089893608199408,-1.2406089704442056,0.00019973891856968183,-0.0014143646479769993,-0.021100232516581576,0,70,255.0,255.0,255.0
450,22.5,13.6785,1.7373,-17.1577,0.02042335793477429,-0.14097130229899382,-1.2417040313764658,0.00021905207907380042,-0.00148028403201228,-0.022702204773821677,0,70,255.0,255.0,255.0
451,22.55,13.679521340232947,1.7302494972056162,-17.219812495710844,0.020428221805369223,-0.14105055596423505,-1.2427741247783737,-2.4497255276537816e-05,-0.0016898625776366613,-0.020101531302491756,0,70,255.0,255.0,255.0
452,22.6,13.68054261922276,1.7231947697547882,-17.281975245249942,0.020420908209246635,-0.14114028855675748,-1.243714184506715,-0.00026804658962687605,-0.0018994411232610424,-0.017500857831161835,0,70,255.0,255.0,255.0
453,22.650000000000002,13.681563228096094,1.7161352937011523,-17.344181746933625,0.020401417146406534,-0.14124050007656117,-1.2445242105614898,-0.0005115959239772143,-0.0021090196688854238,-0.014900184359831915,0,70,255.0,255.0,255.0
454,22.700000000000003,13.68258255797962,1.709070545098344,-17.406425499078203,0.020369748616848912,-0.14135119052364603,-1.2452042029426982,-0.0007551452583275525,-0.0023185982145098047,-0.012299510888501994,0,70,255.0,255.0,255.0
455,22.75,13.6836,1.702,-17.4687,0.020325902620573776,-0.14147235989801213,-1.24575416165034,-0.0009986945926780677,-0.002528176760134171,-0.00969883741717581,0,70,255.0,255.0,255.0
456,22.8,13.684615444631195,1.694923598548135,-17.531000298596634,0.020299839995361453,-0.14157616289685532,-1.2462671215619012,-4.381041581480753e-05,-0.0016239431935930564,-0.010819559045269517,0,70,255.0,255.0,255.0
457,22.85,13.685630779736352,1.6878431372382865,-17.593327646090884,0.020321521578992297,-0.14163475421737146,-1.246836117554867,0.0009110737610484526,-0.0007197096270519419,-0.011940280673363222,0,70,255.0,255.0,255.0
458,22.900000000000002,13.686648392525909,1.68076087665437,-17.65568484428681,0.020390947371466298,-0.14164813385956052,-1.2474611496292376,0.0018659579379117128,0.00018452393948917246,-0.01306100230145693,0,70,255.0,255.0,255.0
459,22.950000000000003,13.687670670210311,1.6736790773803023,-17.71807469498849,0.02050811737278347,-0.1416163018234225,-1.2481422177850128,0.002820842114774973,0.0010887575060302872,-0.014181723929550635,0,70,255.0,255.0,255.0
460,23.0,13.6887,1.6666,-17.7805,0.02067303158294379,-0.1415392581089575,-1.2488793220221923,0.0037757262916381096,0.001992991072570671,-0.015302445557638933,0,70,255.0,255.0,255.0
461,23.05,13.689737681242274,1.6595249086018427,-17.842962309902624,0.02082041821319717,-0.1414767924483427,-1.2495973889740466,0.002119738918496987,0.0005056353520224166,-0.013420232516527948,0,70,255.0,255.0,255.0
462,23.1,13.690780661831843,1.6524510812920652,-17.905458170386538,0.02088500547479349,-0.14148869457375526,-1.250221345273845,0.0004637515453558643,-0.000981720368525838,-0.011538019475416963,0,70,255.0,255.0,255.0
463,23.150000000000002,13.691824801800275,1.6453747996813666,-17.96798287591914,0.020866793367732756,-0.14157496448519524,-1.2507511909215883,-0.0011922358277852577,-0.0024690760890740925,-0.009655806434305978,0,70,255.0,255.0,255.0
464,23.200000000000003,13.692865961179137,1.6382923453804452,-18.03053172096783,0.020765781892014962,-0.14173560218266268,-1.2511869259172756,-0.002848223200926381,-0.003956431809622347,-0.007773593393194993,0,70,255.0,255.0,255.0
465,23.25,13.6939,1.6312,-18.0931,0.020581971047640132,-0.1419706076661575,-1.251528550260908,-0.004504210574067358,-0.005443787530169164,-0.005891380352085918,0,70,255.0,255.0,255.0
466,23.3,13.694924230399712,1.6240951670444943,-18.155684061792876,0.020402487151831218,-0.14221266730977455,-1.2518393225419213,-0.0026751452582890207,-0.004238598214513161,-0.006539510888449494,0,70,255.0,255.0,255.0
467,23.35,13.69594177293628,1.616979737593452,-18.218284472362974,0.020314456521811228,-0.1423944674876088,-1.2521825013497527,-0.0008460799425106837,-0.0030334088988571584,-0.00718764142481307,0,70,255.0,255.0,255.0
468,23.400000000000002,13.696957200272989,1.6098567246201627,-18.280902852036633,0.02031787915758015,-0.14251600819966026,-1.2525580866844026,0.0009829853732676534,-0.0018282195832011556,-0.007835771961176647,0,70,255.0,255.0,255.0
469,23.450000000000003,13.697975085073136,1.6027291410979154,-18.343540821140195,0.020412755059137994,-0.14257728944592893,-1.2529660785458705,0.0028120506890459904,-0.0006230302675451528,-0.008483902497540222,0,70,255.0,255.0,255.0
470,23.5,13.699,1.5956,-18.4062,0.02059908422648474,-0.1425783112264148,-1.2534064769341566,0.0046411160048242805,0.0005821590481107641,-0.009132033033896647,0,70,255.0,255.0,255.0
471,23.55,13.700034997158875,1.58847202322018,-18.468881442925873,0.020785633179475578,-0.14253653831256105,-1.2538453208582447,0.0028208421148089875,0.0010887575060381032,-0.008421723929625802,0,70,255.0,255.0,255.0
472,23.6,13.70107704642304,1.5813467683341251,-18.53158394016157,0.020881168437965645,-0.14246943547581098,-1.2542486493271192,0.0010005682247936948,0.0015953559639654423,-0.007711414825354959,0,70,255.0,255.0,255.0
473,23.650000000000002,13.702121597107764,1.5742255018379803,-18.594305715934333,0.02088569000195495,-0.14237700271616452,-1.2546164623407803,-0.0008197056652215979,0.0021019544218927816,-0.007001105721084114,0,70,255.0,255.0,255.0
474,23.700000000000003,13.703164098528326,1.5671094902278901,-18.657044994471395,0.020799197871443482,-0.1422592400336217,-1.2549487598992277,-0.002639979555236891,0.0026085528798201205,-0.00629079661681327,0,70,255.0,255.0,255.0
475,23.75,13.7042,1.56,-18.7198,0.02062169204643127,-0.14211614742818252,-1.2552455420024613,-0.004460253445252055,0.003115151337748312,-0.005580487512537147,0,70,255.0,255.0,255.0
476,23.8,13.705226180964782,1.552897540074785,-18.78256856650363,0.020438980130275956,-0.14199317943997947,-1.255483394025105,-0.0028482232009603586,0.0018035681903737092,-0.003933593393206158,0,70,255.0,255.0,255.0
477,23.85,13.706245241371565,1.5457995890700458,-18.845346966990743,0.02033686972633523,-0.14193579060914513,-1.255638901341782,-0.0012361929566686624,0.0004919850429991064,-0.002286699273875168,0,70,255.0,255.0,255.0
478,23.900000000000002,13.707261211295954,1.5387028680279142,-18.908131084226042,0.020315360834609088,-0.14194398093567956,-1.2557120639524924,0.0003758372876230343,-0.0008195981043754965,-0.000639805154544178,0,70,255.0,255.0,255.0
479,23.950000000000003,13.708278120813562,1.5316040979905217,-18.970916800974233,0.020374453455097533,-0.1420177504195827,-1.2557028818572364,0.00198786753191473,-0.0021311812517500993,0.001007088964786811,0,70,255.0,255.0,255.0
480,24.0,13.7093,1.5245,-19.0337,0.02051414758780055,-0.14215709906085455,-1.255611355056014,0.0035998977762064233,-0.003442764399124165,0.0026539830841123546,0,70,255.0,255.0,255.0
481,24.05,13.710329878981993,1.5173882164806798,-19.096477891059607,0.02067444629943101,-0.14230674392752138,-1.2555171030413483,0.002812050689011863,-0.0025430302675492605,0.0011160975025063416,0,70,255.0,255.0,255.0
482,24.1,13.711366788090704,1.5102700753856908,-19.159252991875455,0.02079535265670174,-0.14241140208760947,-1.2554997453057632,0.0020242036018173035,-0.0016432961359743557,-0.00042178807909967145,0,70,255.0,255.0,255.0
483,24.150000000000002,13.712408757708422,1.5031478260503617,-19.222029147161503,0.020876866659612744,-0.14247107354111882,-1.2555592818492585,0.0012363565146227438,-0.000743562004399451,-0.001959673660705684,0,70,255.0,255.0,255.0
484,24.200000000000003,13.713453818217427,1.4960237178100215,-19.284810201631696,0.020918988308164018,-0.1424857582880494,-1.255695712671834,0.0004485094274281837,0.00015617212717545376,-0.0034975592423116975,0,70,255.0,255.0,255.0
485,24.25,13.7145,1.4889,-19.3476,0.020921717602355568,-0.1424554563284013,-1.2559090377734896,-0.00033933765976618124,0.0010559062587498502,-0.0050354448239211536,0,70,255.0,255.0,255.0
486,24.3,13.715545503107252,1.4817783940024951,-19.410400669257953,0.020895234671981237,-0.1424118448499368,-1.256096193809508,-0.0007199795552071452,0.0006885528798289134,-0.0024507966168193806,0,70,255.0,255.0,255.0
487,24.35,13.716589206265617,1.4746585093871902,-19.473207465507446,0.020849719646834852,-0.1423866010404184,-1.2561541174351716,-0.001100621450648109,0.00032119950090797665,0.00013385159028239235,0,70,255.0,255.0,255.0
488,24.400000000000002,13.717630157870357,1.4675394277706373,-19.536013927127968,0.02078517252691642,-0.14237972489984602,-1.2560828086504798,-0.001481263346089073,-4.615387801296003e-05,0.0027184997973841657,0,70,255.0,255.0,255.0
489,24.450000000000003,13.71866740631673,1.4604202307693896,-19.598813592498992,0.020701593312225944,-0.14239121642821967,-1.255882267455433,-0.001861905241530037,-0.0004135072569338969,0.005303148004485938,0,70,255.0,255.0,255.0
490,24.5,13.7197,1.4533,-19.6616,0.020598982002763427,-0.1424210756255394,-1.2555524938500315,-0.0022425471369708905,-0.0007808606358548076,0.007887796211585751,0,70,255.0,255.0,255.0
491,24.55,13.720727308588994,1.4461782075093381,-19.72436823190859,0.020496615012638095,-0.14244587667272965,-1.2551861217206226,-0.0018521324680422669,-0.00021118125175422517,0.006767088964771146,0,70,255.0,255.0,255.0
492,24.6,13.72174998684682,1.4390558870655472,-19.787119546094768,0.020413768755959197,-0.14244219375071482,-1.2548757849535546,-0.0014617177991136433,0.00035849813234635724,0.00564638171795654,0,70,255.0,255.0,255.0
493,24.650000000000002,13.722769010810147,1.4319344628670867,-19.849856744326654,0.02035044323272673,-0.142410026859495,-1.254621483548827,-0.0010713031301850195,0.0009281775164469395,0.004525674471141935,0,70,255.0,255.0,255.0
494,24.700000000000003,13.72378535651565,1.4248153591124173,-19.912582628372363,0.020306638442940693,-0.14234937599907013,-1.25442321750644,-0.0006808884612563959,0.001497856900547522,0.0034049672243273293,0,70,255.0,255.0,255.0
495,24.75,13.7248,1.4177,-19.9753,0.020282354386601087,-0.14226024116944028,-1.2542809868263942,-0.0002904737923278833,0.0020675362846473977,0.0022842599775128036,0,70,255.0,255.0,255.0
496,24.8,13.725814062536765,1.4105895759601512,-20.03801040310769,0.020286305277477743,-0.14215664845914472,-1.254119319308013,0.00044850942739417196,0.0020761721271748803,0.004182440757737665,0,70,255.0,255.0,255.0
497,24.85,13.726829246347098,1.4034843423506207,-20.100710350113484,0.020327205329340504,-0.14205262395672277,-1.2538627427506206,0.0011874926471162272,0.002084807969702363,0.006080621537962526,0,70,255.0,255.0,255.0
498,24.900000000000002,13.72784739888905,1.3963843207610143,-20.163395095565434,0.02040505454218937,-0.14194816766217447,-1.2535112571542166,0.0019264758668382826,0.0020934438122298454,0.007978802318187386,0,70,255.0,255.0,255.0
499,24.950000000000003,13.728870367620667,1.3892895327809385,-20.226059894011595,0.020519852916024338,-0.1418432795754998,-1.2530648625188017,0.0026654590865603377,0.002102079654757328,0.009876983098412248,0,70,255.0,255.0,255.0
500,25.0,13.7299,1.3822,-20.2887,0.020671600450845394,-0.14173795969669878,-1.2525235588443753,0.0034044423062823403,0.0021107154972845876,0.01177516387863875,0,70,255.0,255.0,255.0
501,25.05,13.730937241263947,1.3751154886500558,-20.351311755660653,0.02080616387746313,-0.14164752949069,-1.2519526010472992,0.0019780947584269754,0.0015064927430660817,0.011063148004402014,0,70,255.0,255.0,255.0
502,25.1,13.731979427764792,1.3680347435319689,-20.41389585345129,0.020869409926688093,-0.14158731042239217,-1.251417244043935,0.0005517472105716109,0.0009022699888475755,0.010351132130165277,0,70,255.0,255.0,255.0
503,25.150000000000002,13.73302299363366,1.3609562540888545,-20.47645407341161,0.02086133859852029,-0.14155730249180526,-1.2509174878342826,-0.0008746003372837536,0.0002980472346290695,0.00963911625592854,0,70,255.0,255.0,255.0
504,25.200000000000003,13.734064373001686,1.3538785097638264,-20.538988195581286,0.020781949892959718,-0.14155750569892925,-1.2504533324183422,-0.0023009478851391185,-0.0003061755195894367,0.008927100381691803,0,70,255.0,255.0,255.0
505,25.25,13.7351,1.3468,-20.6015,0.02063124381000639,-0.1415879200437642,-1.2500247777961135,-0.0037272954329944374,-0.0009103982738070115,0.008215084507451564,0,70,255.0,255.0,255.0
506,25.3,13.736127372407445,1.3397196694396256,-20.663990574249706,0.02047303921265108,-0.14162123357809578,-1.2495902765028177,-0.0026008884612178937,-0.00042214309945655534,0.009164967224380418,0,70,255.0,255.0,255.0
507,25.35,13.737148242593742,1.3326382835215023,-20.726458236081356,0.020371154963884596,-0.14163013435370986,-1.2491082810736753,-0.0014744814894413496,6.611207489390088e-05,0.010114849941309272,0,70,255.0,255.0,255.0
508,25.400000000000002,13.73816542657631,1.3255570628835662,-20.788900610788144,0.02032559106370694,-0.14161462237060637,-1.248578791508687,-0.0003480745176648054,0.0005543672492443572,0.011064732658238126,0,70,255.0,255.0,255.0
509,25.450000000000003,13.739181740372587,1.3184772281637531,-20.851315323663297,0.020336347512118113,-0.1415746976287854,-1.2480018078078516,0.0007783324541117383,0.0010426224235948133,0.01201461537516698,0,70,255.0,255.0,255.0
510,25.5,13.7402,1.3114,-20.9137,0.02040342430911811,-0.14151036012824691,-1.2473773299711701,0.0019047394258882022,0.001530877597945235,0.012964498092092214,0,70,255.0,255.0,255.0
511,25.55,13.741222069106264,1.304326633591442,-20.976052347340524,0.02046967927193029,-0.14141953619692915,-1.2467102929414076,0.000745459086598871,0.002102079654765462,0.013716983098404268,0,70,255.0,255.0,255.0
512,25.6,13.742246001860241,1.2972585223820206,-21.0383704022233,0.020477970217778,-0.14130015216277036,-1.2460056316613297,-0.0004138212526904601,0.0026732817115856893,0.01446946810471632,0,70,255.0,255.0,255.0
513,25.650000000000002,13.743268900061093,1.2901970943768786,-21.100652283435817,0.02042829714666124,-0.14115220802577058,-1.245263346130936,-0.0015731015919797915,0.003244483768405917,0.015221953111028374,0,70,255.0,255.0,255.0
514,25.700000000000003,13.744287865507962,1.2831437775811576,-21.16289610976556,0.020320660058580017,-0.14097570378592977,-1.2444834363502266,-0.0027323819312691225,0.003815685825226144,0.015974438117340426,0,70,255.0,255.0,255.0
515,25.75,13.7453,1.2761,-21.2251,0.020155058953534342,-0.14077063944324797,-1.2436659023192023,-0.0038916622705585102,0.004386887882047219,0.016726923123654203,0,70,255.0,255.0,255.0
516,25.8,13.7463035511675,1.2690665961946062,-21.2872624363882,0.020000243699640194,-0.14057262163418652,-1.242832551731569,-0.0023009478852073213,0.003533824480410873,0.01660710038167501,0,70,255.0,255.0,255.0
517,25.85,13.747301349965285,1.2620420269504131,-21.349383355025445,0.019924964165013607,-0.14041725699520688,-1.2420051922810347,-0.0007102334998561324,0.0026807610787745275,0.016487277639695815,0,70,255.0,255.0,255.0
518,25.900000000000002,13.748297373179321,1.2550241596089173,-21.411463055468587,0.01992922034965458,-0.14030454552630905,-1.2411838239675994,0.0008804808854950561,0.0018276976771381816,0.016367454897716623,0,70,255.0,255.0,255.0
519,25.950000000000003,13.749295597595571,1.2480108615116141,-21.473501837274494,0.02001301225356311,-0.14023448722749304,-1.240368446791263,0.0024711952708462454,0.000974634275501836,0.016247632155737428,0,70,255.0,255.0,255.0
520,26.0,13.7503,1.241,-21.5355,0.02017633987673919,-0.14020708209875887,-1.2395590607520257,0.004061909656197182,0.00012157087386555077,0.01612780941375469,0,70,255.0,255.0,255.0
521,26.05,13.75131332622374,1.2339901816301335,-21.59745710710668,0.020345345929497653,-0.14017797726632258,-1.2387115001323015,0.0026983324541412753,0.0010426224235860946,0.01777461537521854,0,70,255.0,255.0,255.0
522,26.1,13.752333398278614,1.2269829698163257,-21.659369777674925,0.02044617312215332,-0.14010281985640027,-1.2377815992145038,0.0013347552520853677,0.0019636739733066384,0.01942142133668239,0,70,255.0,255.0,255.0
523,26.150000000000002,13.753356807221618,1.2199806671874511,-21.721233894689835,0.02047882145470619,-0.1399816098689919,-1.2367693579986332,-2.882194997053892e-05,0.002884725523027182,0.02106822729814624,0,70,255.0,255.0,255.0
524,26.200000000000003,13.75438014410975,1.2129855763723845,-21.783045341136493,0.020443290927156268,-0.13981434730409753,-1.2356747764846892,-0.0013923991520264469,0.003805777072747726,0.02271503325961009,0,70,255.0,255.0,255.0
525,26.25,13.7554,1.206,-21.8448,0.020339581539503552,-0.13960103216171713,-1.2344978546726721,-0.00275597635408234,0.0047268286224688705,0.024361839221077375,0,70,255.0,255.0,255.0
526,26.3,13.756413543937542,1.1990254772848596,-21.90649473518507,0.020202372582370617,-0.13938746930052465,-1.2332974477392138,-0.002732381931234978,0.0038156858252308503,0.023654438117256038,0,70,255.0,255.0,255.0
527,26.35,13.757420256920255,1.1920604937842831,-21.968130334274843,0.02006634334638005,-0.13921946357919404,-1.2321324108609464,-0.002708787508387616,0.00290454302799283,0.022947037013434705,0,70,255.0,255.0,255.0
528,26.400000000000002,13.758420197934198,1.1851027716412759,-22.029708565772086,0.019931493831531852,-0.13909701499772537,-1.2310027440378704,-0.002685193085540254,0.0019934002307548104,0.022239635909613368,0,70,255.0,255.0,255.0
529,26.450000000000003,13.759413425965429,1.178150032998846,-22.09123119817955,0.019797824037826022,-0.13902012355611856,-1.2299084472699853,-0.002661598662692892,0.0010822574335167903,0.02153223480579203,0,70,255.0,255.0,255.0
530,26.5,13.7604,1.1712,-22.1527,0.01966533396526257,-0.1389887892543737,-1.228849520557291,-0.002638004239845504,0.00017111463627816903,0.020824833701972523,0,70,255.0,255.0,255.0
531,26.55,13.761380498026094,1.1642511092304262,-22.214115952153044,0.0195651637410361,-0.1389601455315791,-1.2277787089108467,-0.0013688047292131507,0.0009746342755058927,0.022007632155789752,0,70,255.0,255.0,255.0
532,26.6,13.762357574040363,1.1573046550465413,-22.27547688522571,0.019528453492341256,-0.1388913258268231,-1.2266487573417117,-9.960521858079757e-05,0.0017781539147336163,0.02319043060960698,0,70,255.0,255.0,255.0
533,26.650000000000002,13.763334401041588,1.1503626462474432,-22.336779842221844,0.019555203219178023,-0.13878233014010571,-1.225459665849886,0.0011695942920515552,0.00258167355396134,0.024373229063424214,0,70,255.0,255.0,255.0
534,26.700000000000003,13.76431415202854,1.1434270916322298,-22.39802186614532,0.019645412921546413,-0.13863315847142696,-1.2242114344353696,0.002438793802683909,0.0033851931931890636,0.025556027517241443,0,70,255.0,255.0,255.0
535,26.75,13.7653,1.1365,-22.4592,0.0197990825994464,-0.13844381082078683,-1.222904063098162,0.003707993313315977,0.004188712832417174,0.026738825971055036,0,70,255.0,255.0,255.0
536,26.8,13.766294063958087,1.1295828857934345,-22.52031185620274,0.01995297245347927,-0.13824394857315778,-1.2215717166173956,0.0024476008479986534,0.0038057770727441156,0.026555033259600687,0,70,255.0,255.0,255.0
537,26.85,13.767294246918294,1.1226752860295508,-22.581357324822335,0.02004384268424627,-0.1380632331135124,-1.220248559772202,0.0011872083826813293,0.0034228413130710567,0.02637124054814634,0,70,255.0,255.0,255.0
538,26.900000000000002,13.768297397899456,1.1157762433689502,-22.642336865340553,0.020071693291747406,-0.13790166444185067,-1.218934592562581,-7.318408263599484e-05,0.0030399055533979983,0.026187447836691993,0,70,255.0,255.0,255.0
539,26.950000000000003,13.769300365920413,1.1088848004722327,-22.703250937239186,0.02003652427598267,-0.1377592425581726,-1.2176298149885327,-0.0013335765479533185,0.0026569697937249394,0.026003655125237647,0,70,255.0,255.0,255.0
540,27.0,13.7703,1.102,-22.7641,0.01993833563695208,-0.1376359674624782,-1.2163342270500572,-0.0025939690132707194,0.0022740340340519083,0.025819862413783312,0,70,255.0,255.0,255.0
541,27.05,13.771293646141562,1.095121347595835,-22.824883823035993,0.019806946445052986,-0.13750406017578898,-1.215006424619568,-0.0026615986626928943,0.0030022574335161526,0.027292234805781156,0,70,255.0,255.0,255.0
542,27.1,13.772280638286464,1.088250200835254,-22.885599415484965,0.01967217577068279,-0.13733574171912658,-1.2136050035694792,-0.0027292283121150692,0.003730480832980397,0.028764607197779,0,70,255.0,255.0,255.0
543,27.150000000000002,13.773260807360588,1.081388380276755,-22.946243096415948,0.01953402361384148,-0.13713101209249096,-1.2121299638997902,-0.002796857961537244,0.004458704232444641,0.030236979589776843,0,70,255.0,255.0,255.0
544,27.200000000000003,13.774233984289808,1.0745377064788375,-23.006811184897952,0.019392489974529057,-0.1368898712958821,-1.2105813056105013,-0.002864487610959419,0.0051869276319088855,0.031709351981774686,0,70,255.0,255.0,255.0
545,27.25,13.7752,1.0677,-23.0673,0.019247574852745537,-0.13661231932930004,-1.2089590287016128,-0.002932117260381728,0.0059151510313733,0.03318172437377953,0,70,255.0,255.0,255.0
546,27.3,13.776159351475671,1.060876523823225,-23.127706451653303,0.019139241766302457,-0.136331810723686,-1.2072985849043376,-0.0014012061973413985,0.005305193193188931,0.033236027517224896,0,70,255.0,255.0,255.0
547,27.35,13.77711519993585,1.054066310629433,-23.188029813237815,0.019107454233011398,-0.13608180000998113,-1.20563542594989,0.00012970486569893096,0.004695235355004561,0.03329033066067027,0,70,255.0,255.0,255.0
548,27.400000000000002,13.778071372658191,1.047267835524028,-23.248269948995677,0.01915221225287235,-0.13586228718818552,-1.2039695518382705,0.0016606159287392607,0.0040852775168201926,0.033344633804115634,0,70,255.0,255.0,255.0
549,27.450000000000003,13.779031696920356,1.0404795736124155,-23.308426723169024,0.019273515825885323,-0.13567327225829912,-1.2023009625694787,0.00319152699177959,0.003475319678635823,0.033398936947561,0,70,255.0,255.0,255.0
550,27.5,13.78,1.0337,-23.3685,0.019471364952050298,-0.13551475522032194,-1.2006296581435145,0.0047224380548197,0.002865361840452385,0.033453240091006364,0,70,255.0,255.0,255.0
551,27.55,13.780978547955753,1.026927757111265,-23.428489570350802,0.01965208648972344,-0.1353766969294675,-1.1989512357631071,0.002506423452105901,0.0026569697937252694,0.03368365512528655,0,70,255.0,255.0,255.0
552,27.6,13.781963361970137,1.0201621566470143,-23.488394931563782,0.019722007297260893,-0.1352490582409494,-1.197261292630986,0.00029040884939210247,0.002448577746998154,0.03391407015956674,0,70,255.0,255.0,255.0
553,27.650000000000002,13.782948902006643,1.013402677627131,-23.54821550760137,0.01968112737466265,-0.13513183915476767,-1.1955598287471505,-0.0019256057533216962,0.0022401857002710378,0.03414448519384693,0,70,255.0,255.0,255.0
554,27.700000000000003,13.783929628028767,1.0066487990714983,-23.607950722425976,0.01952944672192872,-0.1350250396709223,-1.193846844111601,-0.004141620356035495,0.002031793653543922,0.034374900228127114,0,70,255.0,255.0,255.0
555,27.75,13.7849,0.9999,-23.6676,0.019266965339059115,-0.13492865978941326,-1.1921223387243378,-0.00635763495874922,0.0018234016068179315,0.034605315262403735,0,70,255.0,255.0,255.0
556,27.8,13.785856056701316,0.993156447731715,-23.72716246694351,0.018988412274815653,-0.13480140155844503,-1.1903684720432335,-0.004784487610989091,0.003266927631911563,0.03554935198176709,0,70,255.0,255.0,255.0
557,27.85,13.786800152183606,0.9864210627825095,-23.786636060507057,0.0187885165779602,-0.1346019670262221,-1.188567403526161,-0.003211340263228962,0.004710453657005195,0.03649338870113044,0,70,255.0,255.0,255.0
558,27.900000000000002,13.787736219315235,0.9796974539674468,-23.84601842059886,0.018667278248492753,-0.1343303561927445,-1.1867191331731204,-0.0016381929154688328,0.006153979682098827,0.037437425420493796,0,70,255.0,255.0,255.0
559,27.950000000000003,13.788668190964579,0.9729892301015891,-23.905307187127107,0.018624697286413312,-0.13398656905801223,-1.1848236609841116,-6.504556770870439e-05,0.007597505707192457,0.038381462139857145,0,70,255.0,255.0,255.0
560,28.0,13.7896,0.9663,-23.9645,0.01866077369172188,-0.13357060562202525,-1.182880986959135,0.0015081017800513408,0.009041031732286653,0.03932549885922221,0,70,255.0,255.0,255.0
561,28.05,13.790534825238984,0.9596320519618751,-24.023594961875183,0.01873026441101691,-0.13316169683675216,-1.1809188760639657,0.001271526991749835,0.007315319678635676,0.03915893694755006,0,70,255.0,255.0,255.0
562,28.1,13.791472829295444,0.9529823922229466,-24.082592026407994,0.018787926390896863,-0.13283907365416167,-1.17896509326438,0.0010349522034483294,0.0055896076249847,0.03899237503587791,0,70,255.0,255.0,255.0
563,28.150000000000002,13.792413420732416,0.9463467065030806,-24.141491610003214,0.018833759631361746,-0.1326027360742537,-1.177019638560378,0.0007983774151468236,0.0038638955713337243,0.03882581312420576,0,70,255.0,255.0,255.0
