idx,t,px,py,pz,vx,vy,vz,ax,ay,az,yaw,mode,ledr,ledg,ledb
0,0.0,1.5,-3.0,0.0,5.597446534703077e-19,2.6939854456527574e-19,0.019030436778708193,-6.716935841643693e-18,-3.232782534783309e-18,-0.5155652413444983,0,70,255.0,255.0,255.0
1,0.05,1.5,-3.0,0.00030909572403349495,2.574825405963415e-19,1.2392333050002683e-19,-0.006625999081794231,-5.373548673314954e-18,-2.5862260278266472e-18,-0.5106921930755987,0,70,255.0,255.0,255.0
2,0.1,1.5,-3.0,-0.000658539034622007,2.238978613881223e-20,1.0775941782611029e-20,-0.03203878252885167,-4.0301615049862155e-18,-1.9396695208699855e-18,-0.505819144806699,0,70,255.0,255.0,255.0
3,0.15000000000000002,1.5,-3.0,-0.002890721655294257,-1.455336099022801e-19,-7.00436215869717e-20,-0.05720791356246414,-2.6867743366574768e-18,-1.2931130139133234e-18,-0.5009460965377992,0,70,255.0,255.0,255.0
4,0.2,1.5,-3.0,-0.006375269517311004,-2.462876475269355e-19,-1.185353596087213e-19,-0.08213339218263159,-1.343387168328738e-18,-6.465565069566617e-19,-0.49607304826889953,0,70,255.0,255.0,255.0
5,0.25,1.5,-3.0,-0.0111,-2.7987232673515386e-19,-1.3469927228263787e-19,-0.1068152183893541,0.0,0.0,-0.4912000000000001,0,70,255.0,255.0,255.0
6,0.30000000000000004,1.5,-3.0,-0.017052730482689002,-2.4628764752693534e-19,-1.185353596087213e-19,-0.13125339218263163,1.3433871683287397e-18,6.465565069566624e-19,-0.48632695173110047,0,70,255.0,255.0,255.0
7,0.35000000000000003,1.5,-3.0,-0.02422127834470575,-1.455336099022799e-19,-7.004362158697165e-20,-0.15544791356246415,2.6867743366574783e-18,1.293113013913324e-18,-0.48145390346220085,0,70,255.0,255.0,255.0
8,0.4,1.5,-3.0,-0.032593460965378,2.23897861388124e-20,1.0775941782611065e-20,-0.1793987825288517,4.030161504986216e-18,1.9396695208699855e-18,-0.4765808551933012,0,70,255.0,255.0,255.0
9,0.45,1.5,-3.0,-0.042157095724033505,2.574825405963417e-19,1.2392333050002688e-19,-0.20310599908179428,5.373548673314955e-18,2.5862260278266472e-18,-0.47170780692440156,0,70,255.0,255.0,255.0
10,0.5,1.5,-3.0,-0.0529,5.597446534703077e-19,2.6939854456527574e-19,-0.22656956322129185,6.716935841643694e-18,3.232782534783309e-18,-0.4668347586555024,0,70,255.0,255.0,255.0
11,0.55,1.5,-3.0,-0.06480937379327753,7.276680495114001e-19,3.502181079348585e-19,-0.24975243218767942,-4.622231866529366e-33,-2.6963019221421302e-33,-0.4604799999999999,0,70,255.0,255.0,255.0
12,0.6000000000000001,1.5,-3.0,-0.07786994758655505,5.597446534703073e-19,2.693985445652755e-19,-0.2726175632212919,-6.716935841643703e-18,-3.2327825347833143e-18,-0.45412524134449744,0,70,255.0,255.0,255.0
13,0.65,1.5,-3.0,-0.09206583448319379,5.597446534703069e-20,2.693985445652746e-20,-0.2951649563221292,-1.3433871683287386e-17,-6.465565069566619e-18,-0.44777048268899494,0,70,255.0,255.0,255.0
14,0.7000000000000001,1.5,-3.0,-0.10738114758655504,-7.836425148584323e-19,-3.7715796239138673e-19,-0.3173946114901913,-2.0150807524931087e-17,-9.698347604349931e-18,-0.44141572403349244,0,70,255.0,255.0,255.0
15,0.75,1.5,-3.0,-0.1238,-1.959106287146077e-18,-9.428949059784651e-19,-0.33930652872547834,-2.686774336657477e-17,-1.2931130139133236e-17,-0.4350609653779922,0,70,255.0,255.0,255.0
16,0.8,1.5,-3.0,-0.14130657434420096,-2.6643845505186648e-18,-1.2823370721307127e-18,-0.3609048790666507,-1.3433871683287118e-18,-6.465565069566528e-19,-0.4288730482689007,0,70,255.0,255.0,255.0
17,0.8500000000000001,1.5,-3.0,-0.1598853313090742,-2.0934450039789485e-18,-1.0075505566741306e-18,-0.3821938335523684,2.4180969029917346e-17,1.163801712521993e-17,-0.4226851311598092,0,70,255.0,255.0,255.0
18,0.9,1.5,-3.0,-0.1795208011018469,-2.4628764752693394e-19,-1.1853535960872097e-19,-0.4031733921826316,4.970532522816335e-17,2.392259075739649e-17,-0.4164972140507177,0,70,255.0,255.0,255.0
19,0.9500000000000001,1.5,-3.0,-0.2001975139297464,2.877087518837389e-18,1.3847085190655198e-18,-0.42384355495744025,7.52296814264094e-17,3.620716438957307e-17,-0.4103092969416262,0,70,255.0,255.0,255.0
20,1.0,1.5,-3.0,-0.2219,7.276680495114e-18,3.502181079348585e-18,-0.44420432187679426,1.0075403762465538e-16,4.849173802174963e-17,-0.40412137983253693,0,70,255.0,255.0,255.0
21,1.05,1.5,-3.0,-0.24461232882991865,9.929870152563259e-18,4.7791301805879916e-18,-0.4642280515457178,5.3735486733148596e-18,2.5862260278266052e-18,-0.3968278069244027,0,70,255.0,255.0,255.0
22,1.1,1.5,-3.0,-0.26831672717714833,7.814035362445488e-18,3.7608036821312466e-18,-0.48388710256923456,-9.000694027802566e-17,-4.331928596609642e-17,-0.38953423401626847,0,70,255.0,255.0,255.0
23,1.1500000000000001,1.5,-3.0,-0.29299496110941875,9.291761247606839e-19,4.472015839783466e-19,-0.5031814749473447,-1.8538742922936618e-16,-8.922479796001943e-17,-0.38224066110813426,0,70,255.0,255.0,255.0
24,1.2000000000000002,1.5,-3.0,-0.3186287966944594,-1.0724707560491144e-17,-5.161676113870705e-18,-0.522111168680048,-2.807679181807067e-16,-1.3513030995394246e-16,-0.37494708820000006,0,70,255.0,255.0,255.0
25,1.25,1.5,-3.0,-0.3452,-2.7147615693309924e-17,-1.3065829411415873e-17,-0.5406761837673446,-3.761484071320468e-16,-1.810358219478653e-16,-0.36765351529187207,0,70,255.0,255.0,255.0
26,1.3,1.5,-3.0,-0.37269131033612446,-3.705509605973437e-17,-1.7834183650221252e-17,-0.5589349147504787,-2.015080752493076e-17,-9.698347604349797e-18,-0.3626957240334942,0,70,255.0,255.0,255.0
27,1.35,1.5,-3.0,-0.40108935998233264,-2.9162696445802996e-17,-1.403566417185085e-17,-0.5769457561706941,3.3584679208218525e-16,1.616391267391657e-16,-0.35773793277511634,0,70,255.0,255.0,255.0
28,1.4000000000000001,1.5,-3.0,-0.43038175446047855,-3.470416851515805e-18,-1.6702709763046643e-18,-0.5947087080279905,6.918443916893013e-16,3.3297660108268123e-16,-0.3527801415167385,0,70,255.0,255.0,255.0
29,1.4500000000000002,1.5,-3.0,-0.46055609929241637,4.002174272312719e-17,1.9261995936417303e-17,-0.612223770322368,1.0478419912964173e-15,5.043140754261967e-16,-0.3478223502583606,0,70,255.0,255.0,255.0
30,1.5,1.5,-3.0,-0.4916,1.013137822781257e-16,4.876113656631491e-17,-0.6294909430538266,1.4038395909035317e-15,6.756515497697117e-16,-0.3428645589999837,0,70,255.0,255.0,255.0
31,1.55,1.5,-3.0,-0.5235000298255836,1.3829051408637422e-16,6.655760442029704e-17,-0.6464482894523669,7.522968142640833e-17,3.6207164389572596e-17,-0.3354292969416262,0,70,255.0,255.0,255.0
32,1.6,1.5,-3.0,-0.5562386328935215,1.0883675042076653e-16,5.2381853005272176e-17,-0.6630338727479892,-1.253380228050715e-15,-6.032372209905665e-16,-0.32799403488326867,0,70,255.0,255.0,255.0
33,1.6500000000000001,1.5,-3.0,-0.5897972210486674,1.2952491281302581e-17,6.233882321240318e-18,-0.6792476929406938,-2.5819901375278385e-15,-1.2426816063707058e-15,-0.3205587728249112,0,70,255.0,255.0,255.0
34,1.7000000000000002,1.5,-3.0,-0.6241572061358756,-1.4936226333201757e-16,-7.188630763179851e-17,-0.6950897500304803,-3.910600047004962e-15,-1.882125991750845e-15,-0.3131235107665537,0,70,255.0,255.0,255.0
35,1.75,1.5,-3.0,-0.6593,-3.7810751341919285e-16,-1.8197871685384377e-16,-0.7105600440173492,-5.239209956482079e-15,-2.5215703771309815e-15,-0.30568824870819533,0,70,255.0,255.0,255.0
36,1.8,1.5,-3.0,-0.6952077703615409,-5.161069602857625e-16,-2.4839623403096685e-16,-0.7257039274400541,-2.8076791818070177e-16,-1.3513030995394022e-16,-0.3000670882000012,0,70,255.0,255.0,255.0
37,1.85,1.5,-3.0,-0.731865708443582,-4.0618430523726307e-16,-1.9549174784923782e-16,-0.7405667528373493,4.677674120120675e-15,2.251309757223101e-15,-0.29444592769180705,0,70,255.0,255.0,255.0
38,1.9000000000000001,1.5,-3.0,-0.7692597613448525,-4.833954827369446e-17,-2.3265258308656627e-17,-0.7551485202092348,9.636116158422053e-15,4.637749824400141e-15,-0.28882476718361294,0,70,255.0,255.0,255.0
39,1.9500000000000002,1.5000000000000002,-3.0,-0.807375876164082,5.574273106049429e-16,2.6828323459077673e-16,-0.7694492295557107,1.459455819672343e-14,7.024189891577183e-15,-0.28320360667541883,0,70,255.0,255.0,255.0
40,2.0,1.5,-3.0,-0.8462,1.4111162713986457e-15,6.791537308490602e-16,-0.7834688808767766,1.9553000235024792e-14,9.410629958754213e-15,-0.2775824461672256,0,70,255.0,255.0,255.0
41,2.0500000000000003,1.5,-3.0,-0.8857176887282526,1.9261373270566762e-15,9.270273317035707e-16,-0.7971840007874164,1.0478419912963206e-15,5.043140754261503e-16,-0.2710223502583636,0,70,255.0,255.0,255.0
42,2.1,1.5000000000000002,-3.0,-0.925912933332151,1.515900470528286e-15,7.295851383916792e-16,-0.810571115902613,-1.7457316252431987e-14,-8.402001807901834e-15,-0.2644622543495016,0,70,255.0,255.0,255.0
43,2.15,1.5000000000000002,-3.0,-0.966769333571923,1.8040570181348324e-16,8.682715091339009e-17,-0.8236302262223664,-3.5962474496160297e-14,-1.730831769122982e-14,-0.25790215844063963,0,70,255.0,255.0,255.0
44,2.2,1.5000000000000002,-3.0000000000000004,-1.008270489207797,-2.0803469790877547e-15,-1.001246630731308e-15,-0.8363613317466769,-5.4467632739888765e-14,-2.621463357455788e-14,-0.2513420625317776,0,70,255.0,255.0,255.0
45,2.25,1.5,-3.0,-1.0504,-5.26635757217539e-15,-2.534636206542397e-15,-0.8487644324755442,-7.297279098361708e-14,-3.5120949457885874e-14,-0.24478196662292095,0,70,255.0,255.0,255.0
46,2.3000000000000003,1.4999999999999998,-3.0,-1.0931414747254495,-7.188442347940942e-15,-3.4597130927833156e-15,-0.8608400694102812,-3.910600047004585e-15,-1.8821259917506697e-15,-0.2382435107665566,0,70,255.0,255.0,255.0
47,2.35,1.4999999999999993,-3.0000000000000004,-1.1364785582278145,-5.6574175768758804e-15,-2.722848805717479e-15,-0.8725887835521999,6.515159088960727e-14,3.1356697474384244e-14,-0.2317050549101923,0,70,255.0,255.0,255.0
48,2.4000000000000004,1.499999999999999,-3.0000000000000004,-1.1803949043674558,-6.732832589801772e-16,-3.2404334534487325e-16,-0.8840105749013005,1.3421378182621975e-13,6.459552094051945e-14,-0.22516659905382794,0,70,255.0,255.0,255.0
49,2.45,1.4999999999999991,-3.0000000000000004,-1.224874167004731,7.763960605746075e-15,3.736703288334456e-15,-0.8951054434575827,2.0327597276283164e-13,9.783434440665436e-14,-0.21862814319746365,0,70,255.0,255.0,255.0
50,2.5,1.5,-3.0,-1.2699,1.9654314017302913e-14,9.459391095320528e-15,-0.9058733892210468,2.7233816369944347e-13,1.3107316787278928e-13,-0.2120896873411029,0,70,255.0,255.0,255.0
51,2.5500000000000003,1.5000000000000013,-2.9999999999999996,-1.3154564123699517,2.6827632064707087e-14,1.2911825039429691e-14,-0.9163357215714597,1.459455819672201e-14,7.0241898915765285e-15,-0.20640360667541466,0,70,255.0,255.0,255.0
52,2.6,1.5000000000000024,-2.999999999999999,-1.3615288337565914,2.1113769836975234e-14,1.0161810084478234e-14,-0.9265137498885883,-2.4314904730599713e-13,-1.1702478808963516e-13,-0.20071752600972648,0,70,255.0,255.0,255.0
53,2.6500000000000004,1.500000000000003,-2.9999999999999987,-1.4081030489582558,2.5127273341072325e-15,1.209346230466114e-15,-0.9364074741724324,-5.008926528087186e-13,-2.410737660708479e-13,-0.1950314453440382,0,70,255.0,255.0,255.0
54,2.7,1.5000000000000027,-2.9999999999999987,-1.45516484277328,-2.8975495443896553e-14,-1.394556652260652e-14,-0.9460168944229921,-7.586362583114377e-13,-3.651227440520596e-13,-0.18934536467835003,0,70,255.0,255.0,255.0
55,2.75,1.5,-3.0,-1.5027,-7.335089849703627e-14,-3.5302928174739716e-14,-0.9553420106402674,-1.016379863814157e-12,-4.891717220332711e-13,-0.1836592840126654,0,70,255.0,255.0,255.0
56,2.8000000000000003,1.4999999999999953,-3.000000000000002,-1.5506936757947458,-1.0012208591088742e-13,-4.8187587064935445e-14,-0.9643450443038787,-5.4467632739883666e-14,-2.621463357455533e-14,-0.1764620625317823,0,70,255.0,255.0,255.0
57,2.85,1.4999999999999907,-3.000000000000005,-1.5991285067458205,-7.879766177102505e-14,-3.792439153219547e-14,-0.9729882168934456,9.074445983343812e-13,4.367424548841562e-13,-0.16926484105089923,0,70,255.0,255.0,255.0
58,2.9000000000000004,1.4999999999999885,-3.0000000000000053,-1.647986499799523,-9.37762607744879e-15,-4.513341576519564e-15,-0.9812715284089685,1.8693568294086544e-12,8.996995433428721e-13,-0.16206761957001609,0,70,255.0,255.0,255.0
59,2.95,1.4999999999999907,-3.0000000000000044,-1.6972496619021498,1.0813802116984014e-13,5.20455628020916e-14,-0.9891949788504473,2.8312690604829194e-12,1.3626566318015835e-12,-0.15487039808913303,0,70,255.0,255.0,255.0
60,3.0,1.5,-3.0,-1.7469,2.7374927997084213e-13,1.3175232160363833e-13,-0.9967585682178819,3.793181291557184e-12,1.825613720260295e-12,-0.1476731766082544,0,70,255.0,255.0,255.0
61,3.0500000000000003,1.5000000000000169,-2.999999999999992,-1.7969200844510667,3.7366071157884255e-13,1.7983852322031208e-13,-1.0039961012130252,2.032759727628121e-13,9.783434440664477e-14,-0.14182814319746978,0,70,255.0,255.0,255.0
62,3.1,1.5000000000000342,-2.999999999999983,-1.8472947392601269,2.9407687724712495e-13,1.415357560443036e-13,-1.0109413825376288,-3.3866293460315276e-12,-1.6299450314469903e-12,-0.1359831097866852,0,70,255.0,255.0,255.0
63,3.1500000000000004,1.5000000000000433,-2.999999999999979,-1.898009351843654,3.4997776975687855e-14,1.684402007561212e-14,-1.0175944121916936,-6.9765346648259e-12,-3.3577244073006404e-12,-0.13013807637590058,0,70,255.0,255.0,255.0
64,3.2,1.500000000000035,-2.9999999999999836,-1.9490493096181205,-4.0357658923546393e-13,-1.9423668468576e-13,-1.023955190175219,-1.056643998362024e-11,-5.085503783154276e-12,-0.12429304296511601,0,70,255.0,255.0,255.0
65,3.25,1.5,-3.0,-2.0004,-1.0216462213863323e-12,-4.917063582398136e-13,-1.0300237164882053,-1.4156345302414579e-11,-6.8132831590079125e-12,-0.11844800955433321,0,70,255.0,255.0,255.0
66,3.3000000000000003,1.4999999999999367,-3.00000000000003,-2.052046786400988,-1.394520760404483e-12,-6.711665058163131e-13,-1.0357985508440224,-7.586362583113641e-13,-3.6512274405202445e-13,-0.11254536467834587,0,70,255.0,255.0,255.0
67,3.35,1.4999999999998717,-3.000000000000062,-2.1039749362136724,-1.0975098472174746e-12,-5.282186326450191e-13,-1.0412782529560398,1.2639072785791731e-11,6.0830376709038054e-12,-0.1066427198023586,0,70,255.0,255.0,255.0
68,3.4000000000000004,1.4999999999998384,-3.000000000000078,-2.1561696928258627,-1.3061348182530268e-13,-6.286273872592909e-14,-1.0464628228242583,2.6036781829894945e-11,1.2531198085859694e-11,-0.10074007492637124,0,70,255.0,255.0,255.0
69,3.45,1.4999999999998699,-3.0000000000000626,-2.208616299625368,1.5061683357720157e-12,7.249011759409488e-13,-1.0513522604486771,3.943449087399804e-11,1.8979358500815522e-11,-0.09483743005038396,0,70,255.0,255.0,255.0
70,3.5,1.5,-3.0,-2.2613,3.812835605574487e-12,1.835073111355616e-12,-1.0559465658292966,5.283219991810114e-11,2.5427518915771354e-11,-0.08893478517439668,0,70,255.0,255.0,255.0
71,3.5500000000000003,1.5000000000002358,-2.9999999999998863,-2.314205569944981,5.204422330039089e-12,2.50482750004494e-12,-1.060217695410885,2.831269060482652e-12,1.3626566318014573e-12,-0.08191039808913447,0,70,255.0,255.0,255.0
72,3.6,1.5000000000004787,-2.99999999999977,-2.367315915885184,4.095962511622775e-12,1.9713387745357732e-12,-1.0641376056382101,-4.7169661797135385e-11,-2.2702205652168226e-11,-0.07488601100387235,0,70,255.0,255.0,255.0
73,3.6500000000000004,1.500000000000604,-2.9999999999997096,-2.4206134768528975,4.874561503255245e-13,2.346069348281034e-13,-1.067706296511272,-9.717059265475388e-11,-4.6767067936138126e-11,-0.06786162391861014,0,70,255.0,255.0,255.0
74,3.7,1.5000000000004858,-2.9999999999997664,-2.474080691880407,-5.6210967538525974e-12,-2.7053680190780333e-12,-1.0709237680300712,-1.471715235123719e-10,-7.08319302201078e-11,-0.060837236833348005,0,70,255.0,255.0,255.0
75,3.75,1.5,-3.0,-2.5277,-1.4229696200911616e-11,-6.848586087182652e-12,-1.0737900201946067,-1.971724543699899e-10,-9.489679250407749e-11,-0.05381284974808409,0,70,255.0,255.0,255.0
76,3.8000000000000003,1.4999999999991198,-3.0000000000004237,-2.581454133819089,-1.942316855975187e-11,-9.348143494363447e-12,-1.0763226675124369,-1.0566439983619196e-11,-5.085503783153796e-12,-0.04749304296512232,0,70,255.0,255.0,255.0
77,3.85,1.4999999999982132,-3.0000000000008598,-2.6353270002455913,-1.5286340199273616e-11,-7.357136465498073e-12,-1.078539324491119,1.7603957440274987e-10,8.47257849377691e-11,-0.04117323618216061,0,70,255.0,255.0,255.0
78,3.9000000000000004,1.4999999999977465,-3.0000000000010845,-2.6893027997625487,-1.8192111194767884e-12,-8.755650005864905e-13,-1.0804399911306528,3.626455887891206e-10,1.745370736586928e-10,-0.034853429399198846,0,70,255.0,255.0,255.0
79,3.95,1.4999999999981868,-3.0000000000008726,-2.743365732853004,2.0978218679638384e-11,1.0096570900371185e-11,-1.0820246674310388,5.492516031754896e-10,2.6434836237961567e-10,-0.028533622616237132,0,70,255.0,255.0,255.0
80,4.0,1.5,-3.0,-2.7975,5.310594919807197e-11,2.555927123737499e-11,-1.0832933533922766,7.358576175618587e-10,3.541596511005386e-10,-0.02221381583327542,0,70,255.0,255.0,255.0
81,4.05,1.500000000003285,-2.9999999999984186,-2.8516898947786617,7.248825190896838e-11,3.488774647740884e-11,-1.0842516345393682,3.9434490874000464e-11,1.8979358500816682e-11,-0.01611743005038877,0,70,255.0,255.0,255.0
82,4.1000000000000005,1.5000000000066684,-2.999999999996791,-2.9059200831324516,5.704939828547142e-11,2.745720708745637e-11,-1.0849050963973155,-6.5698863581387e-10,-3.1620093409891125e-10,-0.010021044267502012,0,70,255.0,255.0,255.0
83,4.15,1.5000000000084095,-2.9999999999959526,-2.9601753240969084,6.789388327581635e-12,3.267653067517856e-12,-1.0852537389661183,-1.3534117625017281e-09,-6.513812266986332e-10,-0.003924658484615363,0,70,255.0,255.0,255.0
84,4.2,1.500000000006767,-2.999999999996743,-3.014440376707577,-7.829177796470092e-11,-3.76809155824067e-11,-1.085297562245777,-2.0498348891895866e-09,-9.865615192983551e-10,0.0021717272982712844,0,70,255.0,255.0,255.0
85,4.25,1.5,-3.0,-3.0687,-1.9819410059137627e-10,-9.53884988623173e-11,-1.085036566236291,-2.746258015877445e-09,-1.3217418118980768e-09,0.008268113081159711,0,70,255.0,255.0,255.0
86,4.3,1.4999999999877405,-3.0000000000059,-3.122939087066261,-2.7052983907612167e-10,-1.302028424152719e-10,-1.0844787943300955,-1.471715235123811e-10,-7.083193022011211e-11,0.01404276316666644,0,70,255.0,255.0,255.0
87,4.3500000000000005,1.4999999999751128,-3.000000000011978,-3.177143067224606,-2.1291125294261218e-10,-1.0247169188432743e-10,-1.0836322899196245,2.451914968852729e-09,1.180077951457875e-09,0.019817413252173274,0,70,255.0,255.0,255.0
88,4.4,1.499999999968615,-3.000000000015105,-3.2312975038498193,-2.533834219084967e-11,-1.2195047269484908e-11,-1.082497053004878,5.051001461217793e-09,2.4309878331358398e-09,0.02559206333768,0,70,255.0,255.0,255.0
89,4.45,1.499999999974745,-3.0000000000121547,-3.2853879603166884,2.921888931791653e-10,1.4062709142925562e-10,-1.0810730835858564,7.650087953582856e-09,3.6818977148138043e-09,0.031366713423186726,0,70,255.0,255.0,255.0
90,4.5,1.5,-3.0,-3.3394,7.396704531674331e-10,3.559947242118942e-10,-1.0793603816625594,1.024917444594792e-08,4.93280759649177e-09,0.03714136350869701,0,70,255.0,255.0,255.0
91,4.55,1.5000000000457534,-2.9999999999779794,-3.393318556956294,1.0096311043955181e-09,4.859236231836788e-10,-1.0773211881402478,5.492516031755228e-10,2.643483623796323e-10,0.04442637738376438,0,70,255.0,255.0,255.0
92,4.6000000000000005,1.50000000009288,-2.999999999955298,-3.447126047969129,7.945956134849771e-10,3.824295604498535e-10,-1.074917743924183,-9.150671239597046e-09,-4.404110871732588e-09,0.051711391258831875,0,70,255.0,255.0,255.0
93,4.65,1.5000000001171299,-2.999999999943627,-3.5008042605038168,9.456398043581756e-11,4.55125360104218e-11,-1.0721500490143647,-1.885059408236944e-08,-9.072570105844726e-09,0.05899640513389924,0,70,255.0,255.0,255.0
94,4.7,1.500000000094253,-2.999999999954637,-3.5543349820256696,-1.09046379475196e-09,-5.248274501346159e-10,-1.069018103410793,-2.855051692514184e-08,-1.3741029339956863e-08,0.06628141900896661,0,70,255.0,255.0,255.0
95,4.75,1.5,-3.0,-3.6077,-2.760487712078356e-09,-1.3285903979852595e-09,-1.065521907113468,-3.825043976791422e-08,-1.8409488574069003e-08,0.07356643288404108,0,70,255.0,255.0,255.0
96,4.800000000000001,1.499999999829246,-3.000000000082182,-3.660881885108563,-3.767994578505953e-09,-1.8134916503194441e-09,-1.0617084531089107,-2.049834889189064e-09,-9.865615192981088e-10,0.07897172729825827,0,70,255.0,255.0,255.0
97,4.8500000000000005,1.4999999996533677,-3.00000000016683,-3.7138663408988797,-2.9654712009972958e-09,-1.4272465499150863e-09,-1.057624734383642,3.415076998953544e-08,1.643636553547248e-08,0.08437702171247535,0,70,255.0,255.0,255.0
98,4.9,1.4999999995628663,-3.0000000002103873,-3.766639854134915,-3.529175795524213e-10,-1.6985509677220162e-10,-1.0532707509376629,7.035137486825996e-08,3.3859292590243063e-08,0.08978231612669245,0,70,255.0,255.0,255.0
99,4.95,1.4999999996482432,-3.0000000001692966,-3.819188911580634,4.0696662858286745e-09,1.9586827091092083e-09,-1.048646502770973,1.0655197974698448e-07,5.1282219645013646e-08,0.09518761054090955,0,70,255.0,255.0,255.0
100,5.0,1.5,-3.0,-3.8715,1.030228039514599e-08,4.958366867729144e-09,-1.0437519898835719,1.42752584625709e-07,6.870514669978424e-08,0.1005929049551284,0,70,255.0,255.0,255.0
101,5.050000000000001,1.500000000637262,-2.9999999996932933,-3.923558702609457,1.4062347209628292e-08,6.768042978094098e-09,-1.0385329994241135,7.650087953580921e-09,3.6818977148128807e-09,0.10816671342320358,0,70,255.0,255.0,255.0
102,5.1000000000000005,1.5000000012936492,-2.9999999993773816,-3.9753469884353554,1.1067289190504208e-08,5.3265566392104914e-09,-1.0329353185412515,-1.2745240871854477e-07,-6.134135127015732e-08,0.11574052189127863,0,70,255.0,255.0,255.0
103,5.15,1.5000000016314055,-2.999999999214824,-4.026845922956525,1.3171063377738614e-09,6.339078510783892e-10,-1.0269589472349856,-2.625549053906704e-07,-1.2636460025512753e-07,0.12331433035935367,0,70,255.0,255.0,255.0
104,5.2,1.5000000013127746,-2.999999999368177,-4.078036571651797,-1.5188201348562738e-08,-7.309903386302213e-09,-1.0206038855053163,-3.976574020627961e-07,-1.913878492400977e-07,0.13088813882742872,0,70,255.0,255.0,255.0
105,5.25,1.5,-3.0,-4.1289,-3.8448633868505604e-08,-1.8504877072931317e-08,-1.0138701333522426,-5.327598987349218e-07,-2.564110982250679e-07,0.13846194729550554,0,70,255.0,255.0,255.0
106,5.300000000000001,1.4999999976217055,-3.0000000011446453,-4.179418504453612,-5.248139426000722e-08,-2.5258680262056944e-08,-1.0068315491946307,-2.8550516925134672e-08,-1.3741029339953381e-08,0.14308141900896884,0,70,255.0,255.0,255.0
107,5.3500000000000005,1.4999999951720353,-3.000000002323643,-4.229579305359702,-4.130368556101954e-08,-1.9878980006926876e-08,-0.9995619914513456,4.7565886488464356e-07,2.289290395451568e-07,0.14770089072243206,0,70,255.0,255.0,255.0
108,5.4,1.4999999939115116,-3.000000002930318,-4.279370854038986,-4.9155077715430425e-09,-2.365776307541342e-09,-0.9920614601223875,9.798682466944217e-07,4.71599108430267e-07,0.1523203624358953,0,70,255.0,255.0,255.0
109,5.45,1.4999999951006586,-3.0000000023579956,-4.32878160181218,5.6683139108422315e-08,2.7280930836099647e-08,-0.9843299552077562,1.4840776285042e-06,7.142691773153772e-07,0.15693983414935853,0,70,255.0,255.0,255.0
110,5.5,1.5,-3.0,-4.3778,1.4349225507887642e-07,6.906114142399613e-08,-0.9763674767074518,1.9882870103139784e-06,9.569392462004876e-07,0.16155930586282263,0,70,255.0,255.0,255.0
111,5.550000000000001,1.5000000088759153,-2.999999995728126,-4.426412879576095,1.9586322983040058e-07,9.42666780701337e-08,-0.9680768037973587,1.0655197974695806e-07,5.128221964500079e-08,0.17006761054089944,0,70,255.0,255.0,255.0
112,5.6000000000000005,1.5000000180182105,-2.999999991328046,-4.474600590125837,1.5414745305357397e-07,7.418936338849703e-08,-0.9593607156533618,-1.7751830508200288e-06,-8.543748069104699e-07,0.1785759152189761,0,70,255.0,255.0,255.0
113,5.65,1.500000022722548,-2.9999999890639035,-4.522341860887533,1.8344924748398302e-08,8.829197379087007e-09,-0.9502192122754611,-3.6569180813870156e-06,-1.7600318334659408e-06,0.18708421989705273,0,70,255.0,255.0,255.0
114,5.7,1.5000000182845903,-2.999999991199841,-4.569615421099486,-2.1154435508512636e-07,-1.018138199580964e-07,-0.9406522936636565,-5.538653111954002e-06,-2.6656888600214113e-06,0.1955925245751294,0,70,255.0,255.0,255.0
115,5.75,1.5,-3.0,-4.6164,-5.355203864470001e-07,-2.577396886230532e-07,-0.9306599598179481,-7.420388142520989e-06,-3.571345886576882e-06,0.2041008292532105,0,70,255.0,255.0,255.0
116,5.800000000000001,1.499999966874633,-3.000000015942851,-4.662676377242009,-7.30971525061595e-07,-3.518080320184778e-07,-0.9203652356159322,-3.9765740206269555e-07,-1.913878492400494e-07,0.20768813882742312,0,70,255.0,255.0,255.0
117,5.8500000000000005,1.4999999327551232,-3.0000000323641713,-4.708433534136948,-5.752861266532762e-07,-2.768784735470613e-07,-0.9098911459352057,6.625073338395473e-06,3.1885701880967232e-06,0.2112754484016357,0,70,255.0,255.0,255.0
118,5.9,1.4999999151982963,-3.0000000408140663,-4.753662502410885,-6.846419122204998e-08,-3.2951013208806654e-08,-0.8992376907757686,1.364780407885364e-05,6.5685282254334955e-06,0.21486275797584825,0,70,255.0,255.0,255.0
119,5.95,1.4999999317609796,-3.0000000328426415,-4.798354313789879,7.894942812320829e-07,3.7997434899628616e-07,-0.8884048701376209,2.067053481931181e-05,9.948486262770267e-06,0.21845006755006083,0,70,255.0,255.0,255.0
120,6.0,1.5,-3.0,-4.8425,1.998589290709124e-06,9.618976130682166e-07,-0.8773926840207625,2.7693265559769976e-05,1.3328444300107037e-05,0.22203737712427962,0,70,255.0,255.0,255.0
121,6.050000000000001,1.5000001236255516,-2.9999999405004707,-4.886088011455874,2.7280228704159793e-06,1.3129654500037776e-06,-0.8660462537389211,1.4840776285038258e-06,7.142691773151966e-07,0.2318198341493726,0,70,255.0,255.0,255.0
122,6.1000000000000005,1.5000002509612969,-2.9999998792152676,-4.929096473326372,2.1469970535595306e-06,1.0333245307997481e-06,-0.8542107006058252,-2.4725110302761863e-05,-1.189990594547642e-05,0.2416022911744654,0,70,255.0,255.0,255.0
123,6.15,1.500000316484267,-2.9999998476798297,-4.9715009294689345,2.5551184013980204e-07,1.229748554561394e-07,-0.8418860246214747,-5.093429823402755e-05,-2.4514081068268034e-05,0.2513847481995582,0,70,255.0,255.0,255.0
124,6.2,1.5000002546714912,-2.9999998774295946,-5.013276923740998,-2.9464327698432052e-06,-1.4180835760270472e-06,-0.8290722257858694,-7.714348616529322e-05,-3.712825619105965e-05,0.26116720522465103,0,70,255.0,255.0,255.0
125,6.25,1.5,-3.0,-5.0544,-7.458836776389495e-06,-3.589850763649813e-06,-0.8157693040990095,-0.00010335267409655892,-4.9742431313851265e-05,0.27094966224974826,0,70,255.0,255.0,255.0
126,6.300000000000001,1.4999995386231606,-3.000000222055268,-5.094849976934503,-1.018111995660232e-05,-4.900053767996632e-06,-0.8022337494283869,-5.538653111952622e-06,-2.6656888600207315e-06,0.27047252457514476,0,70,255.0,255.0,255.0
127,6.3500000000000005,1.4999990633996885,-3.000000450774758,-5.1346237725575685,-8.012702087584846e-06,-3.8564196496519296e-06,-0.7887220516414949,9.227536787265194e-05,4.441105359380896e-05,0.26999538690054126,0,70,255.0,255.0,255.0
128,6.4,1.499998818864636,-3.0000005684666142,-5.173722579713381,-9.535831693371605e-07,-4.589484086157508e-07,-0.775234210738333,0.0001900893888572565,9.148779604763867e-05,0.2695182492259377,0,70,255.0,255.0,255.0
129,6.45,1.4999990495530557,-3.00000045743898,-5.21214759124613,1.0996236798140738e-05,5.292359955111903e-06,-0.7617702267189012,0.0002879034098418611,0.00013856453850146833,0.2690411115513342,0,70,255.0,255.0,255.0
130,6.5,1.5,-3.0,-5.2499,2.7836757814848853e-05,1.3397505441531035e-05,-0.7483300995831995,0.00038571743082646564,0.00018564128095529804,0.26856397387673336,0,70,255.0,255.0,255.0
131,6.550000000000001,1.5000017218818058,-2.999999171278458,-5.286969680806117,3.79964569559933e-05,1.828724962198275e-05,-0.7342347485475297,2.0670534819306602e-05,9.948486262767757e-06,0.2952500675500554,0,70,255.0,255.0,255.0
132,6.6000000000000005,1.500003495439949,-2.9999983176857,-5.323301236443359,2.990381129677986e-05,1.4392354067807975e-05,-0.7188050928281938,-0.00034437636118784604,-0.00016574430842975944,0.321936161223377,0,70,255.0,255.0,255.0
133,6.65,1.500004408057189,-2.999997878453713,-5.358827951677543,3.5588208372088273e-06,1.7128187790068681e-06,-0.702041132425192,-0.0007094232571949986,-0.00034143710312228663,0.3486222548966985,0,70,255.0,255.0,255.0
134,6.7,1.500003547116286,-2.999998292814485,-5.393483111274484,-4.103851442271978e-05,-1.9751356244420568e-05,-0.683942867338524,-0.0010744701532021512,-0.0005171298978148138,0.3753083485700201,0,70,255.0,255.0,255.0
135,6.75,1.5,-3.0,-5.4272,-0.00010388819448300592,-5.000017100247433e-05,-0.66451029756819,-0.0014395170492093037,-0.0006928226925073415,0.40199444224334613,0,70,255.0,255.0,255.0
136,6.800000000000001,1.4999935738496157,-3.0000038928309003,-5.45990809984103,-0.0001418047078673709,-0.00011624894472003705,-0.6435152563814898,-7.714348616527362e-05,-0.001957128256195129,0.4378072052246521,0,70,255.0,255.0,255.0
137,6.8500000000000005,1.4999869548405158,-3.000012678482442,-5.491521681668998,-0.00011160254309953451,-0.00024571299662198723,-0.6207295770457246,0.0012852300768787322,-0.0032214338198828948,0.4736199682059574,0,70,255.0,255.0,255.0
138,6.9,1.4999835489066082,-3.000029517718532,-5.521951213576451,-1.3281700179498118e-05,-0.00043839232670832545,-0.5961532595608943,0.002647603639922738,-0.00448573938357066,0.5094327311872628,0,70,255.0,255.0,255.0
139,6.95,1.4999867619818006,-3.0000575713030826,-5.551107163655936,0.0001531578208927383,-0.0006942869349790516,-0.5697863039269986,0.004009977202966745,-0.005750044947258426,0.5452454941685682,0,70,255.0,255.0,255.0
140,7.0,1.5,-3.0001,-5.5789,0.0003877160201171748,-0.001013396821434166,-0.5416287101440375,0.005372350766010751,-0.007014350510946191,0.5810582571498761,0,70,255.0,255.0,255.0
141,7.050000000000001,1.5000255827197315,-3.00015885739794,-5.605267519829765,0.0006252223745134824,-0.0013292914707451655,-0.5133202259265071,0.004127903409841421,-0.0056214354614936134,0.5512811115513253,0,70,255.0,255.0,255.0
142,7.1000000000000005,1.500061485197988,-3.000231768384533,-5.63025683688065,0.0008005063611013202,-0.0015755403675835316,-0.48650059898890463,0.0028834560536721123,-0.0042285204120410605,0.5215039659527749,0,70,255.0,255.0,255.0
143,7.15,1.5001045963163784,-3.0003152506721573,-5.653942394016654,0.0009135679798806928,-0.0017521435119492701,-0.46116982933122974,0.0016390086975028042,-0.0028356053625885084,0.49172682035422455,0,70,255.0,255.0,255.0
144,7.2,1.5001518049565123,-3.000405821973187,-5.676398634101772,0.0009644072308516,-0.0018591009038423814,-0.4373279169534823,0.00039456134133349606,-0.0014426903131359555,0.4619496747556742,0,70,255.0,255.0,255.0
145,7.25,1.5002,-3.0005,-5.6977,0.0009530241140140423,-0.0018964125432628656,-0.4149748618556625,-0.0008498860148358116,-4.977526368339473e-05,0.43217252915712434,0,70,255.0,255.0,255.0
146,7.300000000000001,1.5002464952714576,-3.0005950775773402,-5.717914620839915,0.0009049152098130924,-0.001910585172300108,-0.39373183991248345,-0.0010744701532021535,-0.0005171298978062892,0.41754834857002593,0,70,255.0,255.0,255.0
147,7.3500000000000005,1.5002903043675326,-3.000691447979425,-5.737085370808404,0.0008455770986938266,-0.0019481255330434943,-0.3732200269986597,-0.0012990542915684916,-0.0009844845319291755,0.40292416798292774,0,70,255.0,255.0,255.0
148,7.4,1.5003308658278784,-3.00079027959284,-5.755248810356936,0.0007750097806562438,-0.002009033625493025,-0.3534394231141908,-0.0015236384299348294,-0.0014518391660520618,0.38829998739582955,0,70,255.0,255.0,255.0
149,7.45,1.5003676181921497,-3.00089274080417,-5.7724414999369795,0.0006932132557003441,-0.0020933094496487,-0.3343900282590769,-0.0017482225683011676,-0.001919193800174948,0.3736758068087314,0,70,255.0,255.0,255.0
150,7.5,1.5004,-3.001,-5.7887,0.0006001875238261276,-0.0022009530055105194,-0.3160718424333179,-0.0019728067066675055,-0.0023865484342978395,0.3590516262216328,0,70,255.0,255.0,255.0
151,7.550000000000001,1.500427636194437,-3.0011120322926987,-5.804061996810579,0.0005071167862336231,-0.0022603678400497616,-0.29855241442356223,-0.001750022797032623,9.955052728185393e-06,0.3417254941685832,0,70,255.0,255.0,255.0
152,7.6000000000000005,1.5004508973318815,-3.001224039697766,-5.8185696798857345,0.0004251852441228642,-0.002199957500237703,-0.28189929301645933,-0.0015272388873977447,0.002406458539754168,0.324399362115534,0,70,255.0,255.0,255.0
153,7.65,1.5004703403721074,-3.0013300309564834,-5.8322663645556005,0.00035439289749384913,-0.002019721986074346,-0.26611247821200895,-0.0013044549777628661,0.00480296202678015,0.30707323006248477,0,70,255.0,255.0,255.0
154,7.7,1.5004865222748889,-3.001424014810134,-5.845195366150312,0.00029473974634657804,-0.0017196612975596897,-0.251191970010211,-0.0010816710681279878,0.0071994655138061334,0.28974709800943554,0,70,255.0,255.0,255.0
155,7.75,1.5005,-3.0015,-5.8574,0.0002462257906810508,-0.001299775434693735,-0.2371377684110655,-0.0008588871584931106,0.009595969000832117,0.2724209659563861,0,70,255.0,255.0,255.0
156,7.800000000000001,1.500510959950794,-3.001553593251865,-5.8689237919177755,0.00018661764525206473,-0.0008559434675012449,-0.22396250239326368,-0.0015254386586662973,0.00815730968686723,0.2545896747556799,0,70,255.0,255.0,255.0
157,7.8500000000000005,1.5005181063049415,-3.001586793229512,-5.879811109648661,9.36819248144208e-05,-0.00048404446600700646,-0.21167880093549737,-0.0021919901588394724,0.006718650372902367,0.23675838355497406,0,70,255.0,255.0,255.0
158,7.9,1.500519772683692,-3.0016031965812267,-5.890106531420659,-3.258137063188172e-05,-0.0001840784302110108,-0.20028666403776635,-0.0028585416590126474,0.0052799910589375046,0.21892709235426822,0,70,255.0,255.0,255.0
159,7.95,1.500514292708295,-3.0016063999552944,-5.899854635461772,-0.0001921722410868429,4.395463988674214e-05,-0.18978609170007063,-0.0035250931591858225,0.0038413317449726416,0.20109580115356235,0,70,255.0,255.0,255.0
160,8.0,1.5005,-3.0016,-5.9091,-0.00038509068655046274,0.00020005474428625203,-0.1801770839224102,-0.0041916446593589975,0.002402672431007778,0.18326450995285648,0,70,255.0,255.0,255.0
161,8.05,1.5004757240023863,-3.0015863946998427,-5.917886835518323,-0.0005815873672419641,0.0003561417100571662,-0.1714375760033711,-0.003668222568300947,0.0038408061998286987,0.16631580680870248,0,70,255.0,255.0,255.0
162,8.1,1.5004422774483517,-3.001563187384187,-5.926257881519624,-0.0007519129433805571,0.000584135364269118,-0.16354550324153996,-0.003144800477242916,0.005278939968649568,0.14936710366454908,0,70,255.0,255.0,255.0
163,8.15,1.500400968893124,-3.0015267827186083,-5.934255509761764,-0.0008960674149662537,0.0008840357069221237,-0.1565008656369163,-0.002621378386184865,0.00671707373747049,0.1324184005203951,0,70,255.0,255.0,255.0
164,8.200000000000001,1.500353106891931,-3.001473585368687,-5.941922092002602,-0.0010140507819990474,0.0012558427380161765,-0.15030366318950025,-0.002097956295126815,0.00815520750629141,0.1154696973762411,0,70,255.0,255.0,255.0
165,8.25,1.5003,-3.0014,-5.9493,-0.0011058630444789354,0.0016995564575512593,-0.14495389589929214,-0.00157453420406878,0.009593341275112273,0.09852099423208793,0,70,255.0,255.0,255.0
166,8.3,1.500242144039661,-3.001302427948762,-5.956432066008935,-0.0012202681762838515,0.0022153766272740034,-0.14047919359325375,-0.0030016710681277964,0.011039465513797194,0.08046709800944535,0,70,255.0,255.0,255.0
167,8.35,1.5001767839016513,-3.0011772572337403,-5.963362964272844,-0.0014060301512917113,0.0028035030089309724,-0.13690718609834762,-0.004428807932186762,0.012485589752482063,0.0624132017868034,0,70,255.0,255.0,255.0
168,8.4,1.5001003517438116,-3.0010208725443372,-5.9701378295322876,-0.0016631489695025287,0.0034639356025222075,-0.13423787341457344,-0.005855944796245779,0.013931713991166984,0.04435930556416082,0,70,255.0,255.0,255.0
169,8.450000000000001,1.500009279723981,-3.000829658569956,-5.976801796527821,-0.0019916246309162975,0.00419667440804769,-0.13247125554193145,-0.0072830816603047955,0.015377838229851903,0.026305409341518232,0,70,255.0,255.0,255.0
170,8.5,1.4999,-3.0006,-5.9834,-0.002391457135533003,0.00500171942550739,-0.13160733248042164,-0.008710218524363753,0.016823962468536763,0.00825151311887562,0,70,255.0,255.0,255.0
171,8.55,1.49977009983897,-3.0003294935051072,-5.989976900445941,-0.002793339927621737,0.005806351780845317,-0.13160564962361043,-0.007365093159185376,0.015361331744979882,-0.008184198846427748,0,70,255.0,255.0,255.0
172,8.6,1.4996217869450421,-3.0000205836808522,-5.996574261388998,-0.00312796645145154,0.0065378526000053755,-0.13242575236506438,-0.006019967794007049,0.013898701021423054,-0.024619910811730532,0,70,255.0,255.0,255.0
173,8.65,1.4994584241316293,-2.9996769271040424,-6.003233172109086,-0.0033953367070224372,0.007196221882987615,-0.13406764070478353,-0.0046748424288286725,0.012436070297866173,-0.0410556227770339,0,70,255.0,255.0,255.0
174,8.700000000000001,1.499283374212144,-2.999302180351489,-6.009994721886115,-0.003595450694334414,0.0077814596297920095,-0.13653131464276783,-0.003329717063650297,0.010973439574309293,-0.057491334742337266,0,70,255.0,255.0,255.0
175,8.75,1.4991,-2.9989,-6.0169,-0.0037283084133874684,0.008293565840418543,-0.13981677417901722,-0.001984591698471965,0.00951080885075245,-0.07392704670764028,0,70,255.0,255.0,255.0
176,8.8,1.498910256604459,-2.998472398030809,-6.0239907322073005,-0.0038783721132275425,0.008831216249344636,-0.14396220791230296,-0.004017956295130904,0.011995207506290986,-0.09189030262378671,0,70,255.0,255.0,255.0
177,8.85,1.4987104683181802,-2.998014808042852,-6.031311190171159,-0.004130104042900554,0.009493086591047634,-0.14900580444139583,-0.00605132089178977,0.014479606161829433,-0.1098535585399325,0,70,255.0,255.0,255.0
178,8.9,1.4984955517296719,-2.997521019039491,-6.03890628203137,-0.004483504202406521,0.010279176865527578,-0.1549475637662962,-0.00808468548844871,0.01696400481736797,-0.12781681445607895,0,70,255.0,255.0,255.0
179,8.950000000000001,1.4982604234274424,-2.996984820024087,-6.046820915927721,-0.004938572591745436,0.011189487072784454,-0.16178748588700392,-0.010118050085107648,0.0194484034729065,-0.1457800703722254,0,70,255.0,255.0,255.0
180,9.0,1.498,-2.9964,-6.0551,-0.005495309210917278,0.012224017212818218,-0.16952557080351868,-0.012151414681766497,0.021932802128444895,-0.1637433262883714,0,70,255.0,255.0,255.0
181,9.05,1.497710473743194,-2.9957617143716564,-6.063788170724858,-0.006077171619469057,0.01330078322177553,-0.17814551872718956,-0.011123081660304318,0.02113783822984694,-0.1810545906584591,0,70,255.0,255.0,255.0
182,9.1,1.4973931397822378,-2.995070584147738,-6.07292897792636,-0.006607617376947708,0.014337801035802906,-0.1876310298693645,-0.010094748638842178,0.02034287433124901,-0.1983658550285462,0,70,255.0,255.0,255.0
183,9.15,1.497050568949684,-2.994328596737992,-6.0825656997654365,-0.007086646483353269,0.015335070654900421,-0.19798210423004414,-0.009066415617379999,0.019547910432651056,-0.21567711939863388,0,70,255.0,255.0,255.0
184,9.200000000000001,1.4966853320780866,-2.993537739552163,-6.092741614403008,-0.0075142589386857205,0.01629259207906804,-0.20919874180922818,-0.00803808259591782,0.0187529465340531,-0.2329883837687216,0,70,255.0,255.0,255.0
185,9.25,1.4963,-2.9927,-6.1035,-0.007890454742945049,0.017210365308305726,-0.2212809426069162,-0.007009749574455618,0.01795798263545506,-0.2502996481388087,0,70,255.0,255.0,255.0
186,9.3,1.495896648422764,-2.991817544482566,-6.114874984893271,-0.008244941408897585,0.018077650863550152,-0.2336797171789447,-0.007169717063645625,0.016733439574321423,-0.24565133474232484,0,70,255.0,255.0,255.0
187,9.35,1.4954753725528693,-2.990893255366196,-6.126864098123397,-0.008607426449309608,0.018883709265737864,-0.2458460760811486,-0.007329684552835627,0.015508896513187828,-0.24100302134584117,0,70,255.0,255.0,255.0
188,9.4,1.4950357724715921,-2.9899301940085428,-6.139455718906889,-0.008977909864181146,0.019628540514868925,-0.25778001931352873,-0.007489652042025633,0.01428435345205419,-0.2363547079493573,0,70,255.0,255.0,255.0
189,9.450000000000001,1.49457744826021,-2.98893142176726,-6.152638226460254,-0.009356391653512182,0.020312144610943307,-0.26948154687608467,-0.007649619531215641,0.013059810390920553,-0.23170639455287348,0,70,255.0,255.0,255.0
190,9.5,1.4941,-2.9879,-6.1664,-0.009742871817302707,0.02093452155396098,-0.28095065876881603,-0.0078095870204056145,0.011835267329786958,-0.22705808115639092,0,70,255.0,255.0,255.0
191,9.55,1.493602932565749,-2.98683770769808,-6.180731889702059,-0.010143062744940548,0.021572613324028017,-0.2923356125570319,-0.008198050085107813,0.013688403472894321,-0.22834007037223777,0,70,255.0,255.0,255.0
192,9.600000000000001,1.4930853700062854,-2.9857411943874776,-6.19563462958005,-0.010562676825813501,0.022303361901250433,-0.30378466580604013,-0.008586513149810012,0.015541539616001684,-0.22962205958808463,0,70,255.0,255.0,255.0
193,9.65,1.4925463411639472,-2.9846058272278357,-6.211111424607011,-0.011001714059921544,0.02312676728562818,-0.3152978185158403,-0.008974976214512199,0.017394675759108982,-0.23090404880393145,0,70,255.0,255.0,255.0
194,9.700000000000001,1.4919848748810727,-2.9834269733787955,-6.227165479755981,-0.011460174447264717,0.024042829477161326,-0.3268750706864332,-0.009363439279214398,0.019247811902216347,-0.2321860380197783,0,70,255.0,255.0,255.0
195,9.75,1.4914,-2.9822,-6.2438,-0.011938057987842983,0.025051548475849804,-0.338516422317818,-0.009751902343916596,0.021100948045323642,-0.23346802723562377,0,70,255.0,255.0,255.0
196,9.8,1.4907908213142396,-2.9809220247251145,-6.261016656298492,-0.012430807611338952,0.026047895840334234,-0.35012983259292685,-0.009958082595921871,0.018752946534053037,-0.23106838376872518,0,70,255.0,255.0,255.0
197,9.850000000000001,1.4901567474219894,-2.9795971670838926,-6.278810983556405,-0.012933866247435184,0.026926843129255137,-0.3616232606946908,-0.010164262847927147,0.016404945022782436,-0.22866874030182657,0,70,255.0,255.0,255.0
198,9.9,1.4894972628726193,-2.9782312970801144,-6.297176982665071,-0.013447233896131663,0.027688390342612477,-0.37299670662310946,-0.010370443099932415,0.014056943511511915,-0.22626909683492807,0,70,255.0,255.0,255.0
199,9.950000000000001,1.4888118522154998,-2.9768302847175576,-6.316108654515825,-0.013970910557428422,0.028332537480406317,-0.38425017037818354,-0.010576623351937691,0.011708942000241312,-0.22386945336802946,0,70,255.0,255.0,255.0
200,10.0,1.4881,-2.9754,-6.3356,-0.014504896231325429,0.02885928454263661,-0.3953836519599123,-0.010782803603943,0.009360940488970876,-0.22146980990113008,0,70,255.0,255.0,255.0
201,10.05,1.4873617821772924,-2.9739445934014648,-6.355646285103977,-0.015013706809704397,0.02937180331463423,-0.4064730570712623,-0.009569619531215403,0.011139810390933622,-0.22210639455286235,0,70,255.0,255.0,255.0
202,10.100000000000001,1.4865996403057566,-2.9724613372769517,-6.376247836194337,-0.015461858184446984,0.02997326558172999,-0.4175942914151989,-0.008356435458487806,0.012918680292896369,-0.22274297920459463,0,70,255.0,255.0,255.0
203,10.15,1.485816607345575,-2.9709457844517067,-6.397406244732707,-0.015849350355553175,0.03066367134392386,-0.4287473549917217,-0.007143251385760252,0.014697550194859051,-0.22337956385632687,0,70,255.0,255.0,255.0
204,10.200000000000001,1.4850157162569286,-2.969393487750974,-6.419123102180719,-0.016176183323023004,0.03144302060121589,-0.4399322478008315,-0.005930067313032654,0.016476420096821796,-0.22401614850805915,0,70,255.0,255.0,255.0
205,10.25,1.4842,-2.9678,-6.4414,-0.016442357086856443,0.03231131335360603,-0.45114896984252745,-0.004716883240305059,0.01825528999878434,-0.22465273315979006,0,70,255.0,255.0,255.0
206,10.3,1.4833716499765905,-2.9661620016690278,-6.464237403285602,-0.016698365149844338,0.03320089090113074,-0.4623299391220169,-0.005523439279210541,0.017327811902203658,-0.22258603801978266,0,70,255.0,255.0,255.0
207,10.350000000000001,1.4825294913549831,-2.9644806838083007,-6.487631271666252,-0.016994701014777507,0.03404409454382642,-0.47340757364450603,-0.006329995318116023,0.016400333805622974,-0.22051934287977526,0,70,255.0,255.0,255.0
208,10.4,1.4816715077450804,-2.9627583651130593,-6.511576438404101,-0.017331364681655935,0.03484092428169303,-0.4843818734099944,-0.007136551357021476,0.015472855709042325,-0.21845264773976794,0,70,255.0,255.0,255.0
209,10.450000000000001,1.480795682756785,-2.960997364278545,-6.536067736761301,-0.01770835615047965,0.03559138011473064,-0.4952528384184827,-0.007943107395926957,0.014545377612461642,-0.21638595259976054,0,70,255.0,255.0,255.0
210,10.5,1.4799,-2.9592,-6.5611,-0.018125675421248624,0.036295462042939194,-0.5060204686699703,-0.008749663434832383,0.013617899515880993,-0.21431925745974922,0,70,255.0,255.0,255.0
211,10.55,1.4789828179163451,-2.957368199922423,-6.586668901753618,-0.01856083259091789,0.03697663308084236,-0.5167351864406654,-0.008656623351937936,0.013628942000245493,-0.21426945336805048,0,70,255.0,255.0,255.0
212,10.600000000000001,1.4780439942743104,-2.9555023274898455,-6.612773477140657,-0.01899133775644243,0.03765835624296376,-0.5274474140067756,-0.008563583269043487,0.01363998448460999,-0.21421964927635173,0,70,255.0,255.0,255.0
213,10.65,1.4770837616741035,-2.953602355096056,-6.639413601650886,-0.019417190917822232,0.03834063152930336,-0.5381571513683006,-0.008470543186149043,0.01365102696897449,-0.21416984518465298,0,70,255.0,255.0,255.0
214,10.700000000000001,1.4761023527159307,-2.951668255134845,-6.666589150774078,-0.01983839207505733,0.03902345893986121,-0.5488643985252408,-0.008377503103254594,0.013662069453338989,-0.21412004109295424,0,70,255.0,255.0,255.0
215,10.75,1.4751,-2.9497,-6.6943,-0.02025494122814769,0.03970683847463725,-0.559569155477596,-0.00828446302036015,0.01367311193770332,-0.21407023700125283,0,70,255.0,255.0,255.0
216,10.8,1.4740770783580286,-2.9476971986412797,-6.722545389699927,-0.020658304486482617,0.040412576775500496,-0.5702333151153283,-0.007850067313036724,0.014556420096826141,-0.2124961485080332,0,70,255.0,255.0,255.0
217,10.850000000000001,1.4730345315477746,-2.945658006232317,-6.751322019771123,-0.021039947959451376,0.041162480484319884,-0.5808187703283997,-0.007415671605713297,0.015439728255948961,-0.21092206001481356,0,70,255.0,255.0,255.0
218,10.9,1.471973445558506,-2.943580214502715,-6.780625954992355,-0.021399871647053946,0.04195654960109538,-0.5913255211168096,-0.006981275898389885,0.01632303641507175,-0.209347971521594,0,70,255.0,255.0,255.0
219,10.950000000000001,1.4708949063794918,-2.9414616151820754,-6.810453260142393,-0.02173807554929036,0.04279478412582705,-0.6017535674805589,-0.006546880191066458,0.017206344574194572,-0.20777388302837438,0,70,255.0,255.0,255.0
220,11.0,1.4698,-2.9393,-6.8408,-0.022054559666160593,0.043677184058514826,-0.612102909419647,-0.006112484483743075,0.018089652733317196,-0.2061997945351548,0,70,255.0,255.0,255.0
221,11.05,1.4686896686515405,-2.937094205512458,-6.871663139446678,-0.022357949463152355,0.04454105981715898,-0.6224275530980201,-0.006023107395927117,0.01646537761244864,-0.2067859525997646,0,70,255.0,255.0,255.0
222,11.100000000000001,1.4675642795345913,-2.934847247580884,-6.903043243774857,-0.022656870405753312,0.04532372181975971,-0.6327815046796237,-0.00593373030811116,0.01484110249158008,-0.20737211066437436,0,70,255.0,255.0,255.0
223,11.15,1.4664240560918718,-2.932563186893083,-6.934941778379694,-0.022951322493963467,0.04602517006631699,-0.6431647641644574,-0.005844353220295206,0.01321682737071158,-0.20795826872898412,0,70,255.0,255.0,255.0
224,11.200000000000001,1.4652692217661014,-2.930246084136854,-6.967360208656356,-0.023241305727782834,0.04664540455683086,-0.653577331552522,-0.005754976132479248,0.011592552249843024,-0.20854442679359392,0,70,255.0,255.0,255.0
225,11.25,1.4641,-2.9279,-7.0003,-0.02352682010721139,0.04718442529130129,-0.6640192068438168,-0.005665599044663183,0.009968277128974412,-0.20913058485820368,0,70,255.0,255.0,255.0
226,11.3,1.462916247035809,-2.9255275793088886,-7.033761252513362,-0.023829897660909236,0.047727183955859245,-0.6744084724925958,-0.006457503103250506,0.011742069453343376,-0.20644004109295452,0,70,255.0,255.0,255.0
227,11.350000000000001,1.4617163503138602,-2.923125803444144,-7.067738605129456,-0.024172570417536447,0.04835863223663565,-0.6846632109531126,-0.007249407161837829,0.013515861777712341,-0.20374949732770534,0,70,255.0,255.0,255.0
228,11.4,1.4604983300740064,-2.920690237924955,-7.102225331488868,-0.024554838377093016,0.04907877013363047,-0.6947834222253664,-0.008041311220425123,0.015289654102081243,-0.20105895356245626,0,70,255.0,255.0,255.0
229,11.450000000000001,1.459260206556102,-2.91821644827051,-7.137214705232188,-0.02497670153957896,0.04988759764684377,-0.7047691063093581,-0.008833215279012447,0.017063446426450204,-0.1983684097972071,0,70,255.0,255.0,255.0
230,11.5,1.458,-2.9157,-7.1727,-0.025438159904994255,0.05078511477627548,-0.714620263205087,-0.009625119337599686,0.018837238750819107,-0.19567786603195803,0,70,255.0,255.0,255.0
231,11.55,1.4567165432052227,-2.9131378772519883,-7.208675850499877,-0.025890459893210913,0.05168620435940126,-0.7244185569315952,-0.008466880191066267,0.017206344574211507,-0.19625388302836716,0,70,255.0,255.0,255.0
232,11.600000000000001,1.4554119192099677,-2.910532738642541,-7.245142335707325,-0.026284847924100893,0.05250574923369665,-0.734245651507924,-0.007308641044532849,0.015575450397603906,-0.1968299000247763,0,70,255.0,255.0,255.0
233,11.65,1.4540890236121011,-2.907888661407099,-7.282100895664832,-0.026621323997664197,0.05324374939916164,-0.7441015469340728,-0.0061504018979994714,0.013944556220996362,-0.1974059170211854,0,70,255.0,255.0,255.0
234,11.700000000000001,1.45275075200949,-2.905209722781105,-7.319552970414895,-0.026899888113900837,0.05390020485579628,-0.7539862432100425,-0.004992162751466054,0.012313662044388761,-0.19798193401759454,0,70,255.0,255.0,255.0
235,11.75,1.4514,-2.9025,-7.3575,-0.0271205402728108,0.05447511560360053,-0.7638997403358323,-0.003833923604932732,0.010682767867781162,-0.19855795101400453,0,70,255.0,255.0,255.0
236,11.8,1.4500391801433001,-2.899762511683159,-7.395942545487135,-0.027312262766246213,0.05503199860654071,-0.7737892997810226,-0.003834976132483714,0.011592552249825918,-0.1970244267936035,0,70,255.0,255.0,255.0
237,11.850000000000001,1.448668772846269,-2.8969960419856937,-7.434877652041253,-0.027504037886059176,0.055634370828583135,-0.783602183015193,-0.003836028660034696,0.012502336631870673,-0.19549090257320248,0,70,255.0,255.0,255.0
238,11.9,1.4472887754775878,-2.894198316446649,-7.474301485851803,-0.027695865632249683,0.05628223226972777,-0.7933383900383428,-0.003837081187585678,0.013412121013915396,-0.1939573783528015,0,70,255.0,255.0,255.0
239,11.950000000000001,1.4458991854059378,-2.8913670606050696,-7.514210213108237,-0.027887746004817745,0.05697558292997467,-0.8029979208504731,-0.00383813371513666,0.014321905395960153,-0.19242385413240048,0,70,255.0,255.0,255.0
240,12.0,1.4445,-2.8885,-7.5546,-0.02807967900376335,0.05771442280932379,-0.8125807754515828,-0.0038391862426875034,0.015231689778004931,-0.19089032991199595,0,70,255.0,255.0,255.0
241,12.05,1.4430907362215766,-2.885595276015375,-7.595467567551588,-0.028300489041805755,0.05847380121443507,-0.822120243944313,-0.0049932152790085,0.015143446426446116,-0.1906884097972064,0,70,255.0,255.0,255.0
242,12.100000000000001,1.4416689894049557,-2.8826526934146828,-7.63681185612767,-0.028579000531664206,0.05922876745196842,-0.8316496164313038,-0.0061472443153294965,0.015055203074887299,-0.19048648968241685,0,70,255.0,255.0,255.0
243,12.15,1.4402318744775464,-2.8796724728063037,-7.678632360927956,-0.0289152134733387,0.059979321521923805,-0.8411688929125546,-0.007301273351650452,0.014966959723328488,-0.19028456956762732,0,70,255.0,255.0,255.0
244,12.200000000000001,1.4387765063667584,-2.8766548347986167,-7.720928577152163,-0.02930912786682925,0.06072546342430127,-0.8506780733880663,-0.00845530238797145,0.014878716371769673,-0.19008264945283776,0,70,255.0,255.0,255.0
245,12.25,1.4373,-2.8736,-7.7637,-0.029760743712135836,0.06146719315910076,-0.8601771578578383,-0.009609331424292211,0.01479047302021047,-0.18988072933804823,0,70,255.0,255.0,255.0
246,12.3,1.4358002749703933,-2.870508384255343,-7.806945584306514,-0.03022178106652979,0.06219279653571606,-0.8696337244417297,-0.008832162751465634,0.014233662044401244,-0.18838193401760142,0,70,255.0,255.0,255.0
247,12.350000000000001,1.4342784695339075,-2.867381184355575,-7.850662123448075,-0.030643959987282414,0.0628905593635409,-0.8790153512595987,-0.008054994078639055,0.013676851068592018,-0.18688313869715462,0,70,255.0,255.0,255.0
248,12.4,1.4327365266122256,-2.8642197923281354,-7.894845870436374,-0.031027280474393692,0.06356048164257526,-0.8883220383114451,-0.007277825405812505,0.01312004009278281,-0.18538434337670784,0,70,255.0,255.0,255.0
249,12.450000000000001,1.431176389127029,-2.8610256002004637,-7.9394930782831175,-0.03137174252786366,0.06420256337281918,-0.8975537855972695,-0.006500656732985927,0.012563229116973584,-0.18388554805626103,0,70,255.0,255.0,255.0
250,12.5,1.4296,-2.8578,-7.9846,-0.031677346147692284,0.0648168045542726,-0.9067105931170713,-0.005723488060159432,0.012006418141164099,-0.1823867527358134,0,70,255.0,255.0,255.0
251,12.55,1.4280089638968505,-2.854543986963254,-8.030163695222358,-0.03196438669207479,0.06542701264270062,-0.9158408582887764,-0.005758133715140734,0.012401905395956142,-0.18282385413238647,0,70,255.0,255.0,255.0
252,12.600000000000001,1.426403532459413,-2.851256969163017,-8.076184450080042,-0.03225315951920636,0.06605699509386824,-0.9249929785303102,-0.005792779370122038,0.012797392650748186,-0.18326095552895955,0,70,255.0,255.0,255.0
253,12.65,1.4247836190735508,-2.8479379578811543,-8.122663357326552,-0.03254366462908699,0.06670675190777543,-0.9341669538416723,-0.005827425025103339,0.013192879905540213,-0.18369805692553262,0,70,255.0,255.0,255.0
254,12.700000000000001,1.4231491371251255,-2.8445859643995277,-8.169601509715374,-0.0328359020217167,0.06737628308442226,-0.9433627842228633,-0.005862070680084642,0.013588367160332257,-0.1841351583221057,0,70,255.0,255.0,255.0
255,12.75,1.4215,-2.8412,-8.217,-0.03312987169709546,0.06806558862380864,-0.9525804696738828,-0.00589671633506611,0.013983854415123953,-0.18457225971868052,0,70,255.0,255.0,255.0
256,12.8,1.4198358694422042,-2.8377796678916423,-8.264858834804066,-0.033440672165171305,0.06873915289348109,-0.9617548424031709,-0.00653530238796731,0.012958716371773933,-0.18240264945283946,0,70,255.0,255.0,255.0
257,12.850000000000001,1.4181554006284387,-2.834326938992355,-8.313173676231765,-0.03378340193589221,0.06936146026098605,-0.970820734619167,-0.00717388844086851,0.011933578328423915,-0.18023303918699843,0,70,255.0,255.0,255.0
258,12.9,1.416456997093571,-2.8308443761472466,-8.361939100257427,-0.03415806100925815,0.06993251072632349,-0.9797781463218708,-0.007812474493769688,0.010908440285073932,-0.17806342892115745,0,70,255.0,255.0,255.0
259,12.950000000000001,1.414739062372469,-2.827334542201425,-8.411149682855395,-0.034564649385269174,0.07045230428949345,-0.9886270775112826,-0.008451060546670889,0.009883302241723912,-0.17589381865531642,0,70,255.0,255.0,255.0
260,13.0,1.413,-2.8238,-8.4608,-0.03500316706392524,0.07092084095049586,-0.9973675281874023,-0.009089646599572121,0.008858164198373819,-0.17372420838947367,0,70,255.0,255.0,255.0
261,13.05,1.4112387583343322,-2.820242141470178,-8.510885765561387,-0.0354409246472393,0.07140837578337945,-1.0060677720985454,-0.008420656732989962,0.010643229116969513,-0.17428554805624846,0,70,255.0,255.0,255.0
262,13.100000000000001,1.4094564650268315,-2.8166576748675634,-8.561407244992914,-0.03584523273722425,0.07198516386219284,-1.0147960829930274,-0.007751666866407806,0.012428294035565208,-0.17484688772302326,0,70,255.0,255.0,255.0
263,13.15,1.4076547925521652,-2.8130421375298598,-8.612365841643744,-0.036216091333880075,0.07265120518693596,-1.0235524608708477,-0.0070826769998256715,0.01421335895416084,-0.17540822738979803,0,70,255.0,255.0,255.0
264,13.200000000000001,1.405835413384999,-2.8093910667947704,-8.663762958863051,-0.03655350043720681,0.0734064997576089,-1.032336905732007,-0.006413687133243515,0.01599842387275653,-0.17596956705657282,0,70,255.0,255.0,255.0
265,13.25,1.404,-2.8057,-8.7156,-0.03685746004720442,0.07425104757421162,-1.0411494175765048,-0.005744697266661103,0.017783488791352053,-0.1765309067233467,0,70,255.0,255.0,255.0
266,13.3,1.4021498972204673,-2.8019661662276465,-8.767877302950396,-0.03714762924587297,0.07508334397300341,-1.049926069202641,-0.005862070680080391,0.015508367160318927,-0.17453515832209515,0,70,255.0,255.0,255.0
267,13.350000000000001,1.4002851392642348,-2.798193561537392,-8.8205909437966,-0.03744366711521247,0.07580188429024354,-1.0586029334087146,-0.005979444093499678,0.0132332455292858,-0.1725394099208436,0,70,255.0,255.0,255.0
268,13.4,1.3984054326977682,-2.7943878737333145,-8.8737359331676,-0.03774557365522293,0.07640666852593199,-1.0671800101947253,-0.006096817506918962,0.010958123898252754,-0.17054366151959213,0,70,255.0,255.0,255.0
269,13.450000000000001,1.3965104840875344,-2.7905547906194914,-8.927307281692404,-0.03805334886590436,0.07689769668006881,-1.0756572995606737,-0.00621419092033825,0.008683002267219627,-0.16854791311834058,0,70,255.0,255.0,255.0
270,13.5,1.3946,-2.7867,-8.9813,-0.03836699274725675,0.07727496875265395,-1.0840348015065593,-0.006331564333757422,0.00640788063618658,-0.16655216471708556,0,70,255.0,255.0,255.0
271,13.55,1.3926736527837977,-2.7828275936192366,-9.035709822637031,-0.03868855836926747,0.07763424832460204,-1.0923559510908707,-0.006531060546671155,0.007963302241736869,-0.166293818655371,0,70,255.0,255.0,255.0
272,13.600000000000001,1.3907309779162293,-2.778935278982869,-9.090535379820704,-0.03902009880192388,0.07807129897682766,-1.1006641833720967,-0.006730556759584888,0.009518723847287159,-0.1660354725936564,0,70,255.0,255.0,255.0
273,13.65,1.3887714766567614,-2.7750191675368825,-9.145776025685857,-0.03936161404522596,0.07858612070933076,-1.1089594983502364,-0.006930052972498614,0.011074145452837391,-0.16577712653194182,0,70,255.0,255.0,255.0
274,13.700000000000001,1.3867946502648623,-2.771075370727264,-9.20143111436734,-0.03971310409917373,0.0791787135221114,-1.1172418960252908,-0.007129549185412347,0.012629567058387681,-0.16551878047022725,0,70,255.0,255.0,255.0
275,13.75,1.3848,-2.7671,-9.2575,-0.04007456896376719,0.07984907741516951,-1.1255113763972593,-0.007329045398326073,0.014184988663937914,-0.16526043440851446,0,70,255.0,255.0,255.0
276,13.8,1.3827874916443408,-2.763089859295408,-9.313981806501477,-0.04041813727705654,0.080555662728587,-1.1337541264338864,-0.006413687133247656,0.014078423872760992,-0.164449567056565,0,70,255.0,255.0,255.0
277,13.850000000000001,1.3807589490708485,-2.7590445225311337,-9.370874736920596,-0.04071593767709196,0.08125691980244563,-1.1419563331029159,-0.005498328868169241,0.013971859081584067,-0.16363869970461556,0,70,255.0,255.0,255.0
278,13.9,1.378716660675186,-2.754964256119156,-9.428176764088974,-0.04096797016387346,0.0819528486367454,-1.150117996404348,-0.004582970603090857,0.013865294290407148,-0.16282783235266612,0,70,255.0,255.0,255.0
279,13.950000000000001,1.3766629148530154,-2.7508493264714518,-9.485885860838238,-0.04117423473740105,0.08264344923148635,-1.1582391163381824,-0.0036676123380124407,0.013758729499230224,-0.1620169650007167,0,70,255.0,255.0,255.0
280,14.0,1.3746,-2.7467,-9.544,-0.04133473139767471,0.08332872158666843,-1.1663196929044195,-0.0027522540729341127,0.013652164708053416,-0.16120609764876725,0,70,255.0,255.0,255.0
281,14.05,1.3725291806388384,-2.742516969199132,-9.602517351357063,-0.04151089252250642,0.08398310076105026,-1.1743715431735962,-0.004294190920334162,0.012523002267219214,-0.16086791311828855,0,70,255.0,255.0,255.0
282,14.100000000000001,1.3704476258003766,-2.738302630892596,-9.66143687249692,-0.041764150489708135,0.08458102181339036,-1.1824064842162485,-0.005836127767734211,0.011393839826385012,-0.1605297285878098,0,70,255.0,255.0,255.0
283,14.15,1.368351480642495,-2.7340598079864935,-9.720757717958245,-0.042094505299279834,0.08512248474368875,-1.190424516032377,-0.007378064615134205,0.01026467738555085,-0.1601915440573311,0,70,255.0,255.0,255.0
284,14.200000000000001,1.3662368903230757,-2.7297913233869275,-9.780479042279715,-0.04250195695122155,0.08560748955194544,-1.1984256386219816,-0.008920001462534254,0.009135514944716648,-0.1598533595268524,0,70,255.0,255.0,255.0
285,14.25,1.3641,-2.7255,-9.8406,-0.04298650544553325,0.0860360362381604,-1.206409851985062,-0.010461938309934082,0.008006352503882153,-0.15951517499637546,0,70,255.0,255.0,255.0
286,14.3,1.3619381858003046,-2.721187863908064,-9.901119188070282,-0.04347429263291702,0.08645593422721695,-1.2143437008717275,-0.00904954918541633,0.008789567058379466,-0.15783878047024869,0,70,255.0,255.0,255.0
287,14.350000000000001,1.3597537477276453,-2.7168537538984823,-9.962032973091736,-0.043891460364074895,0.08691499294399836,-1.222193730032087,-0.007637160060898578,0.00957278161287678,-0.1561623859441219,0,70,255.0,255.0,255.0
288,14.4,1.357550216754834,-2.712495711934869,-10.023337164078052,-0.04423800863900687,0.08741321238850462,-1.2299599394661398,-0.006224770936380876,0.010355996167374065,-0.15448599141799518,0,70,255.0,255.0,255.0
289,14.450000000000001,1.3553311238546817,-2.7081117799808365,-10.08502757004291,-0.04451393745771298,0.08795059256073577,-1.2376423291738865,-0.004812381811863123,0.011139210721871379,-0.1528095968918684,0,70,255.0,255.0,255.0
290,14.5,1.3531,-2.7037,-10.1471,-0.04471924682019318,0.08852713346069174,-1.2452408991553265,-0.0033999926873451436,0.011922425276368331,-0.15113320236573102,0,70,255.0,255.0,255.0
291,14.55,1.3508596761599432,-2.69925877516861,-10.209550696361822,-0.04489593694582702,0.08912116233008162,-1.2527816533394884,-0.003667612338008212,0.011838729499226285,-0.15049696500073892,0,70,255.0,255.0,255.0
292,14.600000000000001,1.3486101832890418,-2.6947879535134724,-10.272377635136145,-0.04508600805399401,0.08971100641061439,-1.2602905956554007,-0.00393523198867128,0.011755033722084238,-0.14986072763574682,0,70,255.0,255.0,255.0
293,14.65,1.3463508523381682,-2.69028774427403,-10.335579225729557,-0.04528946014469414,0.09029666570229003,-1.267767726103063,-0.0042028516393343394,0.011671337944942194,-0.1492244902707547,0,70,255.0,255.0,255.0
294,14.700000000000001,1.3440810142581967,-2.6857583566897247,-10.399153877548647,-0.04550629321792744,0.0908781402051086,-1.275213044682476,-0.004470471289997408,0.011587642167800147,-0.1485882529057626,0,70,255.0,255.0,255.0
295,14.75,1.3418,-2.6812,-10.4631,-0.04573650727369389,0.09145542991907005,-1.2826265513936392,-0.004738090940660633,0.011503946390658326,-0.14795201554077053,0,70,255.0,255.0,255.0
296,14.8,1.339507109559922,-2.676613035417494,-10.527416426482437,-0.045981959583773775,0.09201941645245475,-1.290033685770329,-0.005080001462534638,0.0110555149447292,-0.1483333595268128,0,70,255.0,255.0,255.0
297,14.850000000000001,1.3372015191161877,-2.671998432047626,-10.592103686363691,-0.046244507419947366,0.09256098141354299,-1.2974598873463208,-0.005421911984408644,0.010607083498800072,-0.1487147035128551,0,70,255.0,255.0,255.0
298,14.9,1.3348823738924924,-2.6673573109690114,-10.657162733003723,-0.04652415078221464,0.09308012480233475,-1.3049051561216143,-0.0057638225062826365,0.010158652052870962,-0.14909604749889738,0,70,255.0,255.0,255.0
299,14.950000000000001,1.3325488191125316,-2.662690793260264,-10.722594519762506,-0.04682088967057562,0.09357684661883008,-1.3123694920962103,-0.006105733028156642,0.009710220606941834,-0.14947739148493966,0,70,255.0,255.0,255.0
300,15.0,1.3302,-2.658,-10.7884,-0.0471347240850303,0.09405114686302894,-1.319852895270108,-0.006447643550030524,0.009261789161012612,-0.14985873547098372,0,70,255.0,255.0,255.0
301,15.05,1.3278350856003684,-2.6532858831614132,-10.854578797708436,-0.04746422471907774,0.09451317186010094,-1.3272756035791797,-0.006732381811866987,0.009219210721866954,-0.14704959689187933,0,70,255.0,255.0,255.0
302,15.100000000000001,1.3254533402462072,-2.648548718296022,-10.921125219409102,-0.047807962266217,0.09497306793521565,-1.3345578549592962,-0.00701712007370345,0.009176632282721297,-0.14424045831277496,0,70,255.0,255.0,255.0
303,15.15,1.323054052091862,-2.6437886118499243,-10.98803224225555,-0.04816593672644809,0.09543083508837306,-1.3416996494104574,-0.007301858335539904,0.00913405384357564,-0.14143131973367068,0,70,255.0,255.0,255.0
304,15.200000000000001,1.3206365092916776,-2.6390056702692175,-11.055292843401332,-0.048538148099771,0.0958864733195732,-1.3487009869326632,-0.007586596597376366,0.009091475404429982,-0.1386221811545663,0,70,255.0,255.0,255.0
305,15.25,1.3182,-2.6342,-11.1229,-0.048924596386185716,0.09633998262881605,-1.3555618675259136,-0.00787133485921282,0.00904889696528377,-0.13581304257545668,0,70,255.0,255.0,255.0
306,15.3,1.3157445480386039,-2.629371431936851,-11.190848382683821,-0.04928114153991587,0.09680789610714305,-1.3623838999129456,-0.006390471289993028,0.009667642167796062,-0.13706825290582217,0,70,255.0,255.0,255.0
307,15.350000000000001,1.3132731198989829,-2.6245186947682835,-11.259139435999904,-0.049563643515185024,0.09730674684559568,-1.369268692816496,-0.004909607720773237,0.010286387370308354,-0.1383234632361877,0,70,255.0,255.0,255.0
308,15.4,1.3107894177400596,-2.61964024163129,-11.327776297974076,-0.049772102311993194,0.09783653484417389,-1.3762162462365644,-0.003428744151553498,0.010905132572820624,-0.13957867356655315,0,70,255.0,255.0,255.0
309,15.450000000000001,1.3082971437207578,-2.614734525662864,-11.396762106632169,-0.04990651793034037,0.09839726010287772,-1.3832265601731513,-0.0019478805823337072,0.011523877775332916,-0.14083388389691864,0,70,255.0,255.0,255.0
310,15.5,1.3058,-2.6098,-11.4661,-0.049966890370226565,0.09898892262170715,-1.3902996346262562,-0.00046701701311396837,0.012142622977844852,-0.14208909422728055,0,70,255.0,255.0,255.0
311,15.55,1.303300322245216,-2.6048355890911803,-11.535791671556288,-0.050035209121258445,0.09958324371132672,-1.3973487967690597,-0.002265733028161302,0.01163022060693743,-0.13987739148485898,0,70,255.0,255.0,255.0
312,15.600000000000001,1.3007949801578615,-2.5998421026308427,-11.60583303659129,-0.05019346367304269,0.1001519446824009,-1.4042873737747423,-0.004064449043208636,0.011117818236030004,-0.1376656887424374,0,70,255.0,255.0,255.0
313,15.65,1.2982794769478994,-2.5948208216249156,-11.676218565848144,-0.05044165402557931,0.1006950255349297,-1.4111153656433035,-0.005863165058255905,0.010605415865122599,-0.13545398600001587,0,70,255.0,255.0,255.0
314,15.700000000000001,1.295749315825291,-2.5897730270793256,-11.74694273007,-0.05077978017886829,0.10121248626891316,-1.4178327723747437,-0.007661881073303239,0.010093013494215175,-0.1332422832575943,0,70,255.0,255.0,255.0
315,15.75,1.2932,-2.5847,-11.818,-0.05120784213290962,0.10170432688435124,-1.4244395939690626,-0.009460597088350453,0.009580611123307436,-0.13103058051516747,0,70,255.0,255.0,255.0
316,15.8,1.2906285629805319,-2.579603011698428,-11.88938573109103,-0.05163402197505269,0.1021711290475449,-1.4309889130108064,-0.007586596597372082,0.00909147540443808,-0.1309421811545807,0,70,255.0,255.0,255.0
317,15.850000000000001,1.2880381594695705,-2.5744832947083447,-11.96109881763495,-0.051966501792646835,0.10261347442479506,-1.437533812084521,-0.00571259610639371,0.008602339685568724,-0.13085378179399393,0,70,255.0,255.0,255.0
318,15.9,1.285433474468343,-2.5693420718690474,-12.03313903863335,-0.05220528158569206,0.10303136301610176,-1.4440742911902056,-0.0038385956154154055,0.008113203966699387,-0.13076538243340713,0,70,255.0,255.0,255.0
319,15.950000000000001,1.282819192978077,-2.5641805660198336,-12.105506173087836,-0.05235036135418837,0.10342479482146501,-1.4506103503278616,-0.001964595124437034,0.00762406824783003,-0.13067698307282036,0,70,255.0,255.0,255.0
320,16.0,1.2802,-2.559,-12.1782,-0.052401741098135765,0.10379376984088476,-1.4571419894974875,-9.059463345872931e-05,0.007134932528960247,-0.1305885837122318,0,70,255.0,255.0,255.0
321,16.05,1.2775790258326558,-2.5538011641151086,-12.251219804079593,-0.05245270297853057,0.10416424009849232,-1.4636395511877172,-0.0019478805823337762,0.007683877775341549,-0.12931388389694545,0,70,255.0,255.0,255.0
322,16.1,1.2749531819638562,-2.548583118535779,-12.32456289286893,-0.05259652915636915,0.10456215761841892,-1.4700733778871824,-0.003805166531208823,0.008232823021722851,-0.1280391840816591,0,70,255.0,255.0,255.0
323,16.150000000000002,1.2723178251787282,-2.5433444908988943,-12.398226079618468,-0.05283321963165147,0.10498752240066461,-1.476443469595883,-0.0056624524800838695,0.008781768268104152,-0.12676448426637274,0,70,255.0,255.0,255.0
324,16.2,1.2696683122624002,-2.5380839088413407,-12.472206177578666,-0.053162774404377514,0.10544033444522931,-1.4827498263138192,-0.007519738428958785,0.009330713514485415,-0.12548978445108647,0,70,255.0,255.0,255.0
325,16.25,1.267,-2.5328,-12.5465,-0.05358519347454734,0.10592059375211313,-1.4889924480409917,-0.009377024377833554,0.009879658760866938,-0.12421508463580544,0,70,255.0,255.0,255.0
326,16.3,1.2643097336888438,-2.5274915318411377,-12.621104652590605,-0.05401116611082576,0.10641991055848998,-1.4951888822383257,-0.007661881073302976,0.010093013494206774,-0.12364228325754673,0,70,255.0,255.0,255.0
327,16.35,1.2616003126750044,-2.5221578311485398,-12.696018410889353,-0.054351381581877654,0.10692989510153382,-1.5013566763667467,-0.005946737768772399,0.01030636822754661,-0.12306948187928801,0,70,255.0,255.0,255.0
328,16.400000000000002,1.258876024816743,-2.516798364535373,-12.771239842892799,-0.05460583988770301,0.10745054738124465,-1.5074958304262545,-0.004231594464241821,0.010519722960886444,-0.12249668050102931,0,70,255.0,255.0,255.0
329,16.45,1.2561411579723214,-2.511412598614804,-12.846767516597493,-0.05477454102830183,0.10798186739762244,-1.5136063444168493,-0.002516451159711366,0.010733077694226264,-0.12192387912277064,0,70,255.0,255.0,255.0
330,16.5,1.2534,-2.506,-12.9226,-0.05485748500367413,0.10852385515066726,-1.5196882183385312,-0.0008013078551806219,0.010946432427565878,-0.12135107774450304,0,70,255.0,255.0,255.0
331,16.55,1.2506556394119683,-2.5005607085203403,-12.998735985557994,-0.054926632578164575,0.10903611766755184,-1.5257489198589655,-0.001964595124437113,0.009544068247816707,-0.12107698307287151,0,70,255.0,255.0,255.0
332,16.6,1.247906367336126,-2.4950975568700606,-13.07517466357367,-0.05505394451611784,0.10947826197544894,-1.5317959166458186,-0.0031278823936936036,0.008141704068067539,-0.12080288840123997,0,70,255.0,255.0,255.0
333,16.650000000000002,1.2451492755542988,-2.4896140509596116,-13.151915348810352,-0.05523942081753394,0.10985028807435859,-1.53782920869909,-0.004291169662950095,0.00673933988831837,-0.12052879372960844,0,70,255.0,255.0,255.0
334,16.7,1.2423814558483148,-2.484113696699442,-13.228957356031351,-0.05548306148241284,0.11015219596428077,-1.543848796018779,-0.005454456932206503,0.0053369757085693,-0.12025469905797692,0,70,255.0,255.0,255.0
335,16.75,1.2396,-2.4786,-13.3063,-0.05578486651075458,0.1103839856452155,-1.549854678604887,-0.006617744201462772,0.003934611528819354,-0.11998060438633296,0,70,255.0,255.0,255.0
336,16.8,1.2368029086632821,-2.473075234077501,-13.383941805177422,-0.05609030357651523,0.11061961877129833,-1.5557994383258222,-0.0055997384289631375,0.0054907135144942835,-0.11780978445107128,0,70,255.0,255.0,255.0
337,16.85,1.233991817980492,-2.4675367413712155,-13.461878134815974,-0.05634484035365091,0.11093305699666493,-1.5616356570499943,-0.004581732656463504,0.007046815500169212,-0.1156389645158096,0,70,255.0,255.0,255.0
338,16.900000000000002,1.2311692729660608,-2.4619806316261794,-13.540103561865811,-0.05654847684216159,0.11132430032131527,-1.5673633347774034,-0.00356372688396387,0.00860291748584414,-0.11346814458054792,0,70,255.0,255.0,255.0
339,16.95,1.2283378186344198,-2.45640301458743,-13.618612659277096,-0.05670121304204729,0.11179334874524932,-1.572982471508049,-0.002545721111464308,0.010159019471518961,-0.1112973246452864,0,70,255.0,255.0,255.0
340,17.0,1.2255,-2.4508,-13.6974,-0.05680304895330801,0.11234020226846715,-1.5784930672419315,-0.0015277153389648968,0.011715121457193667,-0.10912650471002294,0,70,255.0,255.0,255.0
341,17.05,1.2226575259349024,-2.4451687551696564,-13.776461593732323,-0.05690415311577481,0.11290140724725288,-1.5839813268377505,-0.0025164511597071254,0.010733077694234757,-0.1104038791227275,0,70,255.0,255.0,255.0
342,17.1,1.2198087607419053,-2.4395106776450772,-13.855799197162455,-0.057054694069278725,0.11341351003789064,-1.5895334551542044,-0.0035051869804493545,0.009751033931275849,-0.11168125353543207,0,70,255.0,255.0,255.0
343,17.150000000000002,1.216951232581457,-2.43382822253567,-13.935416003726424,-0.057254671813819755,0.11387651064038047,-1.595149452191294,-0.004493922801191583,0.00876899016831694,-0.11295862794813663,0,70,255.0,255.0,255.0
344,17.2,1.214082469614006,-2.428123844950842,-14.015315206860258,-0.057504086349397875,0.11429040905472232,-1.6008293179490178,-0.005482658621933742,0.0077869464053581,-0.11423600236084111,0,70,255.0,255.0,255.0
345,17.25,1.2112,-2.4224,-14.0955,-0.05780293767601312,0.11465520528091624,-1.6065730524273778,-0.006471394442676082,0.006804902642398858,-0.115513376773551,0,70,255.0,255.0,255.0
346,17.3,1.2083021875971087,-2.4166585452438736,-14.175971819893288,-0.058101083960385186,0.11500675223969033,-1.6122752543231673,-0.005454456932206416,0.007256975708564413,-0.11257469905802427,0,70,255.0,255.0,255.0
347,17.35,1.2053907390518868,-2.4108989480484757,-14.256725076534222,-0.05834838336923377,0.1153809028517727,-1.6178305223331804,-0.004437519421736751,0.007709048774729967,-0.10963602134249753,0,70,255.0,255.0,255.0
348,17.400000000000002,1.2024681967081108,-2.4051200782311413,-14.337752423228512,-0.05854483590255887,0.11577765711716334,-1.6232388564574172,-0.0034205819112670855,0.008161121840895522,-0.1066973436269708,0,70,255.0,255.0,255.0
349,17.45,1.1995371029095565,-2.3993208056092046,-14.419046513281865,-0.058690441560360476,0.11619701503586223,-1.6285002566958773,-0.0024036444007974923,0.008613194907061044,-0.10375866591144427,0,70,255.0,255.0,255.0
350,17.5,1.1966,-2.3935,-14.5006,-0.058785200342638615,0.11663897660786943,-1.6336147230485616,-0.0013867068903279933,0.009065267973225932,-0.10081998819591931,0,70,255.0,255.0,255.0
351,17.55,1.193658523676663,-2.3876570638548493,-14.58240712669453,-0.05888351104268353,0.11707158379398795,-1.6386776558695915,-0.0025457211114686736,0.00823901947151463,-0.10169732464527145,0,70,255.0,255.0,255.0
352,17.6,1.1907106830505474,-2.381793530161019,-14.66446849670067,-0.059039772453785486,0.1174628785550209,-1.643784455513089,-0.0037047353326093544,0.007412770969803327,-0.10257466109462358,0,70,255.0,255.0,255.0
353,17.650000000000002,1.1877535805861,-2.3759114645397648,-14.74678630335955,-0.059253984575944475,0.11781286089096829,-1.648935121979054,-0.004863749553750034,0.006586522468092024,-0.10345199754397573,0,70,255.0,255.0,255.0
354,17.7,1.184784318747769,-2.370012932612341,-14.82936274001228,-0.05952614740916048,0.11812153080183009,-1.6541296552674862,-0.006022763774890633,0.005760273966380781,-0.1043293339933278,0,70,255.0,255.0,255.0
355,17.75,1.1818,-2.3641,-14.9122,-0.05985626095343353,0.11838888828760637,-1.6593680553783863,-0.007181777996030869,0.004934025464669811,-0.10520667044268173,0,70,255.0,255.0,255.0
356,17.8,1.1787989176962392,-2.35817399933673,-14.995298873328606,-0.06017287186888253,0.11865891258435718,-1.6645661221984736,-0.005482658621929302,0.005866946405362574,-0.10271600236080435,0,70,255.0,255.0,255.0
357,17.85,1.1757841287459234,-2.3522333313074473,-15.078654536663116,-0.06040452681562647,0.11897558292814263,-1.6696396556144668,-0.0037835392478277347,0.0067998673460553365,-0.10022533427892696,0,70,255.0,255.0,255.0
358,17.900000000000002,1.1727598809474882,-2.3462756636097986,-15.16226076333332,-0.060551225793665314,0.11933889931896272,-1.6745886556263663,-0.0020844198737261675,0.0077327882867481,-0.09773466619704958,0,70,255.0,255.0,255.0
359,17.95,1.1697304220993685,-2.3402986639414336,-15.246111326669013,-0.06061296880299909,0.11974886175681743,-1.6794131222341715,-0.0003853004996247208,0.008665709227440796,-0.09524399811517238,0,70,255.0,255.0,255.0
360,18.0,1.1667,-2.3343,-15.3302,-0.06058975584362778,0.12020547024170679,-1.6841130554378834,0.0013138188744770685,0.00959863016813356,-0.09275333003329855,0,70,255.0,255.0,255.0
361,18.05,1.1636714055383803,-2.32827813879823,-15.414522179991053,-0.060569001481785796,0.12066076586858665,-1.6887858553365034,-0.00048364440079781473,0.008613194907060704,-0.09415866591150357,0,70,255.0,255.0,255.0
362,18.1,1.1606416019657586,-2.322234744609192,-15.499079756646884,-0.06063812028370757,0.12106678973241287,-1.6935289220290337,-0.002281107676072698,0.007627759645987847,-0.09556400178970859,0,70,255.0,255.0,255.0
363,18.150000000000002,1.157606095623947,-2.316172281021039,-15.583876243307191,-0.060797112249393076,0.12142354183318545,-1.6983422555154744,-0.004078570951347581,0.00664232438491499,-0.0969693376679136,0,70,255.0,255.0,255.0
364,18.2,1.154560392854757,-2.3100932116219246,-15.668915153311659,-0.061045977378842306,0.12173102217090437,-1.703225855795825,-0.005876034226622337,0.005656889123842205,-0.09837467354611851,0,70,255.0,255.0,255.0
365,18.25,1.1515,-2.304,-15.7542,-0.06138471567205529,0.12198923074556965,-1.708179722870086,-0.007673497501897053,0.00467145386276846,-0.09978000942432175,0,70,255.0,255.0,255.0
366,18.3,1.1484218601502392,-2.2978942454703497,-15.83973240670719,-0.06172712220397509,0.12225002394129816,-1.7130904564555267,-0.006022763774894723,0.005760273966372103,-0.09664933399331085,0,70,255.0,255.0,255.0
367,18.35,1.1453286633910413,-2.291774090255784,-15.925506436749364,-0.061986992049544776,0.12256525814220687,-1.7178446562694172,-0.004372030047892392,0.006849094069975746,-0.09351865856229997,0,70,255.0,255.0,255.0
368,18.400000000000002,1.142224536556724,-2.2856368123060427,-16.01151426343794,-0.06216432520876434,0.12293493334829576,-1.7224423223117569,-0.0027212963208900617,0.007937914173579388,-0.09038798313128908,0,70,255.0,255.0,255.0
369,18.45,1.1391136064816045,-2.2794796895708678,-16.097748060084342,-0.06225912168163378,0.1233590495595648,-1.726883454582546,-0.0010705625938878484,0.009026734277182952,-0.08725730770027842,0,70,255.0,255.0,255.0
370,18.5,1.136,-2.2733,-16.1842,-0.062271381468153114,0.12383760677601402,-1.7311680530817843,0.0005801711331148152,0.010115554380785818,-0.0841266322692622,0,70,255.0,255.0,255.0
371,18.55,1.1328867538606617,-2.2670960793203707,-16.270864193180195,-0.06226650970231565,0.12430713836621969,-1.7354123188413948,-0.00038530049961599516,0.008665709227440723,-0.08564399811516135,0,70,255.0,255.0,255.0
372,18.6,1.1297725444700746,-2.2608704943676723,-16.35774249635568,-0.06230991151811471,0.1247041776987581,-1.7397324528933007,-0.0013507721323468055,0.007215864074095627,-0.08716136396106049,0,70,255.0,255.0,255.0
373,18.650000000000002,1.126654958149156,-2.2546268697547887,-16.44483870294107,-0.062401586915550325,0.12502872477362925,-1.7441284552375012,-0.002316243765077616,0.005766018920750531,-0.08867872980695964,0,70,255.0,255.0,255.0
374,18.7,1.1235315812188253,-2.248368830094604,-16.532156606350966,-0.06254153589462247,0.12528077959083317,-1.7486003258739964,-0.0032817153978083576,0.004316173767405539,-0.09019609565285866,0,70,255.0,255.0,255.0
375,18.75,1.1204,-2.2421,-16.6197,-0.06272975845533114,0.1254603421503698,-1.753148064802787,-0.004247187030539279,0.0028663286140606647,-0.09171346149875959,0,70,255.0,255.0,255.0
376,18.8,1.1172583244071135,-2.235823037248168,-16.707470820572034,-0.0629348389867603,0.1256254225938177,-1.7576602681789089,-0.003956034226626911,0.003736889123855093,-0.08877467354610569,0,70,255.0,255.0,255.0
377,18.85,1.1141067587286606,-2.2295367322735267,-16.795463577827935,-0.06312536187799385,0.1258340310627553,-1.7620255321573979,-0.0036648814227145414,0.004607449633649521,-0.08583588559345179,0,70,255.0,255.0,255.0
378,18.900000000000002,1.1109460308466508,-2.223238908674801,-16.883670924797816,-0.06330132712903176,0.12608616755718266,-1.7662438567382541,-0.003373728618802173,0.00547801014344395,-0.0828970976407979,0,70,255.0,255.0,255.0
379,18.95,1.1077768686430942,-2.216927390050717,-16.972085514511797,-0.06346273473987404,0.1263818320770997,-1.7703152419214774,-0.0030825758148898246,0.006348570653238315,-0.07995830968814421,0,70,255.0,255.0,255.0
380,19.0,1.1046,-2.2106,-17.0607,-0.06360958471052075,0.1267210246225065,-1.7742396877070683,-0.0027914230109775673,0.007219131163032966,-0.07701952173549387,0,70,255.0,255.0,255.0
381,19.05,1.101415948510884,-2.2042549716869564,-17.149508524531676,-0.06375413435064249,0.1270791712585118,-1.7781066084429613,-0.002990562593891702,0.0071067342771784486,-0.07765730770023041,0,70,255.0,255.0,255.0
382,19.1,1.0982244206152834,-2.19789217653822,-17.238511192332606,-0.06390864096990992,0.12743169805022436,-1.7820054184770915,-0.0031897021768058365,0.006994337391323931,-0.07829509366496695,0,70,255.0,255.0,255.0
383,19.150000000000002,1.0950249184642404,-2.1915118955460056,-17.327709597867692,-0.06407310456832307,0.12777860499764418,-1.7859361178094582,-0.003388841759719971,0.006881940505469414,-0.07893287962970351,0,70,255.0,255.0,255.0
384,19.200000000000003,1.0918169442087986,-2.1851144097025266,-17.417105335601853,-0.06424752514588193,0.12811989210077132,-1.789898706440062,-0.0035879813426341056,0.006769543619614898,-0.07957066559444005,0,70,255.0,255.0,255.0
385,19.25,1.0886,-2.1787,-17.5067,-0.06443190270258649,0.12845555935960568,-1.793893184368902,-0.0037871209255485594,0.006657146733761277,-0.080208451559173,0,70,255.0,255.0,255.0
386,19.3,1.0853738815493503,-2.1722690760040053,-17.596494281301265,-0.06460862361067031,0.12877789237213474,-1.7978652980492054,-0.003281715397804123,0.006236173767401437,-0.07867609565295337,0,70,255.0,255.0,255.0
387,19.35,1.082139558810206,-2.1658225615735915,-17.686485252841667,-0.0647600742423669,0.12907917673634584,-1.8017607939341975,-0.002776309870059687,0.005815200801041597,-0.07714373974673375,0,70,255.0,255.0,255.0
388,19.400000000000002,1.0788982952963866,-2.1593615091411755,-17.77666908373143,-0.06488625459767629,0.12935941245223892,-1.8055796720238788,-0.0022709043423152506,0.0053942278346817574,-0.07561138384051411,0,70,255.0,255.0,255.0
389,19.450000000000003,1.0756513545217115,-2.1528869711391727,-17.867041943080803,-0.06498716467659843,0.129618599519814,-1.809321932318249,-0.001765498814570814,0.004973254868321918,-0.07407902793429448,0,70,255.0,255.0,255.0
390,19.5,1.0724,-2.1464,-17.9576,-0.06506280447913337,0.12985673793907113,-1.8129875748173079,-0.0012600932868265247,0.004552281901963218,-0.07254667202806964,0,70,255.0,255.0,255.0
391,19.55,1.069145325291715,-2.1399015242970227,-18.04833995026326,-0.06512337120667629,0.1300812592529513,-1.8166081993602137,-0.0011625758148900531,0.004428570653243156,-0.07227830968816314,0,70,255.0,255.0,255.0
392,19.6,1.0658877441438923,-2.133391977167412,-18.13926059630074,-0.06517906206062239,0.13029959500439545,-1.8202154057861244,-0.0010650583429535816,0.004304859404523095,-0.07200994734825662,0,70,255.0,255.0,255.0
393,19.650000000000002,1.0626275003502126,-2.12687166788929,-18.230361267206593,-0.06522987704097165,0.1305117451934036,-1.8238091940950394,-0.0009675408710171099,0.004181148155803033,-0.07174158500835012,0,70,255.0,255.0,255.0
394,19.700000000000003,1.059364837704355,-2.120340905740778,-18.321641292074965,-0.0652758161477241,0.13071770981997577,-1.8273895642869595,-0.0008700233990806383,0.0040574369070829714,-0.07147322266844361,0,70,255.0,255.0,255.0
395,19.75,1.0561,-2.1138,-18.4131,-0.0653168793808797,0.1309174888841119,-1.8309565163618837,-0.0007725059271440626,0.003933725658362919,-0.07120486032853357,0,70,255.0,255.0,255.0
396,19.8,1.0528328172837906,-2.107248826807904,-18.5047363176457,-0.06537789156262416,0.13113707061606106,-1.8344859045099569,-0.0016679813426345187,0.004849543619602472,-0.06997066559439238,0,70,255.0,255.0,255.0
397,19.85,1.0495614646142246,-2.1006855297567593,-18.596547561955386,-0.06548367751514315,0.13140244324607214,-1.8379535829213232,-0.0025634567581249747,0.005765361580842025,-0.0687364708602512,0,70,255.0,255.0,255.0
398,19.900000000000002,1.0462837033027632,-2.0941078193016622,-18.688530647442224,-0.06563423723843666,0.13171360677414526,-1.841359551595982,-0.0034589321736154303,0.006681179542081578,-0.06750227612611001,0,70,255.0,255.0,255.0
399,19.950000000000003,1.0429972946608677,-2.08751340589771,-18.780682488619373,-0.0658295707325047,0.13207056120028032,-1.8447038105339342,-0.004354407589105887,0.007596997503321131,-0.06626808139196882,0,70,255.0,255.0,255.0
400,20.0,1.0397,-2.0809,-18.873,-0.06606967799734724,0.1324733065244773,-1.8479863597351789,-0.005249883004596501,0.008512815464559953,-0.06503388665782417,0,70,255.0,255.0,255.0
401,20.05,1.036390605573123,-2.0742663684713607,-18.965480379153952,-0.06629306254282653,0.13285845828279969,-1.8512241825999807,-0.0036854988145750946,0.006893254868334941,-0.06447902793424481,0,70,255.0,255.0,255.0
402,20.1,1.0330719973992089,-2.06761550380555,-19.058121955877734,-0.06643822787880475,0.13316263201131082,-1.8544342625286034,-0.002121114624553688,0.005273694272109929,-0.06392416921066546,0,70,255.0,255.0,255.0
403,20.150000000000002,1.029748086438734,-2.060951454904059,-19.150923343024544,-0.06650517400528191,0.1333858277100107,-1.8576165995210472,-0.0005567304345322818,0.003654133675884916,-0.06336931048708612,0,70,255.0,255.0,255.0
404,20.200000000000003,1.0264227836521724,-2.0542782706683793,-19.243883153447566,-0.06649390092225797,0.13352804537889928,-1.8607711935773121,0.0010076537554891242,0.002034573079659904,-0.06281445176350677,0,70,255.0,255.0,255.0
405,20.25,1.0231,-2.0476,-19.337,-0.066404408629733,0.13358928501797668,-1.8638980446973978,0.002572037945510419,0.00041501248343500663,-0.062259593039916794,0,70,255.0,255.0,255.0
406,20.3,1.0197823604237182,-2.040919299306654,-19.430272565738516,-0.06631385826607215,0.13365309625273974,-1.8670013650901074,0.0010499766009235418,0.002137436907087611,-0.06187322266846102,0,70,255.0,255.0,255.0
407,20.35,1.0164673457889388,-2.03423325502104,-19.523699814533703,-0.06629941096964065,0.13380302870868546,-1.8700853669642439,-0.00047208474366333556,0.003859861330740215,-0.06148685229700525,0,70,255.0,255.0,255.0
408,20.400000000000002,1.0131511509423001,-2.0275375610820987,-19.617280780459634,-0.06636106674043848,0.13403908238581375,-1.873150050319808,-0.001994146088250213,0.005582285754392819,-0.06110048192554947,0,70,255.0,255.0,255.0
409,20.450000000000003,1.009829970730441,-2.0208279114287713,-19.71101449759038,-0.06649882557846566,0.13436125728412474,-1.876195415156799,-0.0035162074328370903,0.007304710178045424,-0.060714111554093696,0,70,255.0,255.0,255.0
410,20.5,1.0065,-2.0141,-19.8049,-0.06671268748372217,0.1347695534036183,-1.879221461475217,-0.005038268777423749,0.009027134601697462,-0.06032774118262907,0,70,255.0,255.0,255.0
411,20.55,1.0031583527320038,-2.0073508343020245,-19.89893575789199,-0.06694750439288531,0.1351851567062435,-1.8821943570395825,-0.004354407589101673,0.007596997503311955,-0.058588081391984986,0,70,255.0,255.0,255.0
412,20.6,0.9998058194450349,-2.0005826761102905,-19.993117985987467,-0.06714812824263233,0.1355292531539495,-1.8850802696144155,-0.003670546400779598,0.006166860404926448,-0.05684842160134091,0,70,255.0,255.0,255.0
413,20.650000000000002,0.9964441097920641,-1.9937991007675446,-20.087442335136945,-0.06731455903296327,0.13580184274673618,-1.8878791991997164,-0.0029866852124575223,0.004736723306540941,-0.05510876181069683,0,70,255.0,255.0,255.0
414,20.700000000000003,0.9930749334260621,-1.9870036836165323,-20.181904456190953,-0.0674467967638781,0.1360029254846036,-1.8905911457954854,-0.002302824024135447,0.003306586208155434,-0.05336910202005275,0,70,255.0,255.0,255.0
415,20.75,0.9897,-1.9802,-20.2765,-0.0675448414353768,0.1361325013675517,-1.8932161094017215,-0.001618962835813087,0.0018764491097698066,-0.05162944222939991,0,70,255.0,255.0,255.0
416,20.8,0.9863210286482661,-1.9733909634852478,-20.371225202693513,-0.06760812416238506,0.13623027692228745,-1.8957892067515447,-0.0009123462445170937,0.0020345730796601314,-0.05129445176352867,0,70,255.0,255.0,255.0
417,20.85,0.9829397764309209,-1.966576840537796,-20.466078641516436,-0.0676360760598285,0.1363359586755177,-1.8983455545780745,-0.00020572965322110046,0.002192697049550456,-0.05095946129765742,0,70,255.0,255.0,255.0
418,20.900000000000002,0.9795580098894425,-1.9597572358477207,-20.561059478992597,-0.06762869712770717,0.1364495466272425,-1.9008851528813104,0.0005008869380748928,0.002350821019440781,-0.05062447083178617,0,70,255.0,255.0,255.0
419,20.950000000000003,0.9761774955653094,-1.9529317541050966,-20.656166877645845,-0.06758598736602102,0.13657104077746182,-1.9034080016612531,0.001207503529370886,0.0025089449893311057,-0.05028948036591492,0,70,255.0,255.0,255.0
420,21.0,0.9728,-1.9461,-20.7514,-0.06750794677477008,0.1367004411261756,-1.905914100917902,0.0019141201206674952,0.002667068959221419,-0.0499544899000437,0,70,255.0,255.0,255.0
421,21.05,0.9694263326749316,-1.9392613117569841,-20.84675783133396,-0.06745199895757432,0.13685373560460726,-1.9083928159542543,0.0003237925671628612,0.003464710178045627,-0.0491941115540495,0,70,255.0,255.0,255.0
422,21.1,0.9660534748312812,-1.9324139617385232,-20.942238647946805,-0.0674755675180538,0.13704691214398018,-1.9108335120733069,-0.0012665349863417727,0.004262351396869835,-0.04843373320805531,0,70,255.0,255.0,255.0
423,21.150000000000002,0.9626774506501649,-1.9255559558415702,-21.037840548892675,-0.0675786524562085,0.13727997074429427,-1.9132361892750598,-0.0028568625398464062,0.005059992615694043,-0.04767335486206111,0,70,255.0,255.0,255.0
424,21.200000000000003,0.959294284312699,-1.9186852999630781,-21.133561633225693,-0.06776125377203844,0.1375529114055496,-1.9156008475595132,-0.004447190093351041,0.005857633834518251,-0.04691297651606692,0,70,255.0,255.0,255.0
425,21.25,0.9559,-1.9118,-21.2294,-0.06802337146554358,0.13786573412774605,-1.9179274869266665,-0.00603751764685545,0.00665527505334218,-0.04615259817007633,0,70,255.0,255.0,255.0
426,21.3,0.952492040652007,-1.9048989894868147,-21.325353871970652,-0.06827988000731829,0.13816278065928347,-1.92022352943142,-0.004222824024133072,0.005226586208155106,-0.04568910202006755,0,70,255.0,255.0,255.0
427,21.35,0.9490735242439537,-1.897984912508109,-21.42142196669635,-0.06844565386795688,0.13838839274856157,-1.9224963971286733,-0.0024081304014106947,0.0037978973629680317,-0.045225605870058756,0,70,255.0,255.0,255.0
428,21.400000000000002,0.9456489875098968,-1.891061340785996,-21.51760312543673,-0.06852069304745936,0.13854257039558032,-1.9247460900184261,-0.0005934367786883171,0.0023692085177809573,-0.04476210972004997,0,70,255.0,255.0,255.0
429,21.450000000000003,0.9422229671838932,-1.8841318460425884,-21.613896189451406,-0.06850499754582572,0.13862531360033967,-1.9269726081006784,0.001221256844034061,0.0009405196725938833,-0.04429861357004119,0,70,255.0,255.0,255.0
430,21.5,0.9388,-1.8772,-21.7103,-0.06839856736305598,0.13863662236283966,-1.9291759513754303,0.0030359504667564208,-0.0004881691725933113,-0.04383511742003776,0,70,255.0,255.0,255.0
431,21.55,0.93538310471704,-1.8702683302957561,-21.806813080783442,-0.06829248101315279,0.13863914175825812,-1.9313370663200795,0.0012075035293711751,0.0005889449893314122,-0.04260948036593318,0,70,255.0,255.0,255.0
432,21.6,0.9319692281929034,-1.863335188229039,-21.9034326852678,-0.06827781701011885,0.1386955168617728,-1.9334368994120237,-0.0006209434080140705,0.0016660591512561358,-0.041383843311828594,0,70,255.0,255.0,255.0
433,21.650000000000002,0.9285537993102468,-1.8563978810144437,-22.000155749360438,-0.0683545753539542,0.13880574767338374,-1.9354754506512626,-0.002449390345399316,0.002743173313180859,-0.04015820625772401,0,70,255.0,255.0,255.0
434,21.700000000000003,0.9251322469517267,-1.8494537158665656,-22.096979208968715,-0.0685227560446588,0.1389698341930909,-1.937452720037796,-0.004277837282784562,0.003820287475105583,-0.03893256920361943,0,70,255.0,255.0,255.0
435,21.75,0.9217,-1.8425,-22.1939,-0.06878235908223264,0.13918777642089428,-1.9393687075716244,-0.0061062842201692336,0.00489740163703023,-0.037706932149511374,0,70,255.0,255.0,255.0
436,21.8,0.9182539404798327,-1.8355348893301597,-22.29091540489559,-0.06904619594007064,0.13940865230768298,-1.9412442052882626,-0.00444719009335066,0.003937633834518226,-0.03731297651602005,0,70,255.0,255.0,255.0
437,21.85,0.9147967629844318,-1.8285599345757335,-22.388024092232467,-0.06922707809156772,0.13958153980434612,-1.9431000052232266,-0.0027880959665320866,0.0029778660320062215,-0.03691902088252873,0,70,255.0,255.0,255.0
438,21.900000000000002,0.9113326152491148,-1.8215775351562273,-22.48522507712155,-0.06932500553672385,0.1397064389108836,-1.9449361073765157,-0.0011290018397135133,0.0020180982294942173,-0.03652506524903741,0,70,255.0,255.0,255.0
439,21.950000000000003,0.9078656450091984,-1.8145900904911472,-22.58251737467376,-0.06933997827553906,0.13978334962729552,-1.9467525117481301,0.0005300922871050604,0.0010583304269822136,-0.03613110961554609,0,70,255.0,255.0,255.0
440,22.0,0.9044,-1.8076,-22.6799,-0.06927199630801335,0.13981227195358187,-1.9485492183380702,0.0021891864139239603,9.856262446961139e-05,-0.03573715398204769,0,70,255.0,255.0,255.0
441,22.05,0.9009387333636293,-1.8006089123836035,-22.77737169963421,-0.0691867352265644,0.13983824901100855,-1.9503101125268731,0.0012212568440340106,0.0009405196725976181,-0.03469861357006464,0,70,255.0,255.0,255.0
442,22.1,0.8974805198693685,-1.7936154734680256,-22.874930145802345,-0.06914987062360996,0.13990632392084162,-1.9520190796950765,0.000253327274144061,0.0017824767207256249,-0.03366007315808159,0,70,255.0,255.0,255.0
443,22.150000000000002,0.8940229396932933,-1.786617578360646,-22.972572742153375,-0.06916140249915,0.1400164966830811,-1.953676119842681,-0.0007146022957458887,0.0026244337688536316,-0.03262153274609854,0,70,255.0,255.0,255.0
444,22.200000000000003,0.8905635730114786,-1.7796131221688436,-23.070296892336277,-0.06922133085318455,0.14016876729772698,-1.9552812329696867,-0.0016825318656358383,0.0034663908169816383,-0.03158299233411549,0,70,255.0,255.0,255.0
445,22.25,0.8871,-1.7726,-23.1681,-0.06932965568571359,0.14036313576477927,-1.956834419076093,-0.0026504614355258305,0.004308347865109585,-0.03054445192212718,0,70,255.0,255.0,255.0
446,22.3,0.8836303260656502,-1.7655766611354253,-23.265979396567577,-0.06945486315367135,0.14056635164828454,-1.958331344604237,-0.0023578372827845542,0.003820287475101385,-0.029332569203638654,0,70,255.0,255.0,255.0
447,22.35,0.8801547575380934,-1.7585437715521632,-23.363932124558158,-0.06956543941399206,0.1407451645122894,-1.9597676759964568,-0.002065213130043278,0.003332227085093184,-0.028120686485150124,0,70,255.0,255.0,255.0
448,22.400000000000002,0.8766740259777115,-1.751502551401188,-23.461955154264956,-0.06966138446667568,0.14089957435679387,-1.961143413252752,-0.0017725889773020018,0.0028441666950849835,-0.026908803766661597,0,70,255.0,255.0,255.0
449,22.450000000000003,0.8731888629448863,-1.744454220833475,-23.56004545598117,-0.06974269831172224,0.1410295811817979,-1.962458556373123,-0.0014799648245607255,0.0023561063050767826,-0.025696921048173067,0,70,255.0,255.0,255.0
450,22.5,0.8697,-1.7374,-23.6582,-0.06980938094913174,0.14113518498730154,-1.9637131053575694,-0.001187340671819137,0.0018680459150686168,-0.024485038329677522,0,70,255.0,255.0,255.0
451,22.55,0.8662079623737698,-1.7303412430746945,-23.756416314095496,-0.06987381215874963,0.1412083443958528,-1.9649405090561987,-0.0013899077128966904,0.0010583304269821234,-0.02461110961550013,0,70,255.0,255.0,255.0
452,22.6,0.8627124499782574,-1.7232798403233212,-23.854694155965028,-0.06994837172042141,0.14124101802999975,-1.9661742163191194,-0.0015924747539742437,0.00024861493889562973,-0.024737180901322733,0,70,255.0,255.0,255.0
453,22.650000000000002,0.85921295639586,-1.7162178160346009,-23.953033840786816,-0.07003305963414706,0.14123320588974236,-1.967414227146331,-0.0017950417950517968,-0.0005611005491908639,-0.02486325218714534,0,70,255.0,255.0,255.0
454,22.700000000000003,0.8557089752089749,-1.7091571944972537,-24.05143568373907,-0.07012787589992658,0.14118490797508068,-1.968660541537834,-0.0019976088361293503,-0.0013708160372773574,-0.024989323472967947,0,70,255.0,255.0,255.0
455,22.75,0.8522,-1.7021,-24.1499,-0.07023282051775999,0.14109612428601465,-1.9699131594936277,-0.002200175877207111,-0.0021805315253637936,-0.025115394758774556,0,70,255.0,255.0,255.0
456,22.8,0.8486858244392702,-1.6950471665657965,-24.248426547050457,-0.07032988821133102,0.1410322707683051,-1.9711386191709503,-0.001682531865633911,-0.00037360918301796104,-0.023902992334128452,0,70,255.0,255.0,255.0
457,22.85,0.8451674425488765,-1.6879952671545504,-24.34701285158174,-0.07040107370432337,0.14105876336771284,-1.9723034587270405,-0.0011648878540607107,0.0014333131593278715,-0.022690589909482348,0,70,255.0,255.0,255.0
458,22.900000000000002,0.8416461484388474,-1.6809397844604064,-24.445655882587808,-0.07044637699673709,0.14117560208423788,-1.9734076781618985,-0.0006472438424875106,0.0032402355016737045,-0.021478187484836247,0,70,255.0,255.0,255.0
459,22.950000000000003,0.8381232362192121,-1.6738762011775081,-24.54435260906258,-0.07046579808857213,0.14138278691788023,-1.974451277475524,-0.00012959983091431022,0.005047157844019537,-0.020265785060190143,0,70,255.0,255.0,255.0
460,23.0,0.8346,-1.6668,-24.6431,-0.07045933697982851,0.14168031786863983,-1.9754342566679173,0.00038804418065896407,0.006854080186365241,-0.019053382635538796,0,70,255.0,255.0,255.0
461,23.05,0.8310775398691489,-1.659708490662119,-24.7418950977027,-0.07043863499592605,0.14195857253092586,-1.9763610142600105,0.00044003517543926915,0.004276106305076563,-0.01801692104819031,0,70,255.0,255.0,255.0
462,23.1,0.8275561798262363,-1.6526062910584751,-24.840735237708014,-0.07041533346228458,0.1421079284991475,-1.9772359487727362,0.0004920261702195742,0.001698132423787884,-0.016980459460841826,0,70,255.0,255.0,255.0
463,23.150000000000002,0.8240360498487492,-1.6454998461237718,-24.939617828861984,-0.07038943237890409,0.14212838577330467,-1.9780590602060948,0.0005440171649998793,-0.0008798414575007952,-0.01594399787349334,0,70,255.0,255.0,255.0
464,23.200000000000003,0.8205172799141748,-1.6383956007927118,-25.038540280010636,-0.07036093174578459,0.1420199443533974,-1.9788303485600856,0.0005960081597801844,-0.0034578153387894734,-0.014907536286144859,0,70,255.0,255.0,255.0
465,23.25,0.817,-1.6313,-25.1375,-0.07032983156292608,0.14178260423942574,-1.9795498138347094,0.0006479991545607078,-0.0060357892200779695,-0.01387107469879112,0,70,255.0,255.0,255.0
466,23.3,0.813484016084134,-1.6242172707857276,-25.236494662138767,-0.0703155718049653,0.14154943910799186,-1.980233323789002,-7.760883612958273e-05,-0.003290816037277061,-0.013469323472916978,0,70,255.0,255.0,255.0
467,23.35,0.8099678381461777,-1.617142768611548,-25.335522997586217,-0.07033759244653903,0.14145352263569802,-1.980896746182001,-0.0008032168268198732,-0.0005458428544761525,-0.013067572247042835,0,70,255.0,255.0,255.0
468,23.400000000000002,0.8064496521661545,-1.610069631044505,-25.43458400196428,-0.0703958934876473,0.14149485482254426,-1.9815400810137065,-0.0015288248175101635,0.002199130328324755,-0.012665821021168693,0,70,255.0,255.0,255.0
469,23.450000000000003,0.8029276441240875,-1.6029909956516415,-25.5336766708949,-0.07049047492829005,0.1416734356685305,-1.982163328284118,-0.0022544328082004543,0.004944103511125664,-0.012264069795294551,0,70,255.0,255.0,255.0
470,23.5,0.7994,-1.5959,-25.6328,-0.07062133676846732,0.14198926517365681,-1.982766487993236,-0.002980040798890471,0.007689076693927044,-0.011862318569425767,0,70,255.0,255.0,255.0
471,23.55,0.7958655957943146,-1.5887920261949706,-25.731952653742248,-0.07074707778421244,0.14230767103710548,-1.983329690583977,-0.0020495998309139596,0.00504715784401953,-0.010665785060211501,0,70,255.0,255.0,255.0
472,23.6,0.792326067589052,-1.5816714344953309,-25.83113197194714,-0.07082629675155873,0.1424939809580588,-1.9838330664992574,-0.0011191588629374484,0.0024052389941120163,-0.009469251550997237,0,70,255.0,255.0,255.0
473,23.650000000000002,0.788783741486632,-1.574544829698206,-25.930334963280917,-0.07085899367050617,0.1425481949365167,-1.9842766157390768,-0.0001887178949609371,-0.00023667985579549876,-0.008272718041782971,0,70,255.0,255.0,255.0
474,23.700000000000003,0.7852409435894746,-1.5674188166007206,-26.029558636409796,-0.07084516854105481,0.14247031297247922,-1.9846603383034354,0.0007417230730155742,-0.0028785987057030112,-0.007076184532568706,0,70,255.0,255.0,255.0
475,23.75,0.7817,-1.5603,-26.1288,-0.07078482136320464,0.14226033506594638,-1.9849842341923336,0.0016721640409921301,-0.00552051755561056,-0.005879651023343868,0,70,255.0,255.0,255.0
476,23.8,0.7781624007386071,-1.5531930244343901,-26.228056322892257,-0.07072811705818532,0.14203587674358648,-1.9852639138750712,0.0005960081597803214,-0.0034578153387851236,-0.005307536286160888,0,70,255.0,255.0,255.0
477,23.85,0.7746262914976136,-1.5460946934071271,-26.327325914625224,-0.07072522054722662,0.14191455353206786,-1.9855149878209497,-0.00048014772143148724,-0.001395113121959687,-0.004735421548977908,0,70,255.0,255.0,255.0
478,23.900000000000002,0.7710889818873167,-1.538999850162669,-26.42660734491207,-0.07077613183032848,0.14189636543139053,-1.985737456029969,-0.0015563036026432957,0.0006675890948657495,-0.004163306811794929,0,70,255.0,255.0,255.0
479,23.950000000000003,0.7675477815180131,-1.531903337945474,-26.525899183465945,-0.07088085090749094,0.14198131244155443,-1.9859313185021292,-0.0026324594838551046,0.002730291311691186,-0.0035911920746119494,0,70,255.0,255.0,255.0
480,24.0,0.764,-1.5248,-26.6252,-0.07103937777871398,0.14216939456255961,-1.9860965752374302,-0.0037086153650668363,0.004792993528516476,-0.003019077337418352,0,70,255.0,255.0,255.0
481,24.05,0.7604440012512567,-1.5176862760674685,-26.724508454688735,-0.07118845398304567,0.1423648219885505,-1.9862386539157486,-0.0022544328082003255,0.003024103511117612,-0.0026640697953180087,0,70,255.0,255.0,255.0
482,24.1,0.7568823664204927,-1.5105649918761592,-26.82382356955196,-0.07126482105953402,0.14247180491367137,-1.986362982216962,-0.0008002502513338146,0.0012552134937187484,-0.0023090622532176653,0,70,255.0,255.0,255.0
483,24.150000000000002,0.7533187309641005,-1.5034405696511157,-26.923144457070816,-0.07126847900817905,0.14249034333792235,-1.9864695601410705,0.0006539323055326958,-0.0005136765236801151,-0.0019540547111173215,0,70,255.0,255.0,255.0
484,24.200000000000003,0.7497567303384721,-1.4963174316173813,-27.022470229726448,-0.07119942782898074,0.14242043726130338,-1.9865583876880737,0.002108114862399207,-0.002282566541078979,-0.001599047169016978,0,70,255.0,255.0,255.0
485,24.25,0.7462,-1.4892,-27.1218,-0.07105766752193914,0.1422620866838145,-1.9866294648579719,0.0035622974192656143,-0.004051456558477495,-0.0012440396269219889,0,70,255.0,255.0,255.0
486,24.3,0.742651194256366,-1.4820914712957354,-27.22113225835281,-0.07090206700963211,0.1420888353022101,-1.9866454704619578,0.0026617230730152748,-0.0028785987056988483,0.0006038154674804994,0,70,255.0,255.0,255.0
487,24.35,0.7391090428204148,-1.4749901390882347,-27.320463007166953,-0.07079149521463761,0.1419742268132446,-1.9865690833112237,0.001761148726764935,-0.0017057408529202013,0.0024516705618829876,0,70,255.0,255.0,255.0
488,24.400000000000002,0.7355712942562804,-1.4678930712328668,-27.419787626804688,-0.07072595213695561,0.14191826121691806,-1.9864003034057696,0.0008605743805145953,-0.0005328830001415539,0.004299525656285476,0,70,255.0,255.0,255.0
489,24.450000000000003,0.7320356971280974,-1.4607973355849988,-27.519101497628288,-0.07070543777658614,0.14192093851323043,-1.9861391307455953,-3.9999965735744176e-05,0.0006399748526370926,0.006147380750687964,0,70,255.0,255.0,255.0
490,24.5,0.7285,-1.4537,-27.6184,-0.07072995213352917,0.14198225870218176,-1.985785565330701,-0.0009405743119854648,0.001812832705416545,0.007995235845092097,0,70,255.0,255.0,255.0
491,24.55,0.7249624217232786,-1.4465990387495897,-27.71767931190003,-0.0707712779784252,0.14204783680260957,-1.9853874642364377,-0.0007124594838550958,0.00081029131169584,0.007928807925436486,0,70,255.0,255.0,255.0
492,24.6,0.7214230622978475,-1.4394960517709001,-27.816938801780246,-0.07080119808191468,0.14206328783335134,-1.9849926845381574,-0.0004843446557247268,-0.0001922500820248649,0.007862380005780876,0,70,255.0,255.0,255.0
493,24.650000000000002,0.7178824920107771,-1.432393545417416,-27.91617863571045,-0.07081971244399766,0.1420286117944071,-1.9846012262358599,-0.0002562298275943578,-0.0011947914757455698,0.007795952086125266,0,70,255.0,255.0,255.0
494,24.700000000000003,0.7143412811491378,-1.4252940260426208,-28.015398979760437,-0.07082682106467413,0.1419438086857768,-1.9842130893295449,-2.8114999463988767e-05,-0.0021973328694662748,0.0077295241664696555,0,70,255.0,255.0,255.0
495,24.75,0.7108,-1.4182,-28.1146,-0.07082252394394407,0.1418088785074605,-1.9838282738192126,0.00019999982866647503,-0.003199874263186686,0.007663096246822931,0,70,255.0,255.0,255.0
496,24.8,0.7072591188505193,-1.4111131737059048,-28.21378169404708,-0.07081282107666743,0.14167181748735364,-1.9834366725922679,0.00018811486239933545,-0.002282566541087392,0.0080009528309617,0,70,255.0,255.0,255.0
497,24.85,0.7037187079881946,-1.4040320538281625,-28.312943385712074,-0.07080371245770414,0.14158062185335174,-1.9830281785361163,0.00017622989613219587,-0.0013652588189880983,0.008338809415100467,0,70,255.0,255.0,255.0
498,24.900000000000002,0.7001787377006102,-1.3969543470974677,-28.41208423035354,-0.0707951980870542,0.14153529160545483,-1.982602791650758,0.00016434492986505626,-0.0004479510968888041,0.008676665999239233,0,70,255.0,255.0,255.0
499,24.950000000000003,0.6966391782753505,-1.3898777602445151,-28.51120338333,-0.07078727796471763,0.14153582674366288,-1.9821605119361925,0.00015245996359791668,0.0004693566252104895,0.009014522583378001,0,70,255.0,255.0,255.0
500,25.0,0.6931,-1.3828,-28.6103,-0.07077995209069442,0.14158222726797584,-1.9817013393924203,0.00014057499733099998,0.0013866643473094964,0.00935237916751852,0,70,255.0,255.0,255.0
501,25.05,0.689561102874644,-1.37571946642679,-28.709372311911668,-0.07077743771490452,0.1416328932479746,-1.9811698453944673,-3.999996573534039e-05,0.0006399748526416342,0.011907380750605902,0,70,255.0,255.0,255.0
502,25.1,0.6860221057493736,-1.3686373329164478,-28.808414855371463,-0.07078395208726795,0.14164622475324,-1.98051060131736,-0.00022057492880168077,-0.00010671464202622791,0.014462382333693286,0,70,255.0,255.0,255.0
503,25.150000000000002,0.6824825571867812,-1.3615554661927112,-28.907421242875422,-0.0707994952077847,0.14162222178377198,-1.9797236071610977,-0.0004011498918680211,-0.00085340413669409,0.01701738391678067,0,70,255.0,255.0,255.0
504,25.200000000000003,0.6789420057494592,-1.354475732979316,-29.00638508691959,-0.07082406707645475,0.1415608843395706,-1.9788088629256817,-0.0005817248549343615,-0.0016000936313619522,0.01957238549986805,0,70,255.0,255.0,255.0
505,25.25,0.6754,-1.3474,-29.1053,-0.07085766769327811,0.1414622124206358,-1.9777663686111113,-0.000762299818000578,-0.002346783126029761,0.02212738708296058,0,70,255.0,255.0,255.0
506,25.3,0.6718564696509046,-1.3403297605869353,-29.20416105830625,-0.07087742806371479,0.1413486095207484,-1.9766839458298746,-2.8114999466211815e-05,-0.002197332869465949,0.021169524166513996,0,70,255.0,255.0,255.0
507,25.35,0.6683128690143105,-1.3332650145060445,-29.302969192802088,-0.07086047919322473,0.1412424791336892,-1.9756494161944598,0.0007060698190681544,-0.0020478826129021366,0.02021166125006741,0,70,255.0,255.0,255.0
508,25.400000000000002,0.6647710335522641,-1.3262053881316858,-29.4017267981448,-0.07080682108180797,0.14114382125945818,-1.9746627797048677,0.0014402546376025209,-0.0018984323563383245,0.019253798333620824,0,70,255.0,255.0,255.0
509,25.450000000000003,0.6612327987268117,-1.319150507838218,-29.500436268991674,-0.07071645372946449,0.1410526358980554,-1.9737240363610977,0.0021744394561368867,-0.0017489820997745125,0.01829593541717424,0,70,255.0,255.0,255.0
510,25.5,0.6577,-1.3121,-29.5991,-0.0705893771361943,0.14096892304948075,-1.9728331861631503,0.002908624274670868,-0.0015995318432102668,0.017338072500734825,0,70,255.0,255.0,255.0
511,25.55,0.6541738185217373,-1.3050534912254679,-29.69771945486333,-0.07046485003023747,0.14089266866903075,-1.9719343712860462,0.0020724599636019574,-0.0014506433747893933,0.01861452258342526,0,70,255.0,255.0,255.0
512,25.6,0.6506528181933836,-1.298010609059373,-29.796292373420204,-0.0703821311398341,0.14082385871200181,-1.9709717339048078,0.0012362956525330466,-0.0013017549063685198,0.019890972666115694,0,70,255.0,255.0,255.0
513,25.650000000000002,0.6471349086041612,-1.2909709812805439,-29.89481556454541,-0.07034122046498417,0.1407624931783939,-1.9699452740194348,0.0004001313414641358,-0.0011528664379476465,0.02116742274880613,0,70,255.0,255.0,255.0
514,25.700000000000003,0.6436179993432924,-1.2839342356678098,-29.99328583711375,-0.07034211800568768,0.14070857206820703,-1.968854991629927,-0.00043603296960477477,-0.001003977969526773,0.022443872831496563,0,70,255.0,255.0,255.0
515,25.75,0.6401,-1.2769,-30.0917,-0.07038482376194465,0.1406620953814412,-1.9677008867362853,-0.001272197280673626,-0.0008550895011070203,0.023720322914174474,0,70,255.0,255.0,255.0
516,25.8,0.6365794562621458,-1.2698682745111918,-30.19005472224043,-0.07043117181533484,0.14060071580312947,-1.9664745690259346,-0.0005817248549341638,-0.00160009363136232,0.02533238549985024,0,70,255.0,255.0,255.0
517,25.85,0.6330574582121545,-1.262840549256462,-30.288346113517107,-0.07044299624743806,0.14050208601830497,-1.9651676481863,0.0001087475708052984,-0.0023450977616176196,0.02694444808552601,0,70,255.0,255.0,255.0
518,25.900000000000002,0.6295357320310901,-1.2558186867461363,-30.386570143673573,-0.07042029705825431,0.1403662060269677,-1.963780124217382,0.0007992199965447607,-0.003090101891872919,0.028556510671201775,0,70,255.0,255.0,255.0
519,25.950000000000003,0.6260160039000171,-1.2488045494905402,-30.48472278255336,-0.07036307424778358,0.1401930758291177,-1.96231199711918,0.0014896924222842227,-0.0038351060221282185,0.030168573256877544,0,70,255.0,255.0,255.0
520,26.0,0.6225,-1.2418,-30.5828,-0.0702713278160259,0.13998269542475486,-1.9607632668916943,0.0021801648480236357,-0.0045801101523841314,0.031780635842563854,0,70,255.0,255.0,255.0
521,26.05,0.6189891564296788,-1.234806210729764,-30.68079845617496,-0.07016246270842198,0.13977646811845082,-1.9591753526102014,0.002174439456132382,-0.003668982099778293,0.03173593541715256,0,70,255.0,255.0,255.0
522,26.1,0.6154837489579978,-1.2278215939147776,-30.77871757251138,-0.07005388387041266,0.13961579721477702,-1.9575896733499791,0.0021687140642411284,-0.002757854047172455,0.031691234991741264,0,70,255.0,255.0,255.0
523,26.150000000000002,0.6119837632714774,-1.2208438717349088,-30.876557460760317,-0.06994559130199787,0.13950068271373356,-1.9560062291110272,0.0021629886723498744,-0.001846725994566617,0.03164653456632997,0,70,255.0,255.0,255.0
524,26.200000000000003,0.6084891850566382,-1.2138707663700268,-30.974318232672832,-0.06983758500317766,0.13943112461532037,-1.954425019893346,0.0021572632804586207,-0.0009355979419607787,0.03160183414091868,0,70,255.0,255.0,255.0
525,26.25,0.605,-1.2069,-31.072,-0.06972986497395202,0.13940712291953744,-1.9528460456969352,0.0021515378885671455,-2.4469889356115715e-05,0.03155713371550917,0,70,255.0,255.0,255.0
526,26.3,0.6015159180191388,-1.1999300825697514,-31.169602653059737,-0.0696389773509779,0.13938141172306556,-1.9512560205332607,0.0014839670303970947,-0.0010039779695190237,0.0320438728314656,0,70,255.0,255.0,255.0
527,26.35,0.5980355459558536,-1.1929626750844269,-31.267125196437398,-0.06958146827091231,0.13930672512258552,-1.9496416584137886,0.0008163961722270441,-0.0019834860496819318,0.03253061194742203,0,70,255.0,255.0,255.0
528,26.400000000000002,0.5945572148829991,-1.1860002263142262,-31.36456641328519,-0.0695573377337552,0.13918306311809736,-1.9480029593385184,0.00014882531405699308,-0.00296299412984484,0.03301735106337846,0,70,255.0,255.0,255.0
529,26.450000000000003,0.5910792558734295,-1.1790451850293504,-31.461925086755322,-0.06956658573950661,0.13901042570960104,-1.9463399233074508,-0.0005187455441130573,-0.003942502210007748,0.033504090179334894,0,70,255.0,255.0,255.0
530,26.5,0.5876,-1.1721,-31.5592,-0.0696092122881665,0.1387888128970966,-1.944652550320585,-0.0011863164022829498,-0.004922010290171475,0.033990829295303726,0,70,255.0,255.0,255.0
531,26.55,0.5841183714937658,-1.1651662589912295,-31.656389331586098,-0.0696496278876664,0.138569884989289,-1.9429045652567771,-0.00043030757771344056,-0.003835106022132957,0.035928573257008295,0,70,255.0,255.0,255.0
532,26.6,0.5806356672185871,-1.158242105747514,-31.753488841739046,-0.06965224304593784,0.13840530229488332,-1.941059692994884,0.00032570124685606864,-0.0027482017540944393,0.037866317218712864,0,70,255.0,255.0,255.0
533,26.650000000000002,0.5771537771965257,-1.151324823008184,-31.85049368609895,-0.0696170577629808,0.13829506481387954,-1.9391179335349058,0.0010817100714255777,-0.001661297486055922,0.03980406118041743,0,70,255.0,255.0,255.0
534,26.700000000000003,0.5736745914496426,-1.1444116935125694,-31.947399020305905,-0.06954407203879527,0.13823917254627768,-1.9370792868768423,0.001837718895995087,-0.0005743932180174039,0.041741805142122,0,70,255.0,255.0,255.0
535,26.75,0.5702,-1.1375,-32.0442,-0.06943328587338128,0.13823762549207777,-1.9349437530206937,0.0025937277205653197,0.00051251105002037,0.043679549103829984,0,70,255.0,255.0,255.0
536,26.8,0.5667313960057984,-1.1305880814653302,-32.14089282059588,-0.06931451109835578,0.13822704831977914,-1.932773718439579,0.0021572632804544847,-0.0009355979419656474,0.04312183414075611,0,70,255.0,255.0,255.0
537,26.85,0.5632681851697975,-1.1236785019255153,-32.23747783660642,-0.06921755954533583,0.1381440656978812,-1.930631569606618,0.00172079884034365,-0.002383706933951665,0.04256411917768224,0,70,255.0,255.0,255.0
538,26.900000000000002,0.5598092763308978,-1.1167748816530352,-32.33395644231902,-0.06914243121432141,0.13798867762638398,-1.9285173065218109,0.0012843344002328152,-0.003831815925937682,0.04200640421460837,0,70,255.0,255.0,255.0
539,26.950000000000003,0.5563535783279987,-1.1098808409203698,-32.43033003202108,-0.06908912610531254,0.13776088410528742,-1.926430929185157,0.0008478699601219804,-0.0052799249179237,0.0414486892515345,0,70,255.0,255.0,255.0
540,27.0,0.5529,-1.103,-32.5266,-0.0690576442183092,0.13746068513459164,-1.9243724375966575,0.0004114055200112876,-0.006728033909909392,0.04089097428845179,0,70,255.0,255.0,255.0
541,27.05,0.5494480444830411,-1.0961350151474496,-32.62276658603036,-0.06901232771891169,0.13714592173159382,-1.9222725609849631,0.0014012544558888482,-0.0058625022100034715,0.043104090179315366,0,70,255.0,255.0,255.0
542,27.1,0.5459995921022219,-1.0892846865504238,-32.71882541183526,-0.06891751877272032,0.13687443491359128,-1.920062028578726,0.0023911033917664087,-0.004996970510097551,0.045317206070178945,0,70,255.0,255.0,255.0
543,27.150000000000002,0.5425571174798821,-1.0824468503796736,-32.81477094462499,-0.06877321737973506,0.13664622468058407,-1.9177408403779452,0.0033809523276439692,-0.00413143881019163,0.047530321961042524,0,70,255.0,255.0,255.0
544,27.200000000000003,0.5391230952383615,-1.0756193428059486,-32.91059765160982,-0.06857942353995593,0.13646129103257212,-1.9153089963826218,0.00437080126352153,-0.0032659071102857104,0.0497434378519061,0,70,255.0,255.0,255.0
545,27.25,0.5357,-1.0688,-33.0063,-0.06833613725338293,0.1363196339695555,-1.9127664965927547,0.005360650199399131,-0.0024003754103794073,0.05195655374277841,0,70,255.0,255.0,255.0
546,27.3,0.5322892260620369,-1.0619870579448716,-33.10187363528271,-0.06810817802599796,0.13619726475384555,-1.9101840376206256,0.0037577188959995395,-0.002494393218017522,0.051341805142378044,0,70,255.0,255.0,255.0
547,27.35,0.5288878464213139,-1.0551803518727882,-33.197318916052566,-0.06796036536378297,0.13607019464775374,-1.9076323160785167,0.0021547875925999483,-0.0025884110256556374,0.05072705654197767,0,70,255.0,255.0,255.0
548,27.400000000000002,0.5254918537495723,-1.0483801168282691,-33.292637379181066,-0.06789269926673797,0.13593842365128,-1.905111331966428,0.0005518562892003571,-0.0026824288332937523,0.050112307941577304,0,70,255.0,255.0,255.0
549,27.450000000000003,0.5220972407185538,-1.0415865878558332,-33.387830561539715,-0.06790517973486293,0.13580195176442433,-1.902621085284359,-0.001051075014199234,-0.0027764466409318676,0.04949755934117693,0,70,255.0,255.0,255.0
550,27.5,0.5187,-1.0348,-33.4829,-0.06799780676815789,0.13566077898718681,-1.9001615760323103,-0.0026540063175992668,-0.00287046444857042,0.04888281074078371,0,70,255.0,255.0,255.0
551,27.55,0.5152974512688109,-1.0280207530730634,-33.57784607283882,-0.06809096017709493,0.13550501925302444,-1.8976632885325047,-0.0010721300398820908,-0.0033599249179238804,0.051048689251440425,0,70,255.0,255.0,255.0
552,27.6,0.5118922222125218,-1.021249905958422,-33.672664523954495,-0.06810501977214611,0.13532478649539442,-1.8950567071071662,0.0005097462378350851,-0.0038493853872773407,0.05321456776209714,0,70,255.0,255.0,255.0
553,27.650000000000002,0.5084882675218276,-1.0144886823072483,-33.767349938650774,-0.06803998555331142,0.1351200807142967,-1.8923418317562948,0.002091622515552261,-0.0043388458566308,0.05538044627275385,0,70,255.0,255.0,255.0
554,27.700000000000003,0.5050895418874222,-1.0077383057707163,-33.86189690223137,-0.06789585752059087,0.13489090190973135,-1.8895186624798908,0.003673498793269437,-0.004828306325984261,0.05754632478341056,0,70,255.0,255.0,255.0
555,27.75,0.5017,-1.001,-33.9563,-0.0676726356739845,0.13463725008169827,-1.886587199277954,0.00525537507098639,-0.005317766795337464,0.059712203294070676,0,70,255.0,255.0,255.0
556,27.8,0.49832256886271975,-0.9942747297628737,-34.050554873362046,-0.06743198126562186,0.13437465823405761,-1.8836108082493066,0.00437080126351944,-0.005185907110289321,0.05934343785182001,0,70,255.0,255.0,255.0
557,27.85,0.4949560647285982,-0.987562424293523,-34.14466138812947,-0.06723555554763255,0.13411865937066933,-1.880652855492772,0.00348622745605249,-0.005054047425241178,0.05897467240956934,0,70,255.0,255.0,255.0
558,27.900000000000002,0.4915982761631168,-0.9808627539427356,-34.23862046621586,-0.06708335852001661,0.13386925349153347,-1.8777133410083495,0.00260165364858554,-0.004922187740193035,0.058605906967318676,0,70,255.0,255.0,255.0
559,27.950000000000003,0.4882469917317569,-0.9741753890612986,-34.33243302953484,-0.06697539018277399,0.13362644059665002,-1.87479226479604,0.0017170798411185904,-0.004790328055144891,0.058237141525068,0,70,255.0,255.0,255.0
560,28.0,0.4849,-0.9675,-34.4261,-0.06691165053590474,0.13339022068601902,-1.8718896268558427,0.0008325060336519252,-0.004658468370096536,0.05786837608282269,0,70,255.0,255.0,255.0
561,28.05,0.4815554732803102,-0.9608363278754412,-34.519621633712994,-0.06686911476041835,0.13315634781074334,-1.8689654784702447,0.0008689249858036657,-0.004696446640929786,0.059097559341089595,0,70,255.0,255.0,255.0
562,28.1,0.4782131188730849,-0.9541843968674846,-34.61299552352765,-0.06682475803732436,0.13292057602192606,-1.8659798709217337,0.0009053439379554061,-0.004734424911763037,0.0603267425993565,0,70,255.0,255.0,255.0
563,28.150000000000002,0.4748730278257044,-0.9475443019218073,-34.70621859648579,-0.0667785803666228,0.13268290531956706,-1.862932804210309,0.0009417628901071467,-0.004772403182596287,0.0615559258576234,0,70,255.0,255.0,255.0
