idx,t,px,py,pz,vx,vy,vz,ax,ay,az,yaw,mode,ledr,ledg,ledb
0,0.0,7.5,3.0,0.0,4.063949371002545e-20,-5.4063758076171793e-20,0.017974594246339348,-4.876739245203054e-19,6.487650969140615e-19,-0.5084951309560722,0,70,255.0,255.0,255.0
1,0.05,7.5,3.0,0.00026468539286821644,1.8694167106611705e-20,-2.4869328715039028e-20,-0.007355686646683905,-3.9013913961624434e-19,5.190120775312492e-19,-0.5047161047648578,0,70,255.0,255.0,255.0
2,0.1,7.5,3.0,-0.0007324194761757119,1.6255797484010173e-21,-2.162550323046878e-21,-0.03249701623014644,-2.9260435471218325e-19,3.892590581484369e-19,-0.5009370785736433,0,70,255.0,255.0,255.0
3,0.15000000000000002,7.5,3.0,-0.002981867041653749,-1.0566268364606624e-20,1.4056577099804668e-20,-0.05744939450404825,-1.9506956980812212e-19,2.5950603876562454e-19,-0.49715805238242894,0,70,255.0,255.0,255.0
4,0.2,7.5,3.0,-0.006474209738087858,-1.7881377232411202e-20,2.3788053553515568e-20,-0.08221282146838933,-9.753478490406108e-20,1.2975301938281232e-19,-0.4933790261912145,0,70,255.0,255.0,255.0
5,0.25,7.5,3.0,-0.0112,-2.0319746855012725e-20,2.7031879038085897e-20,-0.10678729712316967,0.0,0.0,-0.4895999999999998,0,70,255.0,255.0,255.0
6,0.30000000000000004,7.5,3.0,-0.01714979026191215,-1.7881377232411193e-20,2.3788053553515583e-20,-0.13117282146838932,9.753478490406117e-20,-1.2975301938281241e-19,-0.4858209738087854,0,70,255.0,255.0,255.0
7,0.35000000000000003,7.5,3.0,-0.024314132958346255,-1.056626836460661e-20,1.4056577099804656e-20,-0.15536939450404824,1.9506956980812224e-19,-2.595060387656247e-19,-0.4820419476175711,0,70,255.0,255.0,255.0
8,0.4,7.5,3.0,-0.032683580523824286,1.6255797484010263e-21,-2.162550323046881e-21,-0.1793770162301464,2.926043547121833e-19,-3.8925905814843696e-19,-0.4782629214263567,0,70,255.0,255.0,255.0
9,0.45,7.5,3.0,-0.04224868539286821,1.8694167106611714e-20,-2.486932871503903e-20,-0.20319568664668392,3.9013913961624434e-19,-5.190120775312492e-19,-0.47448389523514234,0,70,255.0,255.0,255.0
10,0.5,7.5,3.0,-0.053,4.063949371002545e-20,-5.4063758076171793e-20,-0.22682540575366067,4.876739245203055e-19,-6.487650969140614e-19,-0.4707048690439266,0,70,255.0,255.0,255.0
11,0.55,7.5,3.0,-0.06492632434521964,5.283134182303309e-20,-7.028288549902333e-20,-0.2501610274797589,-3.851859888774472e-34,6.7407548053553255e-34,-0.4627199999999996,0,70,255.0,255.0,255.0
12,0.6000000000000001,7.5,3.0,-0.0780094486904393,4.0639493710025414e-20,-5.4063758076171715e-20,-0.27309740575366065,-4.876739245203063e-19,6.487650969140627e-19,-0.45473513095607254,0,70,255.0,255.0,255.0
13,0.65,7.5,3.0,-0.0922294108630491,4.063949371002525e-21,-5.406375807617132e-21,-0.2956345405753661,-9.753478490406112e-19,1.2975301938281232e-18,-0.4467502619121455,0,70,255.0,255.0,255.0
14,0.7000000000000001,7.5,3.0,-0.10756624869043929,-5.689529119403576e-20,7.568926130664066e-20,-0.3177724319448752,-1.463021773560917e-18,1.9462952907421854e-18,-0.4387653928682185,0,70,255.0,255.0,255.0
15,0.75,7.5,3.0,-0.124,-1.4223822798508908e-19,1.8922315326660127e-19,-0.3395110798621879,-1.950695698081222e-18,2.5950603876562464e-18,-0.43078052382429144,0,70,255.0,255.0,255.0
16,0.8,7.5,3.0,-0.1415121123572093,-1.934439900597212e-19,2.573434884425777e-19,-0.3609350686125756,-9.753478490405983e-20,1.297530193828102e-19,-0.4261790261912144,0,70,255.0,255.0,255.0
17,0.8500000000000001,7.5,3.0,-0.16008967227989668,-1.5199170647549506e-19,2.0219845520488226e-19,-0.3821289824813094,1.7556261282731024e-18,-2.335554348890626e-18,-0.42157752855813735,0,70,255.0,255.0,255.0
18,0.9,7.5,3.0,-0.17972117602397936,-1.788137723241113e-20,2.3788053553515447e-20,-0.4030928214683893,3.608787041450261e-18,-4.800861717164057e-18,-0.4169760309250603,0,70,255.0,255.0,255.0
19,0.9500000000000001,7.5,3.0,-0.20039511984537475,2.0888699766953126e-19,-2.7788771651152365e-19,-0.4238265855738154,5.461947954627424e-18,-7.266169085437494e-18,-0.41237453329198326,0,70,255.0,255.0,255.0
20,1.0,7.5,3.0,-0.2221,5.283134182303309e-19,-7.028288549902333e-19,-0.44433027479758763,7.31510886780458e-18,-9.731476453710925e-18,-0.4077730356589071,0,70,255.0,255.0,255.0
21,1.05,7.5,3.0,-0.24482282622594312,7.209446184158514e-19,-9.590910682712875e-19,-0.46451469806993884,3.901391396162378e-19,-5.190120775312423e-19,-0.39960389523514184,0,70,255.0,255.0,255.0
22,1.1,7.5,3.0,-0.26854466218997414,5.673273321919548e-19,-7.547300627433574e-19,-0.48429066432110185,-6.534830588572105e-18,8.69345229864844e-18,-0.39143475481137663,0,70,255.0,255.0,255.0
23,1.1500000000000001,7.5,3.0,-0.2932450850410336,6.746155955864026e-20,-8.974583840644295e-20,-0.5036581735510766,-1.345980031676045e-17,1.7905916674828123e-17,-0.38326561438761136,0,70,255.0,255.0,255.0
24,1.2000000000000002,7.5,3.0,-0.31890367192806196,-7.786526994840912e-19,1.0358616047394566e-18,-0.522617225759863,-2.038477004494879e-17,2.7118381051007805e-17,-0.3750964739638461,0,70,255.0,255.0,255.0
25,1.25,7.5,3.0,-0.3455,-1.9710154449362345e-18,2.622092266694332e-18,-0.5411678209474611,-2.7309739773137105e-17,3.6330845427187445e-17,-0.3669273335400778,0,70,255.0,255.0,255.0
26,1.3,7.5,3.0,-0.37301498273901823,-2.6903344836036847e-18,3.579020784642573e-18,-0.5593901391076685,-1.4630217735608921e-18,1.946295290742151e-18,-0.3619653928682183,0,70,255.0,255.0,255.0
27,1.35,7.5,3.0,-0.401434878960207,-2.1173176222923243e-18,2.8167217957685472e-18,-0.577364360234283,2.438369622601532e-17,-3.243825484570314e-17,-0.3570034521963588,0,70,255.0,255.0,255.0
28,1.4000000000000001,7.5,3.0,-0.4307472838118867,-2.519648610021508e-19,3.351953000722549e-19,-0.5950904843273045,5.0230414225591536e-17,-6.682280498214844e-17,-0.35204151152449936,0,70,255.0,255.0,255.0
29,1.4500000000000002,7.5,3.0,-0.4609397924423776,2.9057238002668334e-18,-3.8655587024463015e-18,-0.6125685113867329,7.607713222516775e-17,-1.0120735511859373e-16,-0.3470795708526399,0,70,255.0,255.0,255.0
30,1.5,7.5,3.0,-0.492,7.355748361514607e-18,-9.785540211787096e-18,-0.6297984414125684,1.0192385022474383e-16,-1.3559190525503888e-16,-0.34211763018078045,0,70,255.0,255.0,255.0
31,1.55,7.5,3.0,-0.5239148428179841,1.0040393315998889e-17,-1.3356992070299005e-17,-0.6467407454993875,5.461947954627332e-18,-7.26616908543738e-18,-0.3355745332919852,0,70,255.0,255.0,255.0
32,1.6,7.5,3.0,-0.5566686219691981,7.901943156977342e-18,-1.0512157120330836e-17,-0.6633558947417669,-9.099995431548917e-17,1.2105956708416412e-16,-0.32903143640319,0,70,255.0,255.0,255.0
33,1.6500000000000001,7.5,3.0,-0.5902449797114201,9.40397884449962e-19,-1.251035361882582e-18,-0.6796438891397065,-1.8746185658560564e-16,2.493853032537656e-16,-0.32248833951439476,0,70,255.0,255.0,255.0
34,1.7000000000000002,7.5,3.0,-0.6246275583024282,-1.0844242501583245e-17,1.4426373205045748e-17,-0.6956047286932063,-2.8392375885572215e-16,3.777110394233671e-16,-0.31594524262559953,0,70,255.0,255.0,255.0
35,1.75,7.5,3.0,-0.6598,-2.7451978001122192e-17,3.652006858045405e-17,-0.7112384134022665,-3.803856611258382e-16,5.060367755929678e-16,-0.3094021457368026,0,70,255.0,255.0,255.0
36,1.8,7.5,3.0,-0.6957456459890456,-3.7471238780391865e-17,4.9848947496553433e-17,-0.7265268788947826,-2.0384770044948433e-17,2.7118381051007204e-17,-0.30213647396384075,0,70,255.0,255.0,255.0
37,1.85,7.5,3.0,-0.732446633163001,-2.949045500561704e-17,3.923190668555478e-17,-0.7414520607986506,3.3961612103594135e-16,-4.518000134909534e-16,-0.2948708021908789,0,70,255.0,255.0,255.0
38,1.9000000000000001,7.5,3.0,-0.7698847973424334,-3.509626676797699e-18,4.668946147458056e-18,-0.7560139591138705,6.996170121168312e-16,-9.30718408032914e-16,-0.2876051304179171,0,70,255.0,255.0,255.0
39,1.9500000000000002,7.5,3.0,-0.8080419743479106,4.047124620606616e-17,-5.3839934117736697e-17,-0.7702125738404423,1.0596179031977209e-15,-1.4096368025748747e-15,-0.28033945864495524,0,70,255.0,255.0,255.0
40,2.0,7.5,3.0,-0.8469,1.0245216364297415e-16,-1.362947341100291e-16,-0.784047904978366,1.4196187942786092e-15,-1.8885551971168334e-15,-0.2730737868719917,0,70,255.0,255.0,255.0
41,2.0500000000000003,7.5,3.0,-0.8864417732258337,1.398445618055686e-16,-1.8603879791591481e-16,-0.7975837389214818,7.607713222516063e-17,-1.0120735511858394e-16,-0.2683595708526386,0,70,255.0,255.0,255.0
42,2.1,7.5,3.0,-0.9266544453787988,1.1005987686549083e-16,-1.4641546962188832e-16,-0.81088386206363,-1.267464529828276e-15,1.686140486879649e-15,-0.2636453548332856,0,70,255.0,255.0,255.0
43,2.15,7.5,3.0,-0.967526230918847,1.3098108822741408e-17,-1.7424749227950438e-17,-0.8239482744048102,-2.611006191881713e-15,3.473488328877883e-15,-0.25893113881393254,0,70,255.0,255.0,255.0
44,2.2,7.5,3.0,-1.0090453443059304,-1.5104074232268127e-16,2.00933363265901e-16,-0.8367769759450231,-3.9545478539351616e-15,5.2608361708761314e-15,-0.25421692279457947,0,70,255.0,255.0,255.0
45,2.25,7.5,3.0,-1.0512,-3.8235667657077443e-16,5.086588678596624e-16,-0.8493699666842682,-5.298089515988597e-15,7.048184012874365e-15,-0.2495027067752229,0,70,255.0,255.0,255.0
46,2.3000000000000003,7.5,3.0,-1.0939768611076202,-5.219070084418825e-16,6.943062441671058e-16,-0.8616341654192889,-2.8392375885569435e-16,3.7771103942333024e-16,-0.24106524262560175,0,70,255.0,255.0,255.0
47,2.35,7.5,3.0,-1.137356385321804,-4.107490524563462e-16,5.464299718019985e-16,-0.8734764909468284,4.730241998277164e-15,-6.292761934027644e-15,-0.23262777847598065,0,70,255.0,255.0,255.0
48,2.4000000000000004,7.5,3.0,-1.1813174789821783,-4.888280861416348e-17,6.503005076433757e-17,-0.884896943266887,9.744407755410065e-15,-1.296323490747868e-14,-0.2241903143263595,0,70,255.0,255.0,255.0
49,2.45,7.5,3.0,-1.2258390484283683,5.636917230846589e-16,-7.498935189458679e-16,-0.8958955223794643,1.4758573512542926e-14,-1.9633707880929653e-14,-0.2157528501767384,0,70,255.0,255.0,255.0
50,2.5,7.5,3.0,-1.2709,1.4269745426401236e-15,-1.8983407373286202e-15,-0.9064722282845609,1.977273926967578e-14,-2.6304180854380622e-14,-0.2073153860271164,0,70,255.0,255.0,255.0
51,2.5500000000000003,7.5,3.0,-1.3164811823436864,1.9477834719619614e-15,-2.591186178752508e-15,-0.9167435994013627,1.0596179031976193e-15,-1.4096368025747406e-15,-0.20353945864495643,0,70,255.0,255.0,255.0
52,2.6,7.5,3.0,-1.3625712133339842,1.5329363329598936e-15,-2.039304417586106e-15,-0.9268261741490565,-1.7653503463280377e-14,2.348490724923092e-14,-0.1997635312627965,0,70,255.0,255.0,255.0
53,2.6500000000000004,7.5,2.9999999999999996,-1.40916065315244,1.8243312563391316e-16,-2.426954538294028e-16,-0.9367199525276424,-3.6366624829758537e-14,4.8379451301036796e-14,-0.19598760388063655,0,70,255.0,255.0,255.0
54,2.7,7.499999999999999,2.9999999999999996,-1.456240061980597,-2.1037261500159546e-15,2.7986407125175675e-15,-0.9464249345371202,-5.507974619623653e-14,7.327399535284246e-14,-0.1922116764984766,0,70,255.0,255.0,255.0
55,2.75,7.5,3.0,-1.5038,-5.32554149398972e-15,7.084704081454818e-15,-0.95594112017749,-7.379286756271452e-14,9.816853940464812e-14,-0.18843574911631844,0,70,255.0,255.0,255.0
56,2.8000000000000003,7.5,3.0000000000000004,-1.551828809517636,-7.269226879405963e-15,9.670438470842926e-15,-0.9651354369752624,-3.95454785393478e-15,5.260836170875623e-15,-0.1793369227945744,0,70,255.0,255.0,255.0
57,2.85,7.499999999999999,3.000000000000001,-1.6003059613422583,-5.7209962793832295e-15,7.610787698542422e-15,-0.9738748124569475,6.588377185484435e-14,-8.764686706289607e-14,-0.1702380964728304,0,70,255.0,255.0,255.0
58,2.9000000000000004,7.499999999999999,3.000000000000001,-1.6492087084080629,-6.808496939214939e-16,9.05751764553268e-16,-0.9821592466225454,1.3572209156362406e-13,-1.8055457029666854e-13,-0.16113927015108634,0,70,255.0,255.0,255.0
59,2.95,7.499999999999999,3.0000000000000004,-1.6985143036492447,7.851212876979157e-15,-1.0444669331124406e-14,-0.9899887394720561,2.055604112724032e-13,-2.7346227353044026e-13,-0.15204044382934234,0,70,255.0,255.0,255.0
60,3.0,7.5,3.0,-1.7482,1.9875191433318756e-14,-2.6440475588490654e-14,-0.9973632910054797,2.7539873098118225e-13,-3.66369976764212e-13,-0.14294161750759926,0,70,255.0,255.0,255.0
61,3.0500000000000003,7.500000000000001,2.9999999999999982,-1.798245179585771,2.7129124045661885e-14,-3.60905677046192e-14,-1.004410652697588,1.4758573512541462e-14,-1.9633707880927797e-14,-0.1389528501767337,0,70,255.0,255.0,255.0
62,3.1,7.500000000000003,2.999999999999997,-1.848637741296983,2.1351048784573023e-14,-2.8403846376583585e-14,-1.0112585760231532,-2.45881583956097e-13,3.2710256100235326e-13,-0.1349640828458682,0,70,255.0,255.0,255.0
63,3.1500000000000004,7.500000000000003,2.999999999999996,-1.8993677132153104,2.5409656500520482e-15,-3.3803116043836823e-15,-1.0179070609821748,-5.065217414247378e-13,6.738388298856375e-13,-0.13097531551500266,0,70,255.0,255.0,255.0
64,3.2,7.500000000000002,2.999999999999997,-1.950425123422425,-2.930112535790068e-14,3.898003661198006e-14,-1.0243561075746535,-7.671618988933762e-13,1.0205750987689184e-12,-0.12698654818413713,0,70,255.0,255.0,255.0
65,3.25,7.5,3.0,-2.0018,-7.41752242392853e-14,9.86771982725078e-14,-1.0306057158005886,-1.0278020563620146e-12,1.3673113676521996e-12,-0.12299778085327517,0,70,255.0,255.0,255.0
66,3.3000000000000003,7.499999999999996,3.000000000000006,-2.053480872139281,-1.012472693032416e-13,1.3469183234763386e-13,-1.0365659522343829,-5.507974619623122e-14,7.327399535283554e-14,-0.11541167649849125,0,70,255.0,255.0,255.0
67,3.35,7.499999999999991,3.000000000000012,-2.1054502734698093,-7.968319885890886e-14,1.0600459780779195e-13,-1.0421468834504377,9.176425639695437e-13,-1.2207633769465168e-12,-0.10782557214370739,0,70,255.0,255.0,255.0
68,3.4000000000000004,7.499999999999988,3.0000000000000155,-2.157689238730696,-9.483012906286715e-15,1.2615494652981512e-14,-1.0473485094487534,1.8903648741353273e-12,-2.5148007492458813e-12,-0.10023946778892347,0,70,255.0,255.0,255.0
69,3.45,7.49999999999999,3.0000000000000124,-2.210178802661056,1.0935328855462359e-13,-1.4547547711679574e-13,-1.0521708302293302,2.863087184301102e-12,-3.808838121545233e-12,-0.0926533634341396,0,70,255.0,255.0,255.0
70,3.5,7.5,3.0,-2.2629,2.7682570552382245e-13,-3.6826831750154055e-13,-1.0566138457921674,3.835809494466877e-12,-5.102875493844587e-12,-0.08506725907935575,0,70,255.0,255.0,255.0
71,3.5500000000000003,7.500000000000017,2.999999999999978,-2.3158345318571034,3.778599531673045e-13,-5.026767616859163e-13,-1.0607175383648848,2.0556041127238362e-13,-2.734622735304147e-13,-0.07908044382933352,0,70,255.0,255.0,255.0
72,3.6,7.500000000000035,2.999999999999954,-2.36896676482378,2.9738174665106245e-13,-3.9561454485458416e-13,-1.0645218901751008,-3.424688671922077e-12,4.555950946783715e-12,-0.07309362857931133,0,70,255.0,255.0,255.0
73,3.6500000000000004,7.500000000000044,2.999999999999942,-2.4222817318619057,3.53910859750948e-14,-4.7081667007542213e-14,-1.0680269012228158,-7.054937755116571e-12,9.385364167097888e-12,-0.0671068133292891,0,70,255.0,255.0,255.0
74,3.7,7.500000000000035,2.999999999999953,-2.475764465933354,-4.081120288605934e-13,5.429218718552032e-13,-1.0712325715080298,-1.0685186838311031e-11,1.4214777387412017e-11,-0.061119998079266914,0,70,255.0,255.0,255.0
75,3.75,7.5,3.0,-2.5294,-1.0331275978560045e-12,1.3743960717336544e-12,-1.0741389010307425,-1.431543592150549e-11,1.904419060772615e-11,-0.05513318282924473,0,70,255.0,255.0,255.0
76,3.8000000000000003,7.499999999999936,3.0000000000000853,-2.583173000432305,-1.4101925433659763e-12,1.8760152143960316e-12,-1.076723894306077,-7.671618988933026e-13,1.0205750987688217e-12,-0.048266548184138676,0,70,255.0,255.0,255.0
77,3.85,7.49999999999987,3.0000000000001723,-2.6370666672350698,-1.1098437877453406e-12,1.4764535816105448e-12,-1.0789655558491564,1.2781112123718765e-11,-1.7003040410188345e-11,-0.04139991353903268,0,70,255.0,255.0,255.0
78,3.9000000000000004,7.4999999999998375,3.000000000000217,-2.691063833821683,-1.3208133099409316e-13,1.757111733771877e-13,-1.0808638856599802,2.6329386146330954e-11,-3.502665591914567e-11,-0.03453327889392663,0,70,255.0,255.0,255.0
79,3.95,7.4999999999998685,3.0000000000001754,-2.7451473336055305,1.5230948268877502e-12,-2.0262120103040177e-12,-1.0824188837385489,3.987766016894302e-11,-5.3050271428102836e-11,-0.027666644248820635,0,70,255.0,255.0,255.0
80,4.0,7.5,3.0,-2.7993,3.855684685900195e-12,-5.129315969433077e-12,-1.0836305500848624,5.342593419155509e-11,-7.107388693706e-11,-0.020800009603721747,0,70,255.0,255.0,255.0
81,4.05,7.500000000000238,2.9999999999996825,-2.8535054664136767,5.2629102202966e-12,-7.001384095898206e-12,-1.0845468844108093,2.8630871843012837e-12,-3.808838121545466e-12,-0.015853363434150954,0,70,255.0,255.0,255.0
82,4.1000000000000005,7.500000000000484,2.999999999999356,-2.9077505662359404,4.141993404330281e-12,-5.5101997815875666e-12,-1.0852158864282775,-4.7699759822953426e-11,6.345621069397026e-11,-0.010906717264580071,0,70,255.0,255.0,255.0
83,4.15,7.500000000000611,2.9999999999991878,-2.962022932851364,4.929342380012771e-13,-6.557630265012102e-13,-1.0856375561372673,-9.826260683020724e-11,1.3072125950948478e-10,-0.005960071095009277,0,70,255.0,255.0,255.0
84,4.2,7.500000000000491,2.9999999999993463,-3.016310199644525,-5.684267278690407e-12,7.56192616936087e-12,-1.0858118935377785,-1.4882545383746104e-10,1.9798630832499933e-10,-0.0010134249254384817,0,70,255.0,255.0,255.0
85,4.25,7.5,3.0,-3.0706,-1.4389611145744778e-11,1.9142867805998655e-11,-1.085738898629811,-1.9938830084471485e-10,2.652513571405138e-10,0.0039332212441287595,0,70,255.0,255.0,255.0
86,4.3,7.49999999999911,3.000000000001184,-3.1248787339129867,-1.9641448337820422e-11,2.6129521169196795e-11,-1.0853445680506892,-1.0685186838311663e-11,1.421477738741289e-11,0.011840001920750581,0,70,255.0,255.0,255.0
87,4.3500000000000005,7.4999999999981934,3.000000000002404,-3.1791278678211725,-1.5458129829575782e-11,2.0564345544739727e-11,-1.0845548984377362,1.7801792716809488e-10,-2.3682180236569247e-10,0.01974678259737254,0,70,255.0,255.0,255.0
88,4.4,7.499999999997721,3.000000000003032,-3.2333276347728637,-1.8396556210110065e-12,2.4473409326276304e-12,-1.0833698897909518,3.6672104117449807e-10,-4.878583821187935e-10,0.027653563273994364,0,70,255.0,255.0,255.0
89,4.45,7.499999999998167,3.0000000000024394,-3.28745826781637,2.12139742878739e-11,-2.8221492667139442e-11,-1.0817895421103365,5.554241551809013e-10,-7.388949618718944e-10,0.035560343950616184,0,70,255.0,255.0,255.0
90,4.5,7.5,3.0,-3.3415,5.3702759897078915e-11,-7.144215525456154e-11,-1.0798138553958905,7.441272691873045e-10,-9.899315416249954e-10,0.043467124627239784,0,70,255.0,255.0,255.0
91,4.55,7.500000000003322,2.999999999995581,-3.3954339979343753,7.33028831309851e-11,-9.751670058088898e-11,-1.0774988433864303,3.987766016894553e-11,-5.305027142810613e-11,0.049133355751170504,0,70,255.0,255.0,255.0
92,4.6000000000000005,7.500000000006743,2.999999999991029,-3.449245162479374,5.769052591397287e-11,-7.674718239737136e-11,-1.0749005198207733,-6.64371948849426e-10,8.838309987687997e-10,0.05479958687510133,0,70,255.0,255.0,255.0
93,4.65,7.500000000008504,2.999999999988687,-3.502919328057183,6.865688246042744e-12,-9.133600704009344e-12,-1.07201888469892,-1.368621557867785e-09,1.8207122689656888e-09,0.06046581799903206,0,70,255.0,255.0,255.0
94,4.7,7.500000000006843,2.999999999990896,-3.5564423290899954,-7.917162987280513e-11,1.0532404449919687e-10,-1.0688539380208701,-2.0728711668861437e-09,2.7575935391625783e-09,0.06613204912296278,0,70,255.0,255.0,255.0
95,4.75,7.5,3.0,-3.6098,-2.0042142844257088e-10,2.6662575321224747e-10,-1.0654056797866236,-2.777120775904503e-09,3.6944748093594666e-09,0.07179828024689527,0,70,255.0,255.0,255.0
96,4.800000000000001,7.499999999987603,3.000000000016492,-3.6629780743495117,-2.7357008418612007e-10,3.6393728115435926e-10,-1.0616680584035876,-1.4882545383742361e-10,1.979863083249493e-10,0.07770657507454652,0,70,255.0,255.0,255.0
97,4.8500000000000005,7.4999999999748335,3.00000000003348,-3.7159618822613365,-2.1530397382631565e-10,2.864243840447456e-10,-1.0576350222791688,2.4794698682296093e-09,-3.298502192709506e-09,0.08361486990219766,0,70,255.0,255.0,255.0
98,4.9,7.499999999968263,3.000000000042221,-3.768736652998405,-2.5623097363159982e-11,3.408706188340978e-11,-1.0533065714133678,5.107765190296642e-09,-6.794990693743961e-09,0.08952316472984881,0,70,255.0,255.0,255.0
99,4.95,7.499999999974461,3.000000000033975,-3.8212876158236493,2.954725452033467e-10,-3.9307468532964807e-10,-1.048682705806184,7.736060512363673e-09,-1.0291479194778417e-08,0.09543145955749995,0,70,255.0,255.0,255.0
100,5.0,7.5,3.0,-3.8736,7.479829538732046e-10,-9.950608575944283e-10,-1.043763425457618,1.0364355834430707e-08,-1.378796769581287e-08,0.10133975438514575,0,70,255.0,255.0,255.0
101,5.050000000000001,7.500000000046268,2.999999999938449,-3.925658504667582,1.0209774536134952e-09,-1.3582324240365477e-09,-1.0385169229992237,5.554241551807606e-10,-7.388949618717074e-10,0.1085203439506235,0,70,255.0,255.0,255.0
102,5.1000000000000005,7.500000000093923,2.9999999998750506,-3.977445708475285,8.035253693912899e-10,-1.0689503537816109e-09,-1.0329113910625556,-9.25350752406901e-09,1.2310177772069224e-08,0.11570093351610113,0,70,255.0,255.0,255.0
103,5.15,7.500000000118446,2.9999999998424283,-4.028943659949198,9.562670120659739e-11,-1.2721464682962997e-10,-1.0269468296476136,-1.9062439203318784e-08,2.5359250506010156e-08,0.12288152308157874,0,70,255.0,255.0,255.0
104,5.2,7.500000000095313,2.9999999998732036,-4.080134407615408,-1.102718550940581e-09,1.4669746968193948e-09,-1.0206232387543979,-2.8871370882568553e-08,3.840832323995108e-08,0.13006211264705636,0,70,255.0,255.0,255.0
105,5.25,7.5,3.0,-4.131,-2.7915103870502474e-09,3.7136176771654653e-09,-1.013940618382908,-3.868030256181831e-08,5.145739597389201e-08,0.1372427022125322,0,70,255.0,255.0,255.0
106,5.300000000000001,7.499999999827327,3.000000000229711,-4.181523106980167,-3.8103397302678594e-09,5.068992414991832e-09,-1.0069362495995204,-2.0728711668856176e-09,2.7575935391618785e-09,0.14293204912297355,0,70,255.0,255.0,255.0
107,5.3500000000000005,7.499999999649472,3.000000000466316,-4.231688883837527,-2.9987975037388428e-09,3.989377031081697e-09,-0.9996474134706107,3.4534560228046426e-08,-4.594220889556738e-08,0.14862139603341482,0,70,255.0,255.0,255.0
108,5.4,7.499999999557954,3.0000000005880656,-4.281483107204804,-3.5688370746322927e-10,4.747715254351099e-10,-0.992074109996179,7.114199162297848e-08,-9.464201133029664e-08,0.15431074294385608,0,70,255.0,255.0,255.0
109,5.45,7.49999999964429,3.0000000004732104,-4.33089155371472,4.115401658558977e-09,-5.4748241019479305e-09,-0.9842163391762251,1.0774942301791053e-07,-1.4334181376502594e-07,0.1600000898542973,0,70,255.0,255.0,255.0
110,5.5,7.5,3.0,-4.3799,1.0418058594327784e-08,-1.3859409851067433e-08,-0.9760741010107492,1.4435685441284256e-07,-1.920416161997552e-07,0.1656894367647368,0,70,255.0,255.0,255.0
111,5.550000000000001,7.500000000644424,2.9999999991427067,-4.428493867411752,1.4220381467457944e-08,-1.891773723593078e-08,-0.9676260786026935,7.736060512361723e-09,-1.0291479194775822e-08,0.172231459557488,0,70,255.0,255.0,255.0
112,5.6000000000000005,7.500000001308187,2.9999999982596846,-4.47665715617461,1.1191664645564082e-08,-1.4888557770545187e-08,-0.9588509550550003,-1.2888473338811668e-07,1.7145865781020033e-07,0.1787734823502391,0,70,255.0,255.0,255.0
113,5.65,7.50000000164974,2.9999999978053093,-4.524373511231591,1.3319081286463238e-09,-1.7718714549108096e-09,-0.9497487303676696,-2.655055272885951e-07,3.532087948151765e-07,0.18531550514299017,0,70,255.0,255.0,255.0
114,5.7,7.500000001327527,2.999999998233956,-4.571626577525715,-1.535888808329533e-08,2.043232171097233e-08,-0.9403194045407013,-4.021263211890735e-07,5.349589318201525e-07,0.19185752793574126,0,70,255.0,255.0,255.0
115,5.75,7.5,3.0,-4.6184,-3.888072399026089e-08,5.172402172710426e-08,-0.9305629775740956,-5.387471150895519e-07,7.167090688251286e-07,0.1983995507284888,0,70,255.0,255.0,255.0
116,5.800000000000001,7.499999997594978,3.000000003199462,-4.6646774233728285,-5.307118613956392e-08,7.060195652873128e-08,-0.9204794359897067,-2.8871370882561175e-08,3.840832323994129e-08,0.2049421126470592,0,70,255.0,255.0,255.0
117,5.8500000000000005,7.499999995117778,3.000000006494945,-4.710442491464039,-4.1767861078517485e-08,5.556485405109902e-08,-0.9100687663093896,4.810043733244204e-07,-6.398924223452339e-07,0.21148467456562947,0,70,255.0,255.0,255.0
118,5.9,7.499999993843089,3.0000000081906966,-4.755678847868835,-4.970748807122036e-09,6.612714294208109e-09,-0.8993309685331439,9.90880117531402e-07,-1.3181931679304094e-06,0.21802723648419975,0,70,255.0,255.0,255.0
119,5.95,7.499999995045599,3.0000000065909656,-4.800370136182422,5.732015067462236e-08,-7.625446274194146e-08,-0.8882660426609696,1.5007558617383838e-06,-1.9964939135155844e-06,0.22456979840277003,0,70,255.0,255.0,255.0
120,6.0,7.5,3.0,-4.8445,1.4510483736671576e-07,-1.930366770573496e-07,-0.8768739886928669,2.010631605945364e-06,-2.67479465910076e-06,0.2311123603213403,0,70,255.0,255.0,255.0
121,6.050000000000001,7.500000008975663,2.9999999880594443,-4.8880524390969375,1.980643630907977e-07,-2.6349008887899435e-07,-0.8651761774384756,1.0774942301788284e-07,-1.4334181376498968e-07,0.23680008985430598,0,70,255.0,255.0,255.0
122,6.1000000000000005,7.500000018220701,2.999999975760535,-4.931012877969237,1.558797796685058e-07,-2.0737085843385088e-07,-0.8531939797074362,-1.7951327599095646e-06,2.388111031570735e-06,0.24248781938727154,0,70,255.0,255.0,255.0
123,6.15,7.500000022977907,2.999999969431903,-4.973367097293069,1.8551087099841828e-08,-2.4678985721921685e-08,-0.8409273954997485,-3.698014942837012e-06,4.919563876906461e-06,0.24817554892023713,0,70,255.0,255.0,255.0
124,6.2,7.500000018490075,2.9999999754021807,-5.015100877744601,-2.1392171461519407e-07,2.845855292567933e-07,-0.8283764248154126,-5.60089712576446e-06,7.451016722242186e-06,0.25386327845320267,0,70,255.0,255.0,255.0
125,6.25,7.5,3.0,-5.0562,-5.415386254766021e-07,7.204226865022942e-07,-0.8155410676544285,-7.503779308691906e-06,9.98246956757791e-06,0.25955100798616737,0,70,255.0,255.0,255.0
126,6.300000000000001,7.499999966502367,3.000000044562759,-5.096649620239426,-7.391862662236268e-07,9.833583989872462e-07,-0.802383854256381,-4.0212632118897137e-07,5.349589318200178e-07,0.2667375279357191,0,70,255.0,255.0,255.0
127,6.3500000000000005,7.499999931999417,3.0000000904629145,-5.136432396659013,-5.817512575955059e-07,7.739185796843046e-07,-0.7888673148608565,6.6995266663138375e-06,-8.912551703937708e-06,0.27392404788527064,0,70,255.0,255.0,255.0
128,6.4,7.499999914245285,3.000000114081691,-5.175530362958888,-6.923359959224557e-08,9.21032285934785e-08,-0.7749914494678541,1.3801179653816646e-05,-1.836006233969543e-05,0.2811105678348222,0,70,255.0,255.0,255.0
129,6.45,7.499999930994102,3.0000000918003114,-5.213925552839173,7.98366707786154e-07,-1.0620876542852318e-06,-0.7607562580773743,2.0902832641319453e-05,-2.7807572975453155e-05,0.2882970877843738,0,70,255.0,255.0,255.0
130,6.5,7.5,3.0,-5.2516,2.0210496645396925e-06,-2.688654068951827e-06,-0.7461617406894169,2.8004485628822262e-05,-3.725508361121087e-05,0.29548360773392535,0,70,255.0,255.0,255.0
131,6.550000000000001,7.50000012501487,2.999999833689521,-5.288536279945359,2.75868070180371e-06,-3.66994350706999e-06,-0.7312404055359996,1.5007558617380062e-06,-1.9964939135150804e-06,0.3013697984027618,0,70,255.0,255.0,255.0
132,6.6000000000000005,7.500000253781629,2.999999662387807,-5.32471913539471,2.171125250713517e-06,-2.8883034603033668e-06,-0.7160247608491405,-2.5002973905345782e-05,3.326209578418009e-05,0.3072559890715982,0,70,255.0,255.0,255.0
133,6.65,7.500000320040953,2.999999574241333,-5.360133850871382,2.5838331126914054e-07,-3.437339286519918e-07,-0.7005148066288398,-5.150670367242957e-05,6.852068548187526e-05,0.3131421797404345,0,70,255.0,255.0,255.0
134,6.7,7.500000257533518,2.9999996573965726,-5.394765710898702,-2.9795451165294208e-06,3.963765087884134e-06,-0.6847105428750971,-7.801043343951336e-05,0.00010377927517957042,0.3190283704092709,0,70,255.0,255.0,255.0
135,6.75,7.5,3.0,-5.4286,-7.542660032682168e-06,1.0034193589305013e-05,-0.6686119695879128,-0.00010451416320659713,0.00013903786487726557,0.32491456107810723,0,70,255.0,255.0,255.0
136,6.800000000000001,7.499999533438156,3.0000006206791574,-5.461622059979143,-1.029553654099121e-05,1.3696415629292712e-05,-0.6522225235996292,-5.600897125763042e-06,7.451016722240272e-06,0.3306632784532275,0,70,255.0,255.0,255.0
137,6.8500000000000005,7.499999052874068,3.0000012599858557,-5.493817461762151,-8.102749745258564e-06,1.0779295261529161e-05,-0.6355456417425899,9.331236895506929e-05,-0.00012413583143278264,0.3364119958283477,0,70,255.0,255.0,255.0
138,6.9,7.499998805590903,3.0000015889529763,-5.5251718335555875,-9.642996454843145e-07,1.2828324860144895e-06,-0.6185813240167946,0.00019222563503590163,-0.00025572267958780563,0.34216071320346786,0,70,255.0,255.0,255.0
139,6.95,7.499999038871825,3.0000012786133983,-5.555670803566017,1.1119813758331532e-05,-1.47929726972513e-05,-0.6013295704222432,0.000291138901116734,-0.00038730952774282856,0.34790943057858803,0,70,255.0,255.0,255.0
140,7.0,7.5,3.0,-5.5853,2.814959046618898e-05,-3.744812028826822e-05,-0.5837903809589359,0.00039005216719756623,-0.0005188963758978515,0.3536581479537082,0,70,255.0,255.0,255.0
141,7.050000000000001,7.500001741232509,2.9999976835938504,-5.614043480138076,3.842346546216113e-05,-5.111571901010086e-05,-0.5658695000654833,2.090283264131413e-05,-2.7807572975446088e-05,0.36317708778438695,0,70,255.0,255.0,255.0
142,7.1000000000000005,7.500003534722101,2.999995297668768,-5.64187901755669,3.0239873730320733e-05,-4.022887758581329e-05,-0.547472672180497,-0.00034824650191493136,0.00046328122994695044,0.37269602761506554,0,70,255.0,255.0,255.0
143,7.15,7.500004457595438,2.999994069946761,-5.668782814906266,3.5988152706681157e-06,-4.787596015405968e-06,-0.5285998973039768,-0.0007173958364711768,0.0009543700328693472,0.3822149674457441,0,70,255.0,255.0,255.0
144,7.2,7.500003586979182,2.9999952281498357,-5.694731074837229,-4.149970991679671e-05,5.520812570112109e-05,-0.5092511754359227,-0.0010865451710274224,0.0014454588357917437,0.3917339072764227,0,70,255.0,255.0,255.0
145,7.25,7.5,3.0,-5.7197,-0.00010505570183207374,0.00013975828756376788,-0.4894265065763346,-0.0014556945055836678,0.0019365476387141407,0.4012528471071022,0,70,255.0,255.0,255.0
146,7.300000000000001,7.499993501631807,3.0000086449454417,-5.743670419468557,-0.0001433983253076533,0.00019076646041111075,-0.46940347613842587,-7.80104334394936e-05,0.0001037792751795441,0.3996683704092362,0,70,255.0,255.0,255.0
147,7.3500000000000005,7.499986808237529,3.0000175493390717,-5.766641668011091,-0.00011285674517602434,0.000150136215081724,-0.4494596695354108,0.0012996736387046563,-0.0017289890883550195,0.3980838937113702,0,70,255.0,255.0,255.0
148,7.4,7.499983364027348,3.0000221312599806,-5.788617706819346,-1.3430961437188148e-05,1.7867551575609375e-05,-0.42959508676728897,0.0026773577108488065,-0.0035617574518895835,0.3964994170135043,0,70,255.0,255.0,255.0
149,7.45,7.499986613211446,3.000017808787259,-5.809602497085068,0.00015487902590885532,-0.00020603953010723316,-0.40980972783406044,0.004055041782992956,-0.005394525815424147,0.39491494031563834,0,70,255.0,255.0,255.0
150,7.5,7.5,3.0,-5.8296,0.00039207321686210596,-0.0005215850299668033,-0.3901035927357252,0.005432725855137106,-0.007227294178958709,0.39333046361777546,0,70,255.0,255.0,255.0
151,7.550000000000001,7.500025852240265,2.9999653366243826,-5.848618841987697,0.0006311698357686575,-0.0008559501226344369,-0.37075659538081557,0.004131138901124819,-0.006147309527746441,0.3805494305785978,0,70,255.0,255.0,255.0
152,7.6000000000000005,7.500062032327782,2.999915304974946,-5.866686310398948,0.0008051871069745911,-0.0011363159827414517,-0.3520486496778652,0.0028295519471125555,-0.005067324876534192,0.3677683975394204,0,70,255.0,255.0,255.0
153,7.65,7.500105286295167,2.999852605013318,-5.88383435781635,0.000914125030479912,-0.0013626826102878544,-0.3339797556268737,0.0015279649931002914,-0.003987340225321944,0.354987364500243,0,70,255.0,255.0,255.0
154,7.7,7.500152360175035,2.999779936701126,-5.9000949368225015,0.0009579836062846198,-0.0015350500052736444,-0.31654991322784104,0.00022637803908802726,-0.002907355574109695,0.3422063314610656,0,70,255.0,255.0,255.0
155,7.75,7.5002,2.9997,-5.9155,0.0009367628343887145,-0.0016534181676988227,-0.2997591224807672,-0.0010752089149242373,-0.0018273709228974564,0.3294252984218904,0,70,255.0,255.0,255.0
156,7.800000000000001,7.500246289407137,2.9996148085570273,-5.930080612580655,0.0009307189822393855,-0.0017589659698762437,-0.2835541423383087,0.0008334548289510783,-0.002394541164199321,0.31877390727643995,0,70,255.0,255.0,255.0
157,7.8500000000000005,7.500294662451344,2.999523630761144,-5.943864290393118,0.001020108317283821,-0.0018928722841187557,-0.267881731753123,0.00274211857282636,-0.0029617114055011753,0.30812251613098973,0,70,255.0,255.0,255.0
158,7.9,7.500349890791985,2.9994250486867475,-5.956877661915255,0.0012049308395220204,-0.00205513711042636,-0.25274189072520986,0.0046507823167016415,-0.0035288816468030297,0.2974711249855395,0,70,255.0,255.0,255.0
159,7.95,7.500416746088416,2.999317644408234,-5.969147355624928,0.0014851865489539837,-0.0022457604487990577,-0.23813461925456916,0.006559446060576924,-0.004096051888104885,0.2868197338400893,0,70,255.0,255.0,255.0
160,8.0,7.5005,2.9992,-5.9807,0.0018608754455797104,-0.0024647422992368473,-0.22405991734120098,0.008468109804452197,-0.004663222129406747,0.27616834269463975,0,70,255.0,255.0,255.0
161,8.05,7.500603390131192,2.999070629147507,-5.991562707689683,0.0022699542352660473,-0.0027161859978576232,-0.2105468352659443,0.007895041783001044,-0.005394525815424151,0.2643549403156196,0,70,255.0,255.0,255.0
162,8.1,7.500726517866841,2.998927771980476,-6.001764528028576,0.002650379623879813,-0.0030041948807792594,-0.19762442330963909,0.007321973761549911,-0.006125829501441527,0.25254153793659995,0,70,255.0,255.0,255.0
163,8.15,7.500867950536896,2.998769600239691,-6.011334994522629,0.0030021516114210347,-0.003328768948001775,-0.18529268147228442,0.006748905740098758,-0.006857133187458931,0.2407281355575798,0,70,255.0,255.0,255.0
164,8.200000000000001,7.5010262554713,2.9985942856659373,-6.0203036406777874,0.0033252701978896985,-0.003689908199525162,-0.17355160975388076,0.006175837718647604,-0.007588436873476333,0.22891473317855968,0,70,255.0,255.0,255.0
165,8.25,7.5012,2.9984,-6.0287,0.0036197353832857935,-0.004087612635349405,-0.1624012081544285,0.005602769697196454,-0.008319740559493714,0.2171013307995402,0,70,255.0,255.0,255.0
166,8.3,7.501388150068095,2.998185074852944,-6.036552556660613,0.003909464076693427,-0.0045122900386898,-0.151778516597913,0.005986378039108715,-0.008667355574121861,0.20780633146107275,0,70,255.0,255.0,255.0
167,8.35,7.501591266081288,2.997948481316952,-6.043885597492573,0.004218373187196662,-0.004954348192761588,-0.14162057500832126,0.006369986381020963,-0.009014970588749996,0.19851133212260563,0,70,255.0,255.0,255.0
168,8.4,7.501810307060433,2.997689350354489,-6.050722359994227,0.004546462714795522,-0.005413787097564797,-0.13192738338565255,0.0067535947229332245,-0.00936258560337814,0.18921633278413819,0,70,255.0,255.0,255.0
169,8.450000000000001,7.502046232026386,2.997406812928017,-6.057086081663921,0.004893732659489994,-0.005890606753099415,-0.12269894172990718,0.007137203064845487,-0.009710200618006287,0.17992133344567074,0,70,255.0,255.0,255.0
170,8.5,7.5023,2.9971,-6.063,0.005260183021280068,-0.006384807159365422,-0.11393525004108554,0.007520811406757713,-0.010057815632634422,0.1706263341072034,0,70,255.0,255.0,255.0
171,8.55,7.502572809596429,2.996768271440718,-6.068488665667865,0.005660189457962901,-0.006882653847383789,-0.10571509834240328,0.00847944606055539,-0.009856051888099985,0.1581797338400824,0,70,255.0,255.0,255.0
172,8.6,7.502866817808007,2.9964119027517153,-6.07358188200113,0.006108127627335602,-0.007370412348175417,-0.09811727665707733,0.009438080714353033,-0.009654288143565556,0.14573313357296186,0,70,255.0,255.0,255.0
173,8.65,7.5031844212213725,2.996031398342354,-6.078310765500461,0.006603997529398203,-0.00784808266174034,-0.09114178498510717,0.010396715368150709,-0.009452524399031121,0.1332865333058409,0,70,255.0,255.0,255.0
174,8.700000000000001,7.503528016423159,2.995627262621995,-6.082706432666529,0.007147799164150688,-0.008315664788078542,-0.08478862332649306,0.011355350021948386,-0.009250760654496685,0.1208399330387199,0,70,255.0,255.0,255.0
175,8.75,7.5039,2.9952,-6.0868,0.007739532531593035,-0.008773158727190006,-0.0790577916812352,0.012313984675746008,-0.009048996909962248,0.10839333277159935,0,70,255.0,255.0,255.0
176,8.8,7.504302211546191,2.994749839384185,-6.090621580667928,0.008345778091452974,-0.009237094571775864,-0.07388909003248079,0.01193583771865123,-0.009508436873471854,0.09835473317857443,0,70,255.0,255.0,255.0
177,8.85,7.50473426268668,2.9942759076761862,-6.094197274502909,0.008933116303458154,-0.009724002414537187,-0.06922231836337776,0.011557690761556468,-0.009967876836981445,0.08831613358554986,0,70,255.0,255.0,255.0
178,8.9,7.505195208054074,2.9937770562760946,-6.097552178003927,0.009501547167608617,-0.010233882255474008,-0.06505747667392585,0.01117954380446169,-0.010427316800491053,0.07827753399252495,0,70,255.0,255.0,255.0
179,8.950000000000001,7.505684102280978,2.9932521365840024,-6.100711387669962,0.010051070683904338,-0.010766734094586308,-0.06139456496412517,0.010801396847366914,-0.010886756764000659,0.06823893439950002,0,70,255.0,255.0,255.0
180,9.0,7.5062,2.9927,-6.1037,0.010581686852345305,-0.011322557931874066,-0.058233583233975844,0.010423249890272157,-0.011346196727510208,0.05820033480647524,0,70,255.0,255.0,255.0
181,9.05,7.506742344218804,2.992119571022543,-6.106543411660424,0.011116698176223457,-0.011896967865512087,-0.05559254152767212,0.010977203064853587,-0.011630200618010329,0.04744133344567228,0,70,255.0,255.0,255.0
182,9.1,7.507312131445267,2.9915100665435403,-6.109268219987235,0.011679407158830658,-0.012485577993675095,-0.05348944988940862,0.011531156239434999,-0.01191420450851044,0.03668233208486969,0,70,255.0,255.0,255.0
183,9.15,7.507910746562331,2.9908707765532663,-6.111901322483833,0.012269813800166954,-0.013088388316363128,-0.05192430831918518,0.01208510941401643,-0.012198208399010563,0.02592333072406673,0,70,255.0,255.0,255.0
184,9.200000000000001,7.50853957445293,2.990200991041995,-6.11446961665362,0.012887918100232319,-0.013705398833576167,-0.0508971168170019,0.012639062588597861,-0.012482212289510684,0.015164329363263764,0,70,255.0,255.0,255.0
185,9.25,7.5092,2.9895,-6.117,0.013533720059026736,-0.01433660954531419,-0.0504078753828588,0.013193015763179314,-0.01276621618001067,0.0044053280024611285,0,70,255.0,255.0,255.0
186,9.3,7.509893211578596,2.9887670765256447,-6.119519972690376,0.014195429203654825,-0.014983033966176873,-0.050492743856829454,0.013275350021943886,-0.01309076065449623,-0.007800066961287107,0,70,255.0,255.0,255.0
187,9.35,7.510619611532248,2.9880014261496535,-6.122059445548153,0.01486125506122112,-0.015645685610763807,-0.05118788207898748,0.013357684280708456,-0.013415305128981779,-0.02000546192503491,0,70,255.0,255.0,255.0
188,9.4,7.5113794056966015,2.9872022375108394,-6.124648932060743,0.015531197631725665,-0.016324564479075047,-0.05249329004933295,0.013440018539473029,-0.013739849603467337,-0.03221085688878314,0,70,255.0,255.0,255.0
189,9.450000000000001,7.512172799907303,2.986368699248018,-6.1273189457155555,0.016205256915168442,-0.017019670571110562,-0.05440896776786584,0.0135223527982376,-0.014064394077952899,-0.044416251852531376,0,70,255.0,255.0,255.0
190,9.5,7.513,2.9855,-6.1301,0.01688343291154942,-0.017731003886870326,-0.056934915234586055,0.013604687057002213,-0.014388938552438363,-0.05662164681627896,0,70,255.0,255.0,255.0
191,9.55,7.513861609466812,2.984595322874878,-6.133021497578077,0.017589585009158432,-0.0184588962697813,-0.06000448304500584,0.014641396847358011,-0.014726756764000214,-0.06616106560051066,0,70,255.0,255.0,255.0
192,9.600000000000001,7.5147598224257415,2.9836538288578454,-6.136108397820154,0.018347572596285243,-0.019203679563270366,-0.06355102179463722,0.01567810663771381,-0.015064574975562066,-0.07570048438474236,0,70,255.0,255.0,255.0
193,9.65,7.5156972306512655,2.9826746734033747,-6.139384549273194,0.019157395672929806,-0.0199653537673375,-0.06757453148348003,0.01671481642806957,-0.015402393187123905,-0.08523990316897373,0,70,255.0,255.0,255.0
194,9.700000000000001,7.516676425917859,2.981657011965936,-6.142873800484156,0.020019054239092195,-0.020743918881982754,-0.07207501211153458,0.017751526218425368,-0.015740211398685755,-0.09477932195320543,0,70,255.0,255.0,255.0
195,9.75,7.5177,2.9806,-6.1466,0.020932548294772337,-0.02153937490720607,-0.07705246367880053,0.01878823600878113,-0.01607802961024754,-0.10431874073743685,0,70,255.0,255.0,255.0
196,9.8,7.518769950554157,2.979502831974844,-6.1505876369973205,0.021862230759707342,-0.022349380954700026,-0.08254532396315457,0.018399062588618544,-0.016322212289510193,-0.11539567063672188,0,70,255.0,255.0,255.0
197,9.850000000000001,7.5198858987647865,2.978364858418964,-6.154863763171232,0.02277245455363422,-0.023171596136157113,-0.08859203074247289,0.018009889168455955,-0.01656639496877285,-0.1264726005360069,0,70,255.0,255.0,255.0
198,9.9,7.521046871698337,2.977185468875662,-6.159456070846483,0.02366321967655293,-0.024006020451577306,-0.0951925840167552,0.017620715748293384,-0.016810577648035493,-0.1375495304352915,0,70,255.0,255.0,255.0
199,9.950000000000001,7.522251896421259,2.97596405288824,-6.164392252347823,0.02453452612846355,-0.02485265390096066,-0.102346983786002,0.017231542328130796,-0.017054760327298146,-0.14862646033457652,0,70,255.0,255.0,255.0
200,10.0,7.5235,2.9747,-6.1697,0.025386373909366006,-0.025711496484307112,-0.11005523005021277,0.01684236890796828,-0.01729894300656079,-0.15970339023386082,0,70,255.0,255.0,255.0
201,10.05,7.524790588316558,2.9733925492257463,-6.175407954432644,0.026241491952020943,-0.026591579911419957,-0.11837422110237245,0.01736235279822869,-0.017904394077952437,-0.17305625185252124,0,70,255.0,255.0,255.0
202,10.100000000000001,7.526124582515111,2.9720403374662983,-6.181548549494919,0.0271226091891889,-0.02750193589210238,-0.12736085523546514,0.017882336688489094,-0.018509845149344086,-0.18640911347118166,0,70,255.0,255.0,255.0
203,10.15,7.527503282555386,2.9706418510939767,-6.188155167340873,0.028029725620869847,-0.028442564426354358,-0.1370151324494905,0.018402320578749486,-0.01911529622073571,-0.19976197508984161,0,70,255.0,255.0,255.0
204,10.200000000000001,7.528927988397106,2.9691955764811033,-6.195261190124551,0.028962841247063845,-0.029413465514175945,-0.14733705274444925,0.018922304469009894,-0.019720747292127357,-0.213114836708502,0,70,255.0,255.0,255.0
205,10.25,7.5304,2.9677,-6.2029,0.02992195606777083,-0.030414639155567084,-0.1583266161203406,0.01944228835927031,-0.02032619836351887,-0.22646769832716185,0,70,255.0,255.0,255.0
206,10.3,7.531920496179613,2.966154171122169,-6.2110997452721035,0.030899801432212697,-0.0314122993996222,-0.16966979162735077,0.019671526218403804,-0.019580211398685248,-0.2272593219532377,0,70,255.0,255.0,255.0
207,10.350000000000001,7.533490171174771,2.9645593917158415,-6.21986763884909,0.031889108689611236,-0.03237266029543563,-0.1810525483156647,0.019900764077537297,-0.01883422443385163,-0.22805094557931355,0,70,255.0,255.0,255.0
208,10.4,7.5351095980801235,2.9629175267484293,-6.229205659790025,0.03288987783996642,-0.03329572184300736,-0.19247488618528202,0.020130001936670784,-0.018088237469018033,-0.22884256920538934,0,70,255.0,255.0,255.0
209,10.450000000000001,7.536779349990316,2.961230441187345,-6.239115787153973,0.03390210888327831,-0.03418148404233743,-0.20393680523620356,0.020359239795804278,-0.01734225050418441,-0.2296341928314652,0,70,255.0,255.0,255.0
210,10.5,7.5385,2.9595,-6.2496,0.03492580181954684,-0.03502994689342579,-0.21543830546842846,0.020588477654937765,-0.016596263539350786,-0.23042581645753968,0,70,255.0,255.0,255.0
211,10.55,7.540271426964994,2.957727566285576,-6.260645864478943,0.03591930231912389,-0.035871222490091816,-0.22611461238823125,0.01915154232814338,-0.01705476032728965,-0.19662646033456554,0,70,255.0,255.0,255.0
212,10.600000000000001,7.542090732785807,2.9559124956703338,-6.272183295108721,0.0368409560523612,-0.03673542292615478,-0.23510095150188529,0.017714607001348994,-0.01751325711522851,-0.1628271042115914,0,70,255.0,255.0,255.0
213,10.65,7.5439543251241235,2.954053641912304,-6.284127793499028,0.03769076301925878,-0.037622548201614654,-0.24239732280939036,0.016277671674554663,-0.017971753903167357,-0.1290277480886185,0,70,255.0,255.0,255.0
214,10.700000000000001,7.545858611641627,2.952149858769516,-6.296394861259558,0.03846872321981667,-0.03853259831647151,-0.24800372631074705,0.014840736347760277,-0.01843025069110622,-0.09522839196564437,0,70,255.0,255.0,255.0
215,10.75,7.5478,2.9502,-6.3089,0.03917483665403481,-0.03946557327072528,-0.25192016200595485,0.013403801020965889,-0.01888874747904512,-0.06142903584267101,0,70,255.0,255.0,255.0
216,10.8,7.549775395960414,2.948203563735526,-6.321575996812129,0.03983898929128455,-0.04038281064000493,-0.25518375881973365,0.013162304469023275,-0.01780074729214028,-0.06911483670847932,0,70,255.0,255.0,255.0
217,10.850000000000001,7.551783697682001,2.946162625602822,-6.334424780716029,0.04049106710093716,-0.04124564799993933,-0.25883164567680284,0.01292080791708066,-0.01671274710523544,-0.07680063757428761,0,70,255.0,255.0,255.0
218,10.9,7.553824301423381,2.9440799056023548,-6.347465566213865,0.04113107008299261,-0.042054085350528465,-0.2628638225771624,0.012679311365138056,-0.015624746918330637,-0.08448643844009564,0,70,255.0,255.0,255.0
219,10.950000000000001,7.555896603443174,2.941958123734592,-6.3607175678078,0.04175899823745096,-0.042808122691772386,-0.26728028952081245,0.012437814813195442,-0.014536746731425798,-0.09217223930590393,0,70,255.0,255.0,255.0
220,11.0,7.558,2.9398,-6.3742,0.042374851564312144,-0.043507760023671044,-0.27208104650775267,0.012196318261252781,-0.013448746544520884,-0.09985804017170974,0,70,255.0,255.0,255.0
221,11.05,7.560134189193348,2.9376077787723194,-6.387927748272544,0.042996740515738596,-0.0441815349498887,-0.2770063523328321,0.01267923979580515,-0.013502250504184765,-0.09715419283146587,0,70,255.0,255.0,255.0
222,11.100000000000001,7.562300076486186,2.935381801918378,-6.401898382027167,0.043642775543892676,-0.044857985074089536,-0.2817964657908994,0.013162161330357516,-0.013555754463848647,-0.09445034549122201,0,70,255.0,255.0,255.0
223,11.15,7.564498869182349,2.933121935678277,-6.416105141645517,0.04431295664877435,-0.045537110396273554,-0.2864513868819543,0.013645082864909867,-0.013609258423512528,-0.09174649815097824,0,70,255.0,255.0,255.0
224,11.200000000000001,7.5667317745856755,2.9308280462921177,-6.430541267509245,0.04500728383038366,-0.046218910916440786,-0.2909711156059972,0.014128004399462234,-0.01366276238317641,-0.08904265081073438,0,70,255.0,255.0,255.0
225,11.25,7.569,2.9285,-6.4452,0.045725757088720564,-0.04690338663459119,-0.2953556519630277,0.014610925934014585,-0.013716266342840289,-0.08633880347049061,0,70,255.0,255.0,255.0
226,11.3,7.571304647266192,2.926137321175197,-6.460076210097696,0.046462048645764524,-0.04761104956043966,-0.2997028318489316,0.01484073634774328,-0.014590250691098195,-0.08754839196566327,0,70,255.0,255.0,255.0
227,11.350000000000001,7.573646396373254,2.923738166723666,-6.4751712911753065,0.04720983072349491,-0.04836241170370103,-0.3041104911595942,0.015070546761471976,-0.015464235039356103,-0.08875798046083595,0,70,255.0,255.0,255.0
228,11.4,7.57602582184722,2.9213003516845366,-6.490488267204068,0.04796910332191172,-0.04915747306437527,-0.30857862989501517,0.015300357175200665,-0.01633821938761398,-0.08996756895600858,0,70,255.0,255.0,255.0
229,11.450000000000001,7.578443498214124,2.9188216910969382,-6.50603016215522,0.048739866441014974,-0.049996233642462425,-0.31310724805519496,0.015530167588929361,-0.017212203735871887,-0.09117715745118125,0,70,255.0,255.0,255.0
230,11.5,7.5809,2.9163,-6.5218,0.049522120080804644,-0.05087869343796245,-0.3176963456401333,0.01575997800265805,-0.018086188084129762,-0.09238674594635521,0,70,255.0,255.0,255.0
231,11.55,7.58339522174188,2.9137341365268936,-6.537799411336673,0.0502750649012013,-0.05174226680835166,-0.32226232027144,0.014357814813207949,-0.01645674673143833,-0.09025223930590733,0,70,255.0,255.0,255.0
232,11.600000000000001,7.585926338020795,2.9111271311869586,-6.55402445327161,0.05095790156212546,-0.0525243681111063,-0.32672156957072424,0.012955651623757851,-0.0148273053787469,-0.08811773266545944,0,70,255.0,255.0,255.0
233,11.65,7.5884898434287695,2.908483057583577,-6.570469789538211,0.05157063006357709,-0.05322499734622634,-0.33107409353798584,0.011553488434307802,-0.013197864026055528,-0.08598322602501163,0,70,255.0,255.0,255.0
234,11.700000000000001,7.591082232557828,2.9058059893201302,-6.587130083869876,0.052113250405556234,-0.05384415451371185,-0.33531989217322533,0.010151325244857705,-0.011568422673364097,-0.08384871938456376,0,70,255.0,255.0,255.0
235,11.75,7.5937,2.9031,-6.604,0.052585762588062857,-0.05438183961356276,-0.33945896547644216,0.008749162055407544,-0.009938981320672613,-0.08171421274411372,0,70,255.0,255.0,255.0
236,11.8,7.596340865766282,2.900367732717228,-6.621075744555613,0.053061691749434405,-0.05492388320615868,-0.3435838870653129,0.010288004399454098,-0.01174276238316381,-0.08328265081071289,0,70,255.0,255.0,255.0
237,11.850000000000001,7.599007451543564,2.8976061085284983,-6.638359695738255,0.05361456302800828,-0.055556115851879154,-0.3477872305575136,0.011826846743500652,-0.013546543445655009,-0.08485108887731205,0,70,255.0,255.0,255.0
238,11.9,7.601703604437703,2.894810617981155,-6.655855774643087,0.05424437642378446,-0.056278537550724164,-0.3520689959530441,0.01336568908754715,-0.015350324508146142,-0.08641952694391117,0,70,255.0,255.0,255.0
239,11.950000000000001,7.604433171554563,2.8919767516225408,-6.67356790236528,0.054951131936762994,-0.05709114830269377,-0.35642918325190465,0.014904531431593704,-0.01715410557063734,-0.08798796501051033,0,70,255.0,255.0,255.0
240,12.0,7.6072,2.8891,-6.6915,0.055734829566943825,-0.057993948107787886,-0.360867792454095,0.016443373775640313,-0.018957886633128196,-0.08955640307710899,0,70,255.0,255.0,255.0
241,12.05,7.610006915192989,2.886177332604193,-6.709654410440874,0.05653416810105808,-0.0588982003670129,-0.36529013146730255,0.01553016758892941,-0.017212203735871786,-0.08733715745119147,0,70,255.0,255.0,255.0
242,12.100000000000001,7.61285265580495,2.8832116346990464,-6.728027163775375,0.057287846325836785,-0.059715168481375085,-0.3696015081992143,0.014616961402218506,-0.015466520838615378,-0.08511791182527395,0,70,255.0,255.0,255.0
243,12.15,7.615734938820417,2.880207270491803,-6.74661271188944,0.05799586424127993,-0.060444852450874435,-0.37380192264983,0.013703755215507634,-0.01372083794135903,-0.08289866619935651,0,70,255.0,255.0,255.0
244,12.200000000000001,7.618651481223922,2.8771686041897064,-6.765405506669003,0.05865822184738754,-0.061087252275510984,-0.3778913748191499,0.01279054902879673,-0.011975155044102622,-0.08067942057343899,0,70,255.0,255.0,255.0
245,12.25,7.6216,2.8741,-6.7844,0.0592749191441596,-0.061642367955284695,-0.3818698647071738,0.011877342842085914,-0.010229472146846053,-0.07846017494751978,0,70,255.0,255.0,255.0
246,12.3,7.6245786734617615,2.8710045368659993,-6.803592213680892,0.05987363584633352,-0.062187315325790166,-0.38583158706547616,0.012071325244870238,-0.011568422673372599,-0.08000871938457099,0,70,255.0,255.0,255.0
247,12.350000000000001,7.627587525236635,2.867880152675315,-6.822984449160245,0.06048205166864665,-0.06279921022262197,-0.38987073664563104,0.012265307647654562,-0.012907373199899146,-0.0815572638216222,0,70,255.0,255.0,255.0
248,12.4,7.630627040280629,2.864723500051632,-6.842580577799152,0.06110016661109897,-0.06347805264578008,-0.3939873134476383,0.012459290050438877,-0.014246323726425645,-0.08310580825867336,0,70,255.0,255.0,255.0
249,12.450000000000001,7.633697703549748,2.861531231618632,-6.862384470958706,0.06172798067369053,-0.06422384259526454,-0.3981813174714984,0.0126532724532232,-0.015585274252952194,-0.08465435269572458,0,70,255.0,255.0,255.0
250,12.5,7.6368,2.8583,-6.8824,0.06236549385642128,-0.06503658007107528,-0.4024527487172107,0.012847254856007295,-0.016924224779478414,-0.08620289713277351,0,70,255.0,255.0,255.0
251,12.55,7.639934390959964,2.855027719931809,-6.902629534835559,0.063011288513611,-0.06584053832982788,-0.4067115202707926,0.012984531431581039,-0.015234105570624521,-0.08414796501050145,0,70,255.0,255.0,255.0
252,12.600000000000001,7.643101243248508,2.851717354599691,-6.923069439583644,0.0636639469995794,-0.06655999062813775,-0.41086754521826097,0.013121808007154782,-0.013543986361770628,-0.08209303288822939,0,70,255.0,255.0,255.0
253,12.65,7.646300900057069,2.8483731293016694,-6.943714576913949,0.06432346931432648,-0.06719493696600493,-0.41492082355961557,0.01325908458272852,-0.011853867152916796,-0.0800381007659574,0,70,255.0,255.0,255.0
254,12.700000000000001,7.649533704577086,2.8449992693357644,-6.964559809496171,0.06498985545785226,-0.06774537734342943,-0.41887135529485664,0.013396361158302264,-0.010163747944062903,-0.07798316864368533,0,70,255.0,255.0,255.0
255,12.75,7.6528,2.8416,-6.9856,0.06566310543015669,-0.06821131176041122,-0.42271914042398406,0.013533637733875947,-0.008473628735208849,-0.07592823652141156,0,70,255.0,255.0,255.0
256,12.8,7.656099762698382,2.838178183406765,-7.006831246976873,0.06632121009922351,-0.06867453135489433,-0.4265383318513556,0.01279054902879685,-0.01005515504411556,-0.07683942057344703,0,70,255.0,255.0,255.0
257,12.850000000000001,7.659431501769335,2.83473122892592,-7.028254592505179,0.06694216033303639,-0.06921682726482278,-0.43040308248132886,0.012047460323717752,-0.011636681353022272,-0.07775060462548249,0,70,255.0,255.0,255.0
258,12.9,7.662793359491098,2.831255182741692,-7.049872314545049,0.06752595613159529,-0.06983819949019655,-0.4343133923139038,0.01130437161863868,-0.013218207661928928,-0.07866178867751793,0,70,255.0,255.0,255.0
259,12.950000000000001,7.666183478141907,2.827746091038309,-7.071686691056613,0.06807259749490024,-0.07053864803101569,-0.4382692613490807,0.010561282913559584,-0.014799733970835638,-0.0795729727295534,0,70,255.0,255.0,255.0
260,13.0,7.6696,2.8242,-7.0937,0.06858208442295124,-0.07131817288728011,-0.44227068958685906,0.009818194208480291,-0.016381260279742293,-0.08048415678158927,0,70,255.0,255.0,255.0
261,13.05,7.6730417582465105,2.8206139464411306,-7.115913477256951,0.06909587108949394,-0.07211733625059748,-0.4462551523237914,0.010733272453227518,-0.015585274252952053,-0.07889435269570348,0,70,255.0,255.0,255.0
262,13.100000000000001,7.676510349674152,2.8169889296966293,-7.138324190395641,0.06965541166827402,-0.07287670031257533,-0.45016012485642953,0.011648350697974744,-0.014789288226161811,-0.0773045486098177,0,70,255.0,255.0,255.0
263,13.15,7.680008061978541,2.813326939731562,-7.160928164905855,0.0702607061592914,-0.07359626507321365,-0.45398560718477315,0.012563428942721938,-0.013993302199371598,-0.07571474452393198,0,70,255.0,255.0,255.0
264,13.200000000000001,7.683537182855287,2.8096299665109967,-7.183721426277381,0.0709117545625462,-0.07427603053251249,-0.4577315993088227,0.013478507187469166,-0.013197316172581358,-0.0741249404380462,0,70,255.0,255.0,255.0
265,13.25,7.6871,2.8059,-7.2067,0.07160855687803831,-0.07491599669047179,-0.46139810122857783,0.014393585432215805,-0.012401330145791145,-0.07253513635215825,0,70,255.0,255.0,255.0
266,13.3,7.690698004315578,2.802138830828711,-7.229861243995323,0.07230330554280127,-0.07552812364271781,-0.46506505885347416,0.01339636115830208,-0.012083747944049846,-0.07414316864369239,0,70,255.0,255.0,255.0
267,13.350000000000001,7.694329499534052,2.7983474522875627,-7.253207845912258,0.07294819299386854,-0.07612437148487679,-0.46881241809294716,0.012399136884388356,-0.011766165742308545,-0.07575120093522654,0,70,255.0,255.0,255.0
268,13.4,7.697991992594737,2.7945266583320585,-7.276743825831527,0.0735432192312401,-0.07670474021694867,-0.4726401789469968,0.011401912610474668,-0.011448583540567256,-0.07735923322676062,0,70,255.0,255.0,255.0
269,13.450000000000001,7.7016829904369475,2.7906772429177025,-7.3004732038338656,0.074088384254916,-0.07726922983893351,-0.47654834141562324,0.010404688336560941,-0.011131001338825957,-0.07896726551829478,0,70,255.0,255.0,255.0
270,13.5,7.7054,2.7868,-7.3244,0.0745836880648962,-0.07781784035083127,-0.4805369054988262,0.009407464062647253,-0.010813419137084668,-0.08057529780983064,0,70,255.0,255.0,255.0
271,13.55,7.709141424491178,2.782895530244023,-7.348526346761753,0.07508290673930137,-0.0783621691785295,-0.48449261226231144,0.01056128291355964,-0.010959733970844557,-0.07765297272957593,0,70,255.0,255.0,255.0
272,13.600000000000001,7.71290925218964,2.778963661153119,-7.372846825955332,0.07563981635625217,-0.07891381374791574,-0.48830220277178393,0.011715101764472024,-0.011106048804604444,-0.0747306476493212,0,70,255.0,255.0,255.0
273,13.65,7.716706367642511,2.775004026940203,-7.397354131768031,0.07625441691574857,-0.07947277405898993,-0.4919656770272436,0.01286892061538437,-0.011252363638364328,-0.0718083225690666,0,70,255.0,255.0,255.0
274,13.700000000000001,7.720535655396922,2.7710162618181915,-7.422040958387155,0.0769267084177906,-0.08003905011175216,-0.49548303502869057,0.014022739466296754,-0.011398678472124215,-0.06888599748881188,0,70,255.0,255.0,255.0
275,13.75,7.7244,2.767,-7.4469,0.07765669086237824,-0.08061264190620236,-0.4988542767761247,0.015176558317208877,-0.011544993305883655,-0.06596367240855461,0,70,255.0,255.0,255.0
276,13.8,7.7283010977197115,2.7629550481951966,-7.471926168957664,0.07837306749999519,-0.0811831996431639,-0.5022124920972892,0.013478507187468744,-0.01127731617257714,-0.06836494043802353,0,70,255.0,255.0,255.0
277,13.850000000000001,7.732235891707392,2.758881903099961,-7.497123250266421,0.07900454158112513,-0.08174037352346009,-0.5056907708199272,0.011780456057728612,-0.011009639039270628,-0.07076620846749246,0,70,255.0,255.0,255.0
278,13.9,7.736200136835216,2.7547812339071283,-7.522497247096347,0.07955111310576805,-0.08228416354709095,-0.5092891129440384,0.01008240492798854,-0.010741961905964124,-0.07316747649696131,0,70,255.0,255.0,255.0
279,13.950000000000001,7.740189587975361,2.7506537098095296,-7.548054162617516,0.08001278207392397,-0.0828145697140565,-0.5130075184696232,0.008384353798248409,-0.01047428477265761,-0.07556874452643024,0,70,255.0,255.0,255.0
280,14.0,7.7442,2.7465,-7.5738,0.0803895484855929,-0.08333159202435671,-0.5168459873966814,0.006686302668508448,-0.010206607639351328,-0.07797001255589908,0,70,255.0,255.0,255.0
281,14.05,7.748228584629977,2.7423202769751915,-7.599738577407598,0.08076882326071932,-0.08386503224881137,-0.5206734193485362,0.008484688336548432,-0.01113100133883468,-0.07512726551828784,0,70,255.0,255.0,255.0
282,14.100000000000001,7.752278380980796,2.7381127264470364,-7.625864972978991,0.08123801731924775,-0.08444469215824019,-0.5243587139485103,0.010283074004588418,-0.012055395038318033,-0.07228451848067659,0,70,255.0,255.0,255.0
283,14.15,7.756353885016624,2.733875037431285,-7.652172079846584,0.08179713066117818,-0.08507057175264317,-0.5279018711966037,0.012081459672628338,-0.012979788737801352,-0.06944177144306544,0,70,255.0,255.0,255.0
284,14.200000000000001,7.760459592701637,2.7296048989436885,-7.6786527911427855,0.0824461632865106,-0.08574267103202032,-0.5313028910928168,0.013879845340668322,-0.013904182437284704,-0.0665990244054542,0,70,255.0,255.0,255.0
285,14.25,7.7646,2.7253,-7.7053,0.083185115195245,-0.08646098999637161,-0.5345617736371492,0.015678231008708576,-0.014828576136767468,-0.06375627736784306,0,70,255.0,255.0,255.0
286,14.3,7.76877816376038,2.7209590439040374,-7.7321083214119515,0.08392763945712058,-0.0871646713615938,-0.5377818305085658,0.014022739466313714,-0.013318678472119339,-0.06504599748881985,0,70,255.0,255.0,255.0
287,14.350000000000001,7.772991384369426,2.7165847911118943,-7.759079257817625,0.0845873891418764,-0.08779285784358357,-0.5410663733860313,0.012367247923918852,-0.01180878080747121,-0.06633571760979663,0,70,255.0,255.0,255.0
288,14.4,7.777235523098283,2.7121810163677327,-7.786216033517322,0.08516436424951246,-0.08834554944234091,-0.5444154022695454,0.010711756381524051,-0.010298883142823134,-0.06762543773077337,0,70,255.0,255.0,255.0
289,14.450000000000001,7.7815064412180925,2.7077514944157137,-7.8135218728113465,0.08565856478002878,-0.08882274615786587,-0.5478289171591086,0.00905626483912919,-0.008788985478175006,-0.06891515785175016,0,70,255.0,255.0,255.0
290,14.5,7.7858,2.7033,-7.841,0.08606999073342536,-0.0892244479901584,-0.5513069180547204,0.007400773296734053,-0.007279087813526597,-0.07020487797272867,0,70,255.0,255.0,255.0
291,14.55,7.790113160328502,2.6988291474086585,-7.8686529369446,0.08646461891079993,-0.08962028230481292,-0.5548072586171994,0.008384353798248437,-0.008554284772653716,-0.06980874452642727,0,70,255.0,255.0,255.0
292,14.600000000000001,7.7944472815414985,2.6943369091053864,-7.896480395750515,0.08690842611325023,-0.09007987646742378,-0.5582877925073633,0.00936793429976282,-0.009829481731780835,-0.06941261108012585,0,70,255.0,255.0,255.0
293,14.65,7.7988048225902435,2.689820097097784,-7.924481386084131,0.0874014123407762,-0.09060323047799099,-0.561748519725212,0.010351514801277169,-0.011104678690907907,-0.06901647763382446,0,70,255.0,255.0,255.0
294,14.700000000000001,7.8031882424259935,2.685275523393454,-7.952654917611831,0.08794357759337794,-0.09119034433651457,-0.5651894402707456,0.011335095302791552,-0.012379875650035028,-0.06862034418752304,0,70,255.0,255.0,255.0
295,14.75,7.8076,2.6807,-7.981,0.08853492187105536,-0.0918412180429945,-0.5686105541439643,0.012318675804305235,-0.013655072609162211,-0.06822421074122254,0,70,255.0,255.0,255.0
296,14.8,7.8120419949256155,2.676091566461327,-8.009515130809653,0.08914188489967939,-0.0924821994191558,-0.5719811350226313,0.0119598453406557,-0.011984182437288892,-0.0665990244054537,0,70,255.0,255.0,255.0
297,14.850000000000001,7.816513889464581,2.6714531724665607,-8.038196759180318,0.08973090640512094,-0.0930396362867234,-0.5752704565845098,0.011601014877006167,-0.010313292265415571,-0.06497383806968489,0,70,255.0,255.0,255.0
298,14.9,7.821014786540741,2.666788995241131,-8.067040822146156,0.09030198638738,-0.09351352864569734,-0.5784785188295998,0.011242184413356646,-0.008642402093542311,-0.06334865173391611,0,70,255.0,255.0,255.0
299,14.950000000000001,7.825543789077933,2.662103212010468,-8.096043256741332,0.0908551248464566,-0.09390387649607763,-0.5816053217579014,0.010883353949707112,-0.006971511921668992,-0.06172346539814729,0,70,255.0,255.0,255.0
300,15.0,7.8301,2.6574,-8.1252,0.0913903217823507,-0.09421067983786426,-0.5846508653694145,0.010524523486057258,-0.005300621749795176,-0.06009827906237852,0,70,255.0,255.0,255.0
301,15.05,7.834682859969039,2.652682186746033,-8.154508139816794,0.09192784149048068,-0.0945149200185634,-0.5876842012922686,0.010976264839141676,-0.006868985478170497,-0.061235157851785633,0,70,255.0,255.0,255.0
302,15.100000000000001,7.839293160600176,2.64794720102837,-8.183969367528219,0.09248794826626487,-0.09489757838568132,-0.5907743811545931,0.011428006192226094,-0.008437349206545819,-0.06237203664119274,0,70,255.0,255.0,255.0
303,15.15,7.843932031246793,2.6431911219376905,-8.213586525331243,0.09307064210970328,-0.09535865493921798,-0.5939214049563879,0.011879747545310496,-0.010005712934921085,-0.0635089154305998,0,70,255.0,255.0,255.0
304,15.200000000000001,7.848600601262273,2.6384100285646745,-8.243362455422847,0.09367592302079591,-0.09589814967917343,-0.597125272697653,0.012331488898394914,-0.011574076663296406,-0.06464579422000692,0,70,255.0,255.0,255.0
305,15.25,7.8533,2.6336,-8.2733,0.09430379099954277,-0.0965160626055476,-0.6003859843783886,0.012783230251479316,-0.013142440391670673,-0.0657826730094131,0,70,255.0,255.0,255.0
306,15.3,7.85803056519823,2.628758086554542,-8.303401109923172,0.09490674913839954,-0.09715412050659024,-0.603650059808311,0.011335095302791311,-0.012379875650034877,-0.06478034418748083,0,70,255.0,255.0,255.0
307,15.350000000000001,7.862789468134715,2.6238852234199586,-8.333664170706815,0.09543730052982191,-0.09775405017055111,-0.6068640187971368,0.009886960354103306,-0.011617310908399082,-0.06377801536554856,0,70,255.0,255.0,255.0
308,15.4,7.867573088472088,2.6189833170081047,-8.364086676528867,0.09589544517380988,-0.09831585159743014,-0.6100278613448659,0.008438825405415351,-0.010854746166763313,-0.06277568654361633,0,70,255.0,255.0,255.0
309,15.450000000000001,7.872377805872973,2.614054273730834,-8.394666121567283,0.09628118307036344,-0.09883952478722742,-0.6131415874514985,0.006990690456727347,-0.010092181425127517,-0.06177335772168406,0,70,255.0,255.0,255.0
310,15.5,7.8772,2.6091,-8.4254,0.0965945142194826,-0.09932506973994289,-0.6162051971170343,0.005542555508039615,-0.009329616683491415,-0.06077102889975006,0,70,255.0,255.0,255.0
311,15.55,7.882037279238044,2.6041222670357995,-8.456285820490518,0.09690916195592607,-0.099780597955072,-0.6192195594744818,0.007043353949698926,-0.00889151192167305,-0.059803465398151255,0,70,255.0,255.0,255.0
312,15.600000000000001,7.886892166860962,2.5991223052917944,-8.48732114964453,0.09729884961445251,-0.1002142209321102,-0.6221855436568494,0.008544152391358237,-0.008453407159854685,-0.05883590189655245,0,70,255.0,255.0,255.0
313,15.65,7.891768414864857,2.59410121002989,-8.518503568553284,0.09776357719506189,-0.10062593867105747,-0.625103149664137,0.010044950833017496,-0.008015302398036337,-0.05786833839495368,0,70,255.0,255.0,255.0
314,15.700000000000001,7.896669775245835,2.58906007651199,-8.549830658308027,0.09830334469775424,-0.10101575117191385,-0.6279723774963448,0.011545749274676807,-0.0075771976362179715,-0.05690077489335488,0,70,255.0,255.0,255.0
315,15.75,7.9016,2.584,-8.5813,0.09891815212252957,-0.10138365843467925,-0.6307932271534726,0.013046547716336065,-0.007139092874399289,-0.055933211391757,0,70,255.0,255.0,255.0
316,15.8,7.906561917849598,2.5789216453022608,-8.612910008114762,0.09955260303789785,-0.10175548767312187,-0.6336157022937673,0.01233148889839485,-0.0077340766633048645,-0.05696579422002516,0,70,255.0,255.0,255.0
317,15.850000000000001,7.911554664421441,2.573823955412864,-8.644662430715067,0.10015130101236906,-0.10215706610100976,-0.6364898065754753,0.011616430080453634,-0.00832906045221044,-0.057998377048293324,0,70,255.0,255.0,255.0
318,15.9,7.916576452068486,2.568705442872336,-8.676559849257998,0.1007142460459432,-0.1025883937183429,-0.6394155399985966,0.010901371262512444,-0.008924044241115996,-0.05903095987656145,0,70,255.0,255.0,255.0
319,15.950000000000001,7.921625493143687,2.5635646202212055,-8.708604845200618,0.10124143813862031,-0.10304947052512134,-0.6423929025631313,0.010186312444571228,-0.00951902803002157,-0.06006354270482961,0,70,255.0,255.0,255.0
320,16.0,7.9267,2.5584,-8.7408,0.10173287729040034,-0.10354029652134505,-0.6454218942690795,0.00947125362663015,-0.010114011818927349,-0.061096125533097734,0,70,255.0,255.0,255.0
321,16.05,7.931798249363567,2.553210351755156,-8.77314694705045,0.10219242589248417,-0.104045451352446,-0.6484456313504483,0.008910690456722962,-0.010092181425110435,-0.059853357721653545,0,70,255.0,255.0,255.0
322,16.1,7.936918775453274,2.54799547305675,-8.805643527495203,0.10262394633607265,-0.1045495146638561,-0.6514072300412449,0.008350127286815773,-0.010070351031293522,-0.058610589910209364,0,70,255.0,255.0,255.0
323,16.150000000000002,7.942060176861198,2.542755418480765,-8.838286634414732,0.10302743862116577,-0.10505248645557537,-0.6543066903414693,0.007789564116908586,-0.01004852063747661,-0.057367822098765175,0,70,255.0,255.0,255.0
324,16.2,7.947221052179415,2.5374902426031873,-8.871073160889505,0.1034029027477635,-0.10555436672760375,-0.6571440122511214,0.0072290009470014375,-0.010026690243659698,-0.05612505428732108,0,70,255.0,255.0,255.0
325,16.25,7.9524,2.5322,-8.904,0.10375033871586589,-0.10605515547994133,-0.6599191957702012,0.006668437777093805,-0.010004859849842895,-0.05488228647587601,0,70,255.0,255.0,255.0
326,16.3,7.957596284696138,2.526884947677113,-8.937064603683446,0.10410969339216039,-0.10654270691709296,-0.662665772304433,0.0077057492746855395,-0.009497197636221758,-0.05498077489339455,0,70,255.0,255.0,255.0
327,16.35,7.962811833765464,2.521546152360135,-8.970266659304125,0.10452091364333445,-0.10700487524356352,-0.6654172732595407,0.008743060772277274,-0.008989535422600621,-0.05507926331091309,0,70,255.0,255.0,255.0
328,16.400000000000002,7.96804924048672,2.516184883204601,-9.003606413083082,0.10498399946938812,-0.10744166045935304,-0.6681736986355244,0.009780372269869008,-0.008481873208979486,-0.055177751728431625,0,70,255.0,255.0,255.0
329,16.45,7.973311098138651,2.510802409366045,-9.037084111241358,0.10549895087032132,-0.10785306256446145,-0.6709350484323837,0.01081768376746067,-0.007974210995358385,-0.05527624014595016,0,70,255.0,255.0,255.0
330,16.5,7.9786,2.5054,-9.0707,0.10606576784613417,-0.10823908155888885,-0.6737013226501193,0.01185499526505196,-0.007466548781737248,-0.05537472856346515,0,70,255.0,255.0,255.0
331,16.55,7.9839174118518805,2.4999786575363916,-9.10445383821577,0.10661680053887475,-0.10861572097918294,-0.6764432794318261,0.010186312444571242,-0.007599028030026102,-0.054303542704807646,0,70,255.0,255.0,255.0
332,16.6,7.989260289484871,2.494538317502708,-9.138343435288304,0.1070843990905913,-0.10899898436189148,-0.6791316769206002,0.008517629624090525,-0.0077315072783149565,-0.053232356846150145,0,70,255.0,255.0,255.0
333,16.650000000000002,7.994624461191922,2.4890786487008287,-9.172366113252949,0.10746856350128382,-0.10938887170701445,-0.6817665151164412,0.006848946803609808,-0.00786398652660381,-0.05216117098749264,0,70,255.0,255.0,255.0
334,16.7,8.000005755265983,2.483599319932633,-9.206519194145061,0.10776929377095228,-0.10978538301455183,-0.6843477940193493,0.005180263983129209,-0.007996465774892656,-0.05108998512883522,0,70,255.0,255.0,255.0
335,16.75,8.0054,2.4781,-9.2408,0.10798658989959671,-0.11018851828450368,-0.6868755136293248,0.0035115811626486026,-0.008128945023180512,-0.050018799270178604,0,70,255.0,255.0,255.0
336,16.8,8.010804467896342,2.4725804221773204,-9.275206443453479,0.10820710445233808,-0.11059440916617458,-0.6893851099682617,0.005309000947005952,-0.008106690243655424,-0.05036505428730003,0,70,255.0,255.0,255.0
337,16.85,8.016222208295055,2.467040577629032,-9.309738799542675,0.1085174899942973,-0.11099918730886923,-0.6919120190580549,0.007106420731363301,-0.008084435464130334,-0.050711309304421456,0,70,255.0,255.0,255.0
338,16.900000000000002,8.021657714745594,2.4614805219920832,-9.344397933905134,0.10891774652547442,-0.11140285271258764,-0.694456240898704,0.00890384051572065,-0.008062180684605246,-0.05105756432154288,0,70,255.0,255.0,255.0
339,16.95,8.027115480797422,2.4559003109034228,-9.379184712178391,0.10940787404586935,-0.11180540537732975,-0.697017775490209,0.010701260300077873,-0.008039925905080158,-0.05140381933866429,0,70,255.0,255.0,255.0
340,17.0,8.0326,2.4503,-9.4141,0.10998787255548219,-0.11220684530309562,-0.6995966228325703,0.012498680084434999,-0.008017671125554293,-0.05175007435578216,0,70,255.0,255.0,255.0
341,17.05,8.038114316562748,2.444679653754326,-9.449144387970318,0.11057078165177915,-0.11260664235611845,-0.7021762806951146,0.010817683767443319,-0.007974210995358333,-0.05143624014599019,0,70,255.0,255.0,255.0
342,17.1,8.043655677334915,2.439039371981163,-9.484317366541005,0.11106964093222653,-0.11300426640263146,-0.7047402468471694,0.009136687450451639,-0.00793075086516237,-0.051122405936198226,0,70,255.0,255.0,255.0
343,17.150000000000002,8.049219879825708,2.433379263330837,-9.51961815112653,0.11148445039682434,-0.11339971744263468,-0.7072885212887345,0.007455691133459958,-0.00788729073496641,-0.05080857172640626,0,70,255.0,255.0,255.0
344,17.2,8.054802721544332,2.427699436453675,-9.555045957141367,0.11181521004557253,-0.11379299547612809,-0.7098211040198099,0.005774694816468397,-0.007843830604770452,-0.05049473751661431,0,70,255.0,255.0,255.0
345,17.25,8.0604,2.422,-9.5906,0.11206191987847117,-0.11418410050311172,-0.7123379950403957,0.004093698499476384,-0.007800370474574714,-0.05018090330681613,0,70,255.0,255.0,255.0
346,17.3,8.066008665852666,2.4162809628053763,-9.626279204665245,0.1122937689405363,-0.1145790214093484,-0.7148217672512872,0.0051802639831290236,-0.00799646577489244,-0.04916998512883931,0,70,255.0,255.0,255.0
347,17.35,8.07163028236529,2.410541934446315,-9.662081334293315,0.11257994627678408,-0.11498374708060097,-0.7172549935532797,0.006266829466781663,-0.008192561075210164,-0.048159066950862486,0,70,255.0,255.0,255.0
348,17.400000000000002,8.077267565951582,2.4047824246845657,-9.69800386158876,0.11292045188721447,-0.11539827751686943,-0.7196376739463736,0.007353394950434302,-0.00838865637552789,-0.047148148772885666,0,70,255.0,255.0,255.0
349,17.45,8.082923233025248,2.399001943281878,-9.734044259256136,0.11331528577182749,-0.11582261271815374,-0.7219698084305681,0.008439960434086863,-0.0085847516758456,-0.04613723059490892,0,70,255.0,255.0,255.0
350,17.5,8.0886,2.3932,-9.7702,0.11376444793062315,-0.11625675268445397,-0.7242513970058642,0.009526525917739503,-0.008780846976163548,-0.04512631241692944,0,70,255.0,255.0,255.0
351,17.55,8.094299820026587,2.3873764950241703,-9.806469193368699,0.11422214258606955,-0.11667727200648527,-0.7265206502997527,0.008781260300116445,-0.008039925905088341,-0.0456438193386088,0,70,255.0,255.0,255.0
352,17.6,8.100021593203925,2.381532890233577,-9.842852496285746,0.1146425739606348,-0.11706074527496282,-0.728815778939725,0.008035994682493388,-0.007299004834013135,-0.04616132626028816,0,70,255.0,255.0,255.0
353,17.650000000000002,8.10576345636797,2.3756710379309,-9.879351202518441,0.11502574205431891,-0.1174071724898866,-0.7311367829257815,0.007290729064870329,-0.006558083762937929,-0.04667883318196753,0,70,255.0,255.0,255.0
354,17.7,8.111523546354675,2.369792790418815,-9.91596660583409,0.11537164686712183,-0.1177165536512566,-0.7334836622579217,0.006545463447247324,-0.005817162691862776,-0.04719634010364685,0,70,255.0,255.0,255.0
355,17.75,8.1173,2.3639,-9.9527,0.11568028839904364,-0.11798888875907285,-0.7358564169361461,0.005800197829624598,-0.005076241620787458,-0.04771384702532444,0,70,255.0,255.0,255.0
356,17.8,8.123091254040984,2.3579938570979437,-9.98955202185996,0.11596966071519511,-0.1182638905647117,-0.7382156315496948,0.005774694816434267,-0.005923830604766479,-0.04665473751662005,0,70,255.0,255.0,255.0
357,17.85,8.12889694481901,2.3520729046193756,-10.026520680563712,0.11625775788068708,-0.1185812718195495,-0.7405218906878082,0.005749191803243936,-0.006771419588745499,-0.045595628007915646,0,70,255.0,255.0,255.0
358,17.900000000000002,8.134717008576542,2.3461350235918355,-10.063603328337484,0.11654457989551952,-0.11894103252358626,-0.7427751943504863,0.0057236887900536035,-0.007619008572724521,-0.04453651849921125,0,70,255.0,255.0,255.0
359,17.95,8.14055138155605,2.3401780950428637,-10.100797317407503,0.11683012675969243,-0.11934317267682194,-0.7449755425377292,0.005698185776863274,-0.008466597556703481,-0.04347740899050693,0,70,255.0,255.0,255.0
360,18.0,8.1464,2.3342,-10.1381,0.11711439847320584,-0.11978769227925658,-0.747122935249537,0.005672682763672832,-0.009314186540682168,-0.042418299481802535,0,70,255.0,255.0,255.0
361,18.05,8.152263163809478,2.328199276584055,-10.17550911919146,0.11741921455314995,-0.12023516573466977,-0.7492408235014558,0.006519960434091188,-0.008584751675845638,-0.04229723059495072,0,70,255.0,255.0,255.0
362,18.1,8.158142627520041,2.32217709128892,-10.213023981459408,0.11776639451661497,-0.12064616744684116,-0.7513526583090322,0.007367238104509545,-0.007855316811009106,-0.0421761617080989,0,70,255.0,255.0,255.0
363,18.150000000000002,8.164040509325865,2.3161352677017577,-10.250644284131626,0.11815593836360092,-0.1210206974157707,-0.7534584396722659,0.008214515774927902,-0.007125881946172577,-0.04205509282124708,0,70,255.0,255.0,255.0
364,18.2,8.169958927421126,2.310075629409731,-10.288369724535894,0.11858784609410773,-0.1213587556414584,-0.7555581675911567,0.0090617934453462,-0.006396447081336098,-0.04193402393439527,0,70,255.0,255.0,255.0
365,18.25,8.1759,2.304,-10.3262,0.11906211770813552,-0.12166034212390428,-0.7576518420657051,0.009909071115764556,-0.005667012216499678,-0.04181295504754079,0,70,255.0,255.0,255.0
366,18.3,8.181864890721107,2.2979098365658355,-10.364134701374203,0.11952148107221072,-0.12194744649661314,-0.7597330744444843,0.008465463447243039,-0.005817162691854307,-0.04143634010362493,0,70,255.0,255.0,255.0
367,18.35,8.18785094510083,2.291805130224942,-10.402172993598663,0.11990866405285984,-0.12224205839308973,-0.7617954760760677,0.0070218557787215235,-0.005967313167208936,-0.04105972515970907,0,70,255.0,255.0,255.0
368,18.400000000000002,8.193854554120003,2.2856855056011307,-10.440313935136023,0.12022366665008288,-0.12254417781333404,-0.7638390469604552,0.005578248110200006,-0.006117463642563565,-0.04068311021579321,0,70,255.0,255.0,255.0
369,18.45,8.199872108759447,2.279550587318213,-10.47855658444892,0.12046648886387984,-0.12285380475734606,-0.7658637870976469,0.004134640441678592,-0.006267614117918183,-0.04030649527187738,0,70,255.0,255.0,255.0
370,18.5,8.2059,2.2734,-10.5169,0.12063713069425072,-0.12317093922512584,-0.7678696964876429,0.002691032773157298,-0.00641776459327259,-0.039929880327963296,0,70,255.0,255.0,255.0
371,18.55,8.211935673306098,2.2672333771526008,-10.555343275311735,0.12079886115800136,-0.12349504827887536,-0.769858878720605,0.003778185776867875,-0.006546597556707658,-0.039637408990517105,0,70,255.0,255.0,255.0
372,18.6,8.217980792076638,2.2610503878113093,-10.593885644145947,0.12101494927193751,-0.12382559898079662,-0.7718334373866946,0.004865338780578452,-0.006675430520142726,-0.03934493765307091,0,70,255.0,255.0,255.0
373,18.650000000000002,8.224038074194128,2.2548507098937183,-10.632526375324291,0.12128539503605922,-0.12416259133088964,-0.7737933724859121,0.0059524917842890285,-0.006804263483577794,-0.03905246631562472,0,70,255.0,255.0,255.0
374,18.7,8.230110237541078,2.248634021317418,-10.671264737668423,0.1216101984503664,-0.12450602532915438,-0.7757386840182571,0.007039644787999529,-0.006933096447012853,-0.03875999497817855,0,70,255.0,255.0,255.0
375,18.75,8.2362,2.2424,-10.7101,0.12198935951485916,-0.1248559009755909,-0.7776693719837299,0.008126797791709994,-0.007061929410448364,-0.03846752364073236,0,70,255.0,255.0,255.0
376,18.8,8.242309216054505,2.2361486548237615,-10.74903139737886,0.12237107429578568,-0.12519236038788575,-0.7795834106731074,0.0071417934453505165,-0.006396447081344805,-0.03809402393436816,0,70,255.0,255.0,255.0
377,18.85,8.248436286592625,2.2298813185298187,-10.788058029817558,0.12270353885939422,-0.1254955456837254,-0.7814787743771667,0.006156789098991039,-0.005730964752241245,-0.03772052422800395,0,70,255.0,255.0,255.0
378,18.900000000000002,8.254578749103489,2.223599654823996,-10.827178963566823,0.12298675320568478,-0.1257654568631099,-0.7833554630959079,0.005171784752631561,-0.005065482423137684,-0.037347024521639745,0,70,255.0,255.0,255.0
379,18.95,8.260734141076236,2.2173053274121157,-10.866393264877392,0.12322071733465736,-0.12600209392603914,-0.7852134768293306,0.004186780406272153,-0.004400000094034172,-0.03697352481527556,0,70,255.0,255.0,255.0
380,19.0,8.2669,2.211,-10.9057,0.123405431246312,-0.12620545687251328,-0.7870528155774353,0.0032017760599124534,-0.0037345177649301675,-0.036600025108909584,0,70,255.0,255.0,255.0
381,19.05,8.273074662475882,2.204684803552354,-10.945098335172826,0.12358884165885178,-0.12640751016958415,-0.7888794785869553,0.004134640441678607,-0.004347614117905261,-0.03646649527188632,0,70,255.0,255.0,255.0
382,19.1,8.27925966155287,2.198358738069414,-10.984587836583833,0.12381889529047986,-0.12664021828430383,-0.7906994651046241,0.005067504823444762,-0.004960710470880354,-0.03633296543486306,0,70,255.0,255.0,255.0
383,19.150000000000002,8.285457329391916,2.192020270810296,-11.024168170408425,0.12409559214119627,-0.12690358121667222,-0.7925127751304416,0.006000369205210916,-0.005573806823855446,-0.036199435597839794,0,70,255.0,255.0,255.0
384,19.200000000000003,8.291669998153974,2.1856678690341194,-11.063839002822013,0.12441893221100096,-0.12719759896668936,-0.794319408664408,0.00693323358697707,-0.00618690317683054,-0.03606590576081653,0,70,255.0,255.0,255.0
385,19.25,8.2979,2.1793,-11.1036,0.12478891549989395,-0.12752227153435522,-0.7961193657065232,0.007866097968742936,-0.006799999529805367,-0.03593237592378973,0,70,255.0,255.0,255.0
386,19.3,8.304148934041963,2.172915330966821,-11.143450461929838,0.12516155906881252,-0.1278655989337757,-0.7978906749790726,0.00703964478799951,-0.006933096447013167,-0.03491999497818642,0,70,255.0,255.0,255.0
387,19.35,8.310415467195899,2.166513329192525,-11.183388223847121,0.1254928799786939,-0.12821558117905654,-0.799611365204342,0.006213191607256084,-0.007066193364220967,-0.033907614032583105,0,70,255.0,255.0,255.0
388,19.400000000000002,8.316697533328849,2.1600936619348174,-11.223410754799486,0.12578287822953813,-0.1285722182701978,-0.801281436382331,0.005386738426512659,-0.007199290281428766,-0.032895233086979794,0,70,255.0,255.0,255.0
389,19.450000000000003,8.322993066307866,2.153655996451407,-11.263515523834567,0.12603155382134518,-0.12893551020719943,-0.8029008885130399,0.004560285245769233,-0.0073323871986365665,-0.03188285214137648,0,70,255.0,255.0,255.0
390,19.5,8.3293,2.1472,-11.3037,0.12623890675411506,-0.12930545699006143,-0.8044697215964685,0.0037338320650268653,-0.007465484115843912,-0.030870471195772353,0,70,255.0,255.0,255.0
391,19.55,8.335616801356263,2.1407258725803615,-11.343962217107826,0.12643692206589754,-0.1296500940953087,-0.806021821496745,0.004186780406272434,-0.006320000094046413,-0.031213524815289165,0,70,255.0,255.0,255.0
392,19.6,8.34194406966354,2.134235945160487,-11.384302468027691,0.1266575847947423,-0.12993745699946607,-0.8075910740779975,0.004639728747518003,-0.005174516072248914,-0.03155657843480598,0,70,255.0,255.0,255.0
393,19.650000000000002,8.348282937292689,2.1277330814504323,-11.424721610393643,0.12690089494064935,-0.1301675457025336,-0.8091774793402257,0.005092677088763572,-0.004029032050451416,-0.031899632054322793,0,70,255.0,255.0,255.0
394,19.700000000000003,8.354634536614556,2.121220145160252,-11.465220501839731,0.12716685250361867,-0.13034036020451123,-0.8107810372834298,0.005545625430009141,-0.0028835480286539166,-0.03224268567383961,0,70,255.0,255.0,255.0
395,19.75,8.361,2.1147,-11.5058,0.12745545748365025,-0.130455900505399,-0.8124017479076097,0.005998573771254678,-0.001738064006856499,-0.03258573929335906,0,70,255.0,255.0,255.0
396,19.8,8.367379860532987,2.1081747787117338,-11.54646066963886,0.12773075266760617,-0.13055802468499117,-0.8140220390339634,0.005013233586981189,-0.0023469031768308035,-0.032225905760790666,0,70,255.0,255.0,255.0
397,19.85,8.37377225414994,2.1016436901655258,-11.587201904042121,0.12795678084234838,-0.13069059082308207,-0.8156243384836888,0.0040278934027077,-0.0029557423468051076,-0.03186607222822228,0,70,255.0,255.0,255.0
398,19.900000000000002,8.380174717500402,2.0951052122634506,-11.628022803625953,0.12813354200787694,-0.1308535989196717,-0.8172086462567857,0.00304255321843421,-0.0035645815167794116,-0.03150623869565388,0,70,255.0,255.0,255.0
399,19.950000000000003,8.38658478723391,2.088557822907583,-11.668922468806525,0.12826103616419182,-0.13104704897476002,-0.8187749623532542,0.0020572130341607207,-0.004173420686753716,-0.03114640516308549,0,70,255.0,255.0,255.0
400,20.0,8.393,2.082,-11.7099,0.12833926331129303,-0.13127094098834707,-0.8203232867730943,0.001071872849887523,-0.004782259856728199,-0.03078657163051801,0,70,255.0,255.0,255.0
401,20.05,8.399418956511793,2.075430212572702,-11.750954304336739,0.12843206726368372,-0.13152580716473086,-0.8218420223673918,0.002640285245740093,-0.005412387198623767,-0.029962852141379403,0,70,255.0,255.0,255.0
402,20.1,8.4058445137367,2.0688468941774083,-11.792083515803833,0.12860329183586705,-0.13181217970820946,-0.8233195719872323,0.004208697641592663,-0.006042514540519335,-0.029139132652240794,0,70,255.0,255.0,255.0
403,20.150000000000002,8.41228059270571,2.0622484694957626,-11.833285575102558,0.12885293702784298,-0.1321300586187828,-0.8247559356326158,0.005777110037445232,-0.006672641882414902,-0.028315413163102186,0,70,255.0,255.0,255.0
404,20.200000000000003,8.418731114449812,2.0556333632094117,-11.874558422934188,0.12918100283961156,-0.13247944389645094,-0.8261511133035425,0.007345522433297802,-0.00730276922431047,-0.027491693673963577,0,70,255.0,255.0,255.0
405,20.25,8.4252,2.049,-11.9159,0.12958748927117278,-0.13286033554121382,-0.8275051050000123,0.008913934829150483,-0.007932896566205327,-0.02666797418482414,0,70,255.0,255.0,255.0
406,20.3,8.431689913419847,2.0423475709974555,-11.957308513014185,0.12999697827765253,-0.1332267466560853,-0.8288338714964792,0.0074656254300386376,-0.006723548028653364,-0.02648268567385354,0,70,255.0,255.0,255.0
407,20.35,8.438198490903265,2.035678333124839,-11.998783232742557,0.13033405181417665,-0.13353269034407916,-0.8301533735673976,0.006017316030926792,-0.0055141994911014,-0.026297397162882947,0,70,255.0,255.0,255.0
408,20.400000000000002,8.444722111676764,2.0289953097534954,-12.040323695963835,0.1305987098807452,-0.13377816660519545,-0.8314636112127677,0.004569006631814947,-0.004304850953549436,-0.02611210865191235,0,70,255.0,255.0,255.0
409,20.450000000000003,8.451257154966841,2.0223015242547673,-12.081929439456742,0.13079095247735814,-0.13396317543943412,-0.8327645844325889,0.003120697232703102,-0.0030955024159974734,-0.025926820140941755,0,70,255.0,255.0,255.0
410,20.5,8.4578,2.0156,-12.1236,0.1309107796040155,-0.1340877168467952,-0.8340562932268617,0.001672387833590916,-0.0018861538784453735,-0.025741531629972947,0,70,255.0,255.0,255.0
411,20.55,8.464347789808826,2.0088931034374755,-12.16533484360652,0.13100401962570932,-0.13419120621092542,-0.8353344916466877,0.002057213034160782,-0.002253420686762558,-0.0253864051630666,0,70,255.0,255.0,255.0
412,20.6,8.470900722650239,2.002180573323234,-12.207133153225946,0.13111650090743157,-0.13431305891547146,-0.8365949337431684,0.002442038234730648,-0.0026206874950797424,-0.025031278696160255,0,70,255.0,255.0,255.0
413,20.650000000000002,8.477459760587237,1.9954614914902546,-12.248994041042115,0.13124822344918238,-0.13445327496043338,-0.8378376195163038,0.0028268634353005137,-0.002987954303396927,-0.024676152229253907,0,70,255.0,255.0,255.0
414,20.700000000000003,8.484025865682824,1.9887349397715166,-12.290916619238857,0.13139918725096167,-0.13461185434581116,-0.8390625489660938,0.0032116886358703797,-0.0033552211117141113,-0.02432102576234756,0,70,255.0,255.0,255.0
415,20.75,8.4906,1.982,-12.3329,0.1315693923127694,-0.1347887970716048,-0.8402697220925386,0.0035965138364402183,-0.003722487920031714,-0.02396589929544568,0,70,255.0,255.0,255.0
416,20.8,8.49718292734485,1.9752560152526428,-12.374943312559738,0.13174694321951222,-0.13496842850021334,-0.8414601619167741,0.003505522433272866,-0.0034627692243106765,-0.023651693673973635,0,70,255.0,255.0,255.0
417,20.85,8.503774618495783,1.9685033735822248,-12.41704575435366,0.13191994455609668,-0.13513507399403588,-0.842634891459936,0.0034145310301055137,-0.003203050528589639,-0.02333748805250159,0,70,255.0,255.0,255.0
418,20.900000000000002,8.510374845974292,1.9617427242854855,-12.459206539867715,0.13208839632252278,-0.1352887335530723,-0.8437939107220243,0.003323539626938162,-0.002943331832868601,-0.023023282431029544,0,70,255.0,255.0,255.0
419,20.950000000000003,8.516983382301866,1.954974716659164,-12.501424883587847,0.1322522985187905,-0.13542940717732274,-0.844937219703039,0.0032325482237708096,-0.0026836131371475633,-0.0227090768095575,0,70,255.0,255.0,255.0
420,21.0,8.5236,1.9482,-12.5437,0.13241165114489983,-0.1355570948667871,-0.8460648184029801,0.003141556820603242,-0.002423894441426322,-0.022394871188084586,0,70,255.0,255.0,255.0
421,21.05,8.530224500811775,1.9414188355519526,-12.58603110615453,0.13256820749623335,-0.1356950797882226,-0.847176860686206,0.003120697232737157,-0.0030955024159930217,-0.022086820140949644,0,70,255.0,255.0,255.0
422,21.1,8.536856803366634,1.9346299323478653,-12.628417429359416,0.13272372086817355,-0.13586664510838642,-0.848273500417075,0.003099837644871072,-0.0037671103905597214,-0.0217787690938147,0,70,255.0,255.0,255.0
423,21.150000000000002,8.543496855515604,1.9278316113678016,-12.670858199487032,0.13287819126072048,-0.13607179082727858,-0.8493547375955874,0.0030789780570049875,-0.004438718365126422,-0.021470718046679757,0,70,255.0,255.0,255.0
424,21.200000000000003,8.550144605109717,1.921022193591825,-12.713352646409769,0.13303161867387406,-0.13631051694489907,-0.8504205722217432,0.003058118469138903,-0.005110326339693121,-0.021162666999544815,0,70,255.0,255.0,255.0
425,21.25,8.5568,1.9142,-12.7559,0.13318400310763434,-0.1365828234612479,-0.8514710042955418,0.0030372588812719314,-0.005781934314260884,-0.020854615952409006,0,70,255.0,255.0,255.0
426,21.3,8.563463069408048,1.9073638425395456,-12.79849946282214,0.13334022679556204,-0.1368592523468973,-0.852504395338411,0.0032116886358359432,-0.005275221111714405,-0.02048102576235919,0,70,255.0,255.0,255.0
427,21.35,8.570134168037686,1.9005144970263121,-12.841150128208684,0.13350517197121792,-0.13711034557241933,-0.8535191068717777,0.0033861183903999554,-0.004768507909167927,-0.020107435572309373,0,70,255.0,255.0,255.0
428,21.400000000000002,8.5768137319633,1.8936532302433056,-12.88385106218416,0.13367883863460203,-0.13733610313781408,-0.854515138895642,0.0035605481449639672,-0.004261794706621447,-0.019733845382259557,0,70,255.0,255.0,255.0
429,21.450000000000003,8.583502197259277,1.8867813089735326,-12.926601330773092,0.13386122678571435,-0.13753652504308148,-0.8554924914100037,0.003734977899527979,-0.003755081504074969,-0.01936025519220974,0,70,255.0,255.0,255.0
430,21.5,8.5902,1.8799,-12.9694,0.1340523364245548,-0.1377116112882216,-0.856451164414863,0.003909407654091757,-0.003248368301528304,-0.018986665002157288,0,70,255.0,255.0,255.0
431,21.55,8.596907221556032,1.8730105942898636,-13.012246242556916,0.13423088532150138,-0.1378599108241885,-0.8573975579601553,0.003232548223770805,-0.0026836131371471704,-0.018869076809531114,0,70,255.0,255.0,255.0
432,21.6,8.603622524482624,1.8661144795468845,-13.055139657805857,0.13437559124693188,-0.1379799726019363,-0.8583380720958161,0.0025556887934498535,-0.002118857972766037,-0.01875148861690494,0,70,255.0,255.0,255.0
433,21.650000000000002,8.6103442166312,1.8592130676589733,-13.098079951776338,0.13448645420084637,-0.1380717966214651,-0.8592727068218459,0.0018788293631289022,-0.0015541028083849032,-0.018633900424278767,0,70,255.0,255.0,255.0
434,21.700000000000003,8.617070605853185,1.8523077705140414,-13.14106683049788,0.1345634741832448,-0.1381353828827748,-0.860201462138244,0.0012019699328079505,-0.0009893476440037698,-0.018516312231652593,0,70,255.0,255.0,255.0
435,21.75,8.6238,1.8454,-13.1841,0.13460665119412715,-0.13817073138586544,-0.861124338045011,0.0005251105024879354,-0.00042459247962289837,-0.018398724039026426,0,70,255.0,255.0,255.0
436,21.8,8.63053124436782,1.8384905803009988,-13.227178766950201,0.13464823191841963,-0.1382131043563484,-0.8620173728209755,0.001138118469211644,-0.0012703263396943618,-0.017322666999553413,0,70,255.0,255.0,255.0
437,21.85,8.637265334031813,1.8315779847861482,-13.270300840567899,0.13472046304104832,-0.13829776401983487,-0.8628566047449664,0.0017511264359353525,-0.0021160601997658253,-0.016246609960080396,0,70,255.0,255.0,255.0
438,21.900000000000002,8.644003801511897,1.8246600991207984,-13.3134635307105,0.1348233445620132,-0.13842471037632498,-0.8636420338169836,0.002364134402659061,-0.002961794059837289,-0.015170552920607382,0,70,255.0,255.0,255.0
439,21.950000000000003,8.650748179327987,1.817734808970299,-13.356664147235401,0.13495687648131424,-0.1385939434258186,-0.8643736600370271,0.0029771423693827695,-0.0038075279199087523,-0.014094495881134365,0,70,255.0,255.0,255.0
440,22.0,8.6575,1.8108,-13.3999,0.13512105879895148,-0.13880546316831582,-0.8650514834050971,0.0035901503361057685,-0.004653261779979712,-0.013018438841664093,0,70,255.0,255.0,255.0
441,22.05,8.664260600972687,1.8038542845061407,-13.443169089642286,0.1353041870048406,-0.1390156717504172,-0.8657169507559433,0.00373497789945896,-0.003755081504074807,-0.01360025519218909,0,70,255.0,255.0,255.0
442,22.1,8.67103053939012,1.796899181308521,-13.486472179922554,0.13549455658889736,-0.13918097131872328,-0.866411508924316,0.003879805462812151,-0.0028569012281699025,-0.014182071542714086,0,70,255.0,255.0,255.0
443,22.150000000000002,8.677810177321211,1.7899369358578314,-13.52981072538168,0.13569216755112182,-0.1393013618732342,-0.8671351579102148,0.004024633026165342,-0.001958720952264998,-0.014763887893239083,0,70,255.0,255.0,255.0
444,22.200000000000003,8.68459987683487,1.782969793604761,-13.573186180560537,0.1358970198915139,-0.13937684341394982,-0.8678878977136399,0.004169460589518534,-0.0010605406763600934,-0.01534570424376408,0,70,255.0,255.0,255.0
445,22.25,8.6914,1.776,-13.6166,0.13610911361007363,-0.13940741594087017,-0.8686697283345912,0.0043142881528706045,-0.00016236040045458644,-0.015927520594283706,0,70,255.0,255.0,255.0
446,22.3,8.698210351741436,1.7690290816744376,-13.660052874480655,0.1362950200622155,-0.13943620864198164,-0.8694348241552398,0.003121969932803675,-0.0009893476440037247,-0.014676312231658866,0,70,255.0,255.0,255.0
447,22.35,8.705028508407706,1.7620556899797652,-13.70354243974189,0.13642131060335402,-0.13950635070527054,-0.8701373595577572,0.0019296517127367456,-0.001816334887552863,-0.013425103869034026,0,70,255.0,255.0,255.0
448,22.400000000000002,8.711851489203253,1.7550777574478742,-13.747065567762798,0.13648798523348918,-0.1396178421307369,-0.8707773345421432,0.0007373334926698161,-0.0026433221311020012,-0.012173895506409184,0,70,255.0,255.0,255.0
449,22.450000000000003,8.718676313332537,1.748093216610655,-13.790619130522469,0.136495043952621,-0.13977068291838074,-0.871354749108398,-0.0004549847273971133,-0.0034703093746511395,-0.010922687143784344,0,70,255.0,255.0,255.0
450,22.5,8.7255,1.7411,-13.8342,0.13644248676074947,-0.13996487306820202,-0.8718696032565215,-0.0016473029474639578,-0.004297296618200663,-0.009671478781153375,0,70,255.0,255.0,255.0
451,22.55,8.732320392061569,1.734096588796108,-13.877805812435094,0.13637973274629853,-0.14016749368165488,-0.8723677526230798,-0.0008628576305741097,-0.003807527919913094,-0.010254495881178202,0,70,255.0,255.0,255.0
452,22.6,8.73913862697906,1.7270836587724163,-13.921437261109892,0.13635620099769205,-0.1403456258601933,-0.8728950528446393,-7.841231368426165e-05,-0.0033177592216255243,-0.010837512981203029,0,70,255.0,255.0,255.0
453,22.650000000000002,8.74595666586577,1.7200624343506705,-13.965095803567143,0.1363718915149301,-0.14049926960381742,-0.8734515039212001,0.0007060330032055864,-0.0028279905233379544,-0.011420530081227856,0,70,255.0,255.0,255.0
454,22.700000000000003,8.752776469834986,1.7130341399526163,-14.008782897349596,0.13642680429801263,-0.14062842491252714,-0.8740371058527622,0.0014904783200954345,-0.002338221825050385,-0.012003547181252683,0,70,255.0,255.0,255.0
455,22.75,8.7596,1.706,-14.0525,0.13652093934693965,-0.14073309178632248,-0.8746518586393254,0.0022749236369854486,-0.0018484531267635163,-0.012586564281275692,0,70,255.0,255.0,255.0
456,22.8,8.76642888001229,1.6989613631411298,-14.09624787577897,0.13663404895260065,-0.14080581663140046,-0.8752541653524507,0.002249460589454166,-0.0010605406763555146,-0.011505704243737275,0,70,255.0,255.0,255.0
457,22.85,8.773263383676053,1.6919200749305683,-14.140024515818547,0.13674588540588506,-0.14083914585395804,-0.8758024290636991,0.0022239975419228834,-0.0002726282259475131,-0.010424844206198861,0,70,255.0,255.0,255.0
458,22.900000000000002,8.780103447333673,1.6848781051494424,-14.183827217968643,0.13685644870679295,-0.1408330794539952,-0.8762966497730706,0.002198534494391601,0.0005152842244604884,-0.009343984168660445,0,70,255.0,255.0,255.0
459,22.950000000000003,8.786949007327529,1.6778374235788773,-14.22765328007916,0.13696573885532423,-0.140787617431512,-0.8767368274805653,0.0021730714468603182,0.00130319667486849,-0.00826312413112203,0,70,255.0,255.0,255.0
460,23.0,8.7938,1.6708,-14.2715,0.13707375585147896,-0.14070275978650837,-0.8771229621861827,0.002147608399327705,0.0020911091252759917,-0.007182264093579249,0,70,255.0,255.0,255.0
461,23.05,8.80065608788927,1.663766758639373,-14.31536508444903,0.13716407144327797,-0.14064123979274276,-0.8774795859671161,0.001465015272631999,0.0003696906253482378,-0.0070826871437553495,0,70,255.0,255.0,255.0
462,23.1,8.807515838316723,1.656734441505309,-14.359247875615921,0.13722025737874216,-0.14066579072397356,-0.8778312309005583,0.0007824221459362928,-0.001351727874579516,-0.00698311019393145,0,70,255.0,255.0,255.0
463,23.150000000000002,8.814377544799537,1.6496987450515588,-14.403148124558296,0.1372423136578716,-0.1407764125802007,-0.8781778969865092,9.982901924058662e-05,-0.0030731463745072695,-0.006883533244107549,0,70,255.0,255.0,255.0
464,23.200000000000003,8.821239500854903,1.642655365731872,-14.447065582333781,0.13723024028066622,-0.14097310536142427,-0.878519584224969,-0.0005827641074551194,-0.004794564874435024,-0.006783956294283649,0,70,255.0,255.0,255.0
465,23.25,8.8281,1.6356,-14.491,0.13718403724712608,-0.1412558690676442,-0.8788562926159375,-0.001265357234151221,-0.006515983374362655,-0.006684379344453539,0,70,255.0,255.0,255.0
466,23.3,8.834957968430627,1.6285300023013787,-14.53495098642491,0.13714166527427565,-0.14152522419762953,-0.8791794907790812,-0.0004295216798657068,-0.004258221825050481,-0.006243547181298397,0,70,255.0,255.0,255.0
467,23.35,8.841814863057056,1.6214493590481944,-14.578917581717773,0.13714108507913952,-0.14168169125014926,-0.8794806473340673,0.00040631387441980734,-0.0020004602757383054,-0.005802715018143255,0,70,255.0,255.0,255.0
468,23.400000000000002,8.84867277346817,1.6143637146443213,-14.622898683798182,0.13718229666171763,-0.14172527022520337,-0.8797597622808956,0.0012421494287053214,0.00025730127357386987,-0.0053618828549881125,0,70,255.0,255.0,255.0
469,23.450000000000003,8.855533789252856,1.6072787134936317,-14.666893190585727,0.13726530002201004,-0.14165596112279188,-0.8800168356195661,0.0020779849829908356,0.0025150628228860442,-0.004921050691832971,0,70,255.0,255.0,255.0
470,23.5,8.8624,1.6002,-14.7109,0.13739009516001668,-0.1414737639429148,-0.8802518673500789,0.0029138205372756243,0.004772824372198281,-0.004480218528676083,0,70,255.0,255.0,255.0
471,23.55,8.869272838388218,1.5931316321551123,-14.754918169851333,0.1375172674596201,-0.14127386341673814,-0.8804744509165731,0.002173071446859732,0.003223196674868256,-0.004423124131095157,0,70,255.0,255.0,255.0
472,23.6,8.876151109455053,1.5860713223019116,-14.798947397512995,0.13760740230470264,-0.14115144427542797,-0.8806941797631884,0.0014323223564438393,0.0016735689775382316,-0.00436602973351423,0,70,255.0,255.0,255.0
473,23.650000000000002,8.883032961327778,1.579015196371155,-14.84298754024899,0.13766049969526445,-0.1411065065189843,-0.8809110538899245,0.0006915732660279466,0.00012394128020820714,-0.004308935335933304,0,70,255.0,255.0,255.0
474,23.700000000000003,8.88991654213367,1.5719593802935987,-14.887038455323323,0.13767655963130546,-0.14113905014740716,-0.8811250732967818,-4.9175824387945755e-05,-0.0014256864171218178,-0.004251840938352377,0,70,255.0,255.0,255.0
475,23.75,8.8968,1.5649,-14.9311,0.1376555821128257,-0.14124907516069646,-0.8813362379837598,-0.0007899249148035636,-0.0029753141144523987,-0.004194746540771455,0,70,255.0,255.0,255.0
476,23.8,8.903681878016503,1.5578338690781721,-14.975171534169762,0.13762126488726836,-0.14139532213541864,-0.8815147055546355,-0.0005827641074892724,-0.00287456487443558,-0.002943956294255816,0,70,255.0,255.0,255.0
477,23.85,8.910562299122734,1.5507605517441578,-15.019250428230261,0.13759730570207676,-0.14153653164814003,-0.8816306336131854,-0.00037560330017498113,-0.002773815634418761,-0.0016931660477401776,0,70,255.0,255.0,255.0
478,23.900000000000002,8.917441781220717,1.543680299871058,-15.063333555205878,0.13758370455725089,-0.14167270369886054,-0.8816840221594096,-0.00016844249286068985,-0.0026730663944019416,-0.00044237580122453947,0,70,255.0,255.0,255.0
479,23.950000000000003,8.924320842212465,1.5365933653319717,-15.107417788120998,0.1375804614527907,-0.14180383828758023,-0.8816748711933079,3.871831445360137e-05,-0.002572317154385123,0.0008084144452910995,0,70,255.0,255.0,255.0
480,24.0,8.9312,1.5295,-15.1515,0.1375875763886962,-0.14192993541429907,-0.8816031807148804,0.00024587912176632365,-0.002471567914368089,0.0020592046918102014,0,70,255.0,255.0,255.0
481,24.05,8.938079649545779,1.5224008915321992,-15.195578093469623,0.13759767299131437,-0.14202484804158613,-0.8815307268648812,0.000157984982960223,-0.0013249371771133338,0.0008389493081556946,0,70,255.0,255.0,255.0
482,24.1,8.944959694054017,1.5152984707214556,-15.239654089565976,0.13760337488699223,-0.1420624291320104,-0.8815192857840649,7.009084415412231e-05,-0.00017830643985857842,-0.00038130607549881216,0,70,255.0,255.0,255.0
483,24.150000000000002,8.951839913789364,1.5081956041446125,-15.283731038927517,0.1376046820757298,-0.14204267868557197,-0.8815688574724312,-1.7803294651978373e-05,0.0009683242973961771,-0.0016015614591533187,0,70,255.0,255.0,255.0
484,24.200000000000003,8.958720089016474,1.5010951583785128,-15.327811992192707,0.13760159455752702,-0.1419655967022708,-0.8816794419299803,-0.00010569743345807903,0.0021149550346509323,-0.0028218168428078257,0,70,255.0,255.0,255.0
485,24.25,8.9656,1.494,-15.3719,0.137594112332384,-0.14183118318210686,-0.881851039156712,-0.0001935915722639514,0.0032615857719058283,-0.004042072226456028,0,70,255.0,255.0,255.0
486,24.3,8.972479523800382,1.4869121647930308,-15.415996891951751,0.13758804314746856,-0.14168928569823738,-0.8820103869858322,-4.9175824353307095e-05,0.00241431358287335,-0.0023318409383545216,0,70,255.0,255.0,255.0
487,24.35,8.979358924661204,1.4798303653700187,-15.460099613505843,0.13758919474994866,-0.1415897518238195,-0.8820842232505475,9.523992355733722e-05,0.0015670413938408715,-0.0006216096502530146,0,70,255.0,255.0,255.0
488,24.400000000000002,8.986238563621836,1.472752483550491,-15.504203889084065,0.1375975671398243,-0.1415325815588533,-0.8820725479508577,0.00023965567146798155,0.0007197692048083932,0.0010886216378484925,0,70,255.0,255.0,255.0
489,24.450000000000003,8.993118801721643,1.4656764011539756,-15.548305443108191,0.13761316031709547,-0.14151777490333867,-0.8819753610867627,0.00038407141937862584,-0.0001275029842240853,0.002798852925949999,0,70,255.0,255.0,255.0
490,24.5,9.0,1.4586,-15.5924,0.13763597428176216,-0.14154533185727566,-0.8817926626582626,0.0005284871672883718,-0.0009747751732562815,0.00450908421405849,0,70,255.0,255.0,255.0
491,24.55,9.006882255252693,1.4515216492956773,-15.636483938723384,0.13765015441880568,-0.1415860091654665,-0.881563725191779,3.871831445242805e-05,-0.0006523171543769422,0.0046484144452851005,0,70,255.0,255.0,255.0
492,24.6,9.013764607301171,1.4444416677984688,-15.680556256410654,0.1376398461132074,-0.14161056357271337,-0.8813278212137341,-0.00045105053838351565,-0.000329859135497603,0.004787744676511711,0,70,255.0,255.0,255.0
493,24.650000000000002,9.020645831723302,1.4373608616534217,-15.724616604736232,0.13760504936496734,-0.14161899507901624,-0.8810849507241278,-0.0009408193912194592,-7.401116618263744e-06,0.004927074907738322,0,70,255.0,255.0,255.0
494,24.700000000000003,9.027524704096956,1.4302800370055826,-15.76866463537454,0.13754576417408546,-0.1416113036843752,-0.8808351137229602,-0.001430588244055403,0.0003150569022610755,0.005066405138964933,0,70,255.0,255.0,255.0
495,24.75,9.0344,1.4232,-15.8127,0.13746199054056177,-0.14158748938879015,-0.8805783102102313,-0.0019203570968924222,0.000637514921140836,0.005205735370199527,0,70,255.0,255.0,255.0
496,24.8,9.04127065518885,1.4161212380242594,-15.856722553154722,0.13736333917730312,-0.14156667763989544,-0.880326712247046,-0.002025697433453512,0.0001949550346471644,0.004858183157211643,0,70,255.0,255.0,255.0
497,24.85,9.048136246134117,1.4090429634361048,-15.900732960851549,0.13725942079721642,-0.14156799388532545,-0.8800924918945101,-0.0021310377700146017,-0.0002476048518465072,0.004510630944223761,0,70,255.0,255.0,255.0
498,24.900000000000002,9.054996509484958,1.4019640698358211,-15.944732091971018,0.13715023540030163,-0.1415914381250801,-0.8798756491526236,-0.0022363781065756917,-0.0006901647383401788,0.004163078731235877,0,70,255.0,255.0,255.0
499,24.950000000000003,9.061851181890532,1.3948834508236911,-15.988720815393657,0.13703578298655883,-0.14163701035915946,-0.8796761840213865,-0.0023417184431367816,-0.0011327246248338503,0.0038155265182479936,0,70,255.0,255.0,255.0
500,25.0,9.0687,1.3878,-16.0327,0.13691606355598798,-0.14170471058756348,-0.8794940965007988,-0.002447058779697864,-0.0015752845113266023,0.0034679743052619116,0,70,255.0,255.0,255.0
501,25.05,9.075543123991908,1.3807133986072855,-16.07666984865773,0.1368164888719801,-0.14174728027495223,-0.8792894258200202,-0.0015359285806170278,-0.00012750298422352802,0.004718852925879187,0,70,255.0,255.0,255.0
502,25.1,9.082382408162363,1.3736264784571106,-16.120627900183152,0.13676247069792627,-0.14171746088598583,-0.8790222112082108,-0.0006247983815361919,0.0013202785428795463,0.005969731546496462,0,70,255.0,255.0,255.0
503,25.150000000000002,9.089220130336866,1.3665428590032924,-16.164571027379704,0.1367540090338265,-0.14161525242066428,-0.8786924526653707,0.0002863318175446439,0.0027680600699826205,0.007220610167113737,0,70,255.0,255.0,255.0
504,25.200000000000003,9.096058568340913,1.3594661596996498,-16.20849610305084,0.13679110387968074,-0.14144065487898758,-0.8783001501914995,0.00119746201662548,0.004215841597085695,0.008471488787731012,0,70,255.0,255.0,255.0
505,25.25,9.1029,1.3524,-16.2524,0.13687375523548903,-0.1411936682609557,-0.8778453037865975,0.002108592215706695,0.005663623124189776,0.009722367408346422,0,70,255.0,255.0,255.0
506,25.3,9.10974564884352,1.3453467675465984,-16.29628045221435,0.1369387053347802,-0.14094820126029445,-0.8773795844729123,0.0004894117559397274,0.004155056902260924,0.008906405139060946,0,70,255.0,255.0,255.0
507,25.35,9.116592521216429,1.338303922735452,-16.34013863841585,0.136922696411083,-0.1407781625707296,-0.8769546632726914,-0.0011297687038272402,0.0026464906803320715,0.00809044286977547,0,70,255.0,255.0,255.0
508,25.400000000000002,9.123436569167577,1.3312676941510069,-16.383976598510177,0.13682572846439747,-0.14068355219226122,-0.8765705401859347,-0.002748949163594208,0.0011379244584032193,0.007274480600489994,0,70,255.0,255.0,255.0
509,25.450000000000003,9.130273744745818,1.3242343103777074,-16.427796372403005,0.13664780149472358,-0.14066437012488928,-0.8762272152126425,-0.004368129623361175,-0.000370641763525633,0.0064585183312045194,0,70,255.0,255.0,255.0
510,25.5,9.1371,1.3172,-16.4716,0.13638891550206136,-0.1407206163686138,-0.8759246883528143,-0.005987310083128028,-0.0018792079854546007,0.005642556061926207,0,70,255.0,255.0,255.0
511,25.55,9.143912680634015,1.3101619312063209,-16.515388342484872,0.136132689788904,-0.140795914683871,-0.8755922362883101,-0.004261718443166471,-0.001132724624833637,0.007655526518243001,0,70,255.0,255.0,255.0
512,25.6,9.150714706971923,1.3031210306010799,-16.55915754615345,0.13596274365774472,-0.14083388883109715,-0.87515913570099,-0.002536126803204914,-0.0003862412642126733,0.009668496974559794,0,70,255.0,255.0,255.0
513,25.650000000000002,9.157510392992823,1.2960791643926781,-16.602902578579595,0.1358790771085835,-0.14083453881029226,-0.8746253865908541,-0.0008105351632433574,0.0003602420964082904,0.011681467430876589,0,70,255.0,255.0,255.0
514,25.700000000000003,9.164304052675817,1.2890381987895174,-16.646618407337158,0.13588169014142037,-0.14079786462145633,-0.8739909889579024,0.0009150564767181997,0.001106725457029254,0.013694437887193382,0,70,255.0,255.0,255.0
515,25.75,9.1711,1.282,-16.6903,0.13597058275625531,-0.14072386626458935,-0.8732559428021347,0.0026406481166796336,0.0018532088176501649,0.015707408343514473,0,70,255.0,255.0,255.0
516,25.8,9.177901228620415,1.2749663076281175,-16.73394377784616,0.1360665355095888,-0.14062014000422093,-0.8725074703738556,0.001197462016659691,0.0022958415970864517,0.014231488787648395,0,70,255.0,255.0,255.0
517,25.85,9.184705450895873,1.2679383548602272,-16.777551976970354,0.13609032895792128,-0.1404942821048807,-0.8718327939233698,-0.00024572408336025154,0.0027384743765227386,0.012755569231782317,0,70,255.0,255.0,255.0
518,25.900000000000002,9.191509058861126,1.2609172482782787,-16.821128287171458,0.13604196310125277,-0.14034629256656866,-0.8712319134506773,-0.001688910183380194,0.003181107155959025,0.01127964967591624,0,70,255.0,255.0,255.0
519,25.950000000000003,9.198308444550918,1.2539040944642197,-16.86467639824838,0.13592143793958325,-0.1401761713892848,-0.8707048289557782,-0.0031320962834001367,0.0036237399353953124,0.009803730120050163,0,70,255.0,255.0,255.0
520,26.0,9.2051,1.2469,-16.9082,0.13572875347291277,-0.1399839185730291,-0.8702515404386723,-0.004575282383419976,0.00406637271483179,0.008327810564185079,0,70,255.0,255.0,255.0
521,26.05,9.211880804884316,1.2399056382812093,-16.951701346130495,0.13550516817274325,-0.13979552529924646,-0.8697858822162843,-0.004368129623361081,0.0034693582364737543,0.010298518331333845,0,70,255.0,255.0,255.0
522,26.1,9.218650689444575,1.2329199499580097,-16.995176945965156,0.13529194051057666,-0.13963698274938172,-0.869221688605539,-0.004160976863302184,0.0028723437581157194,0.012269226098482612,0,70,255.0,255.0,255.0
523,26.150000000000002,9.225410171562675,1.2259414424942054,-17.038621872734577,0.13508907048641303,-0.1395082909234349,-0.868558959606436,-0.003953824103243289,0.0022753292797576844,0.014239933865631377,0,70,255.0,255.0,255.0
524,26.200000000000003,9.232159769120516,1.2189686233536008,-17.08203119966933,0.13489655810025233,-0.13940944982140596,-0.8677976952189757,-0.003746671343184393,0.001678314801399649,0.016210641632780146,0,70,255.0,255.0,255.0
525,26.25,9.2389,1.212,-17.1254,0.13471440335209459,-0.1393404594432949,-0.866937895443158,-0.0035395185831246234,0.0010813003230423224,0.018181349399930546,0,70,255.0,255.0,255.0
526,26.3,9.245631551842317,1.2050343392470448,-17.168724437631873,0.13455279179943466,-0.13928575879879299,-0.8660450007609818,-0.002924943523272585,0.0011067254570335642,0.017534437887118937,0,70,255.0,255.0,255.0
527,26.35,9.252355791325824,1.1980714453077321,-17.212005039169025,0.13442190899976733,-0.13922978689759155,-0.8651844516544461,-0.002310368463420547,0.001132150591024806,0.01688752637430733,0,70,255.0,255.0,255.0
528,26.400000000000002,9.259074254888176,1.191111381744897,-17.255243421890246,0.13432175495309262,-0.1391725437396905,-0.864356248123551,-0.001695793403568509,0.001157575725016048,0.016240614861495722,0,70,255.0,255.0,255.0
529,26.450000000000003,9.26578847896702,1.1841542121213746,-17.298441203074308,0.13425232965941047,-0.13911402932508993,-0.8635603901682966,-0.0010812183437164708,0.0011830008590072896,0.015593703348684115,0,70,255.0,255.0,255.0
530,26.5,9.2725,1.1772,-17.3416,0.13421363311872098,-0.13905424365378982,-0.8627968777886826,-0.00046664328386425424,0.0012084259929983077,0.014946791835876105,0,70,255.0,255.0,255.0
531,26.55,9.279209787746415,1.170249004730611,-17.38472090334202,0.13417166462953842,-0.13898143950558006,-0.8620341147397848,-0.0012120962834388676,0.0017037399353913756,0.015563730120038786,0,70,255.0,255.0,255.0
532,26.6,9.285916545252121,1.1633022688110606,-17.42780289735874,0.1340924234903771,-0.13888386966025068,-0.8612405047766788,-0.001957549283013481,0.0021990538777844435,0.016180668404201466,0,70,255.0,255.0,255.0
533,26.650000000000002,9.292618408884621,1.1563610305262044,-17.470844439704454,0.13397590970123704,-0.13876153411780165,-0.8604160478993645,-0.0027030022825880948,0.0026943678201775114,0.016797606688364147,0,70,255.0,255.0,255.0
534,26.700000000000003,9.299313515011413,1.1494265281608986,-17.513843988033443,0.13382212326211826,-0.13861443287823294,-0.8595607441078422,-0.003448455282162708,0.003189681762570579,0.017414544972526827,0,70,255.0,255.0,255.0
535,26.75,9.306,1.1425,-17.5568,0.13363106417302079,-0.13844256594154455,-0.858674593402112,-0.004193908281737713,0.003684995704964278,0.018031483256688574,0,70,255.0,255.0,255.0
536,26.8,9.312676497172022,1.135582441830511,-17.599711149000047,0.13343254968239773,-0.13826048317888542,-0.8577705402798754,-0.003746671343184265,0.0035983148014000475,0.018130641632775737,0,70,255.0,255.0,255.0
537,26.85,9.319343627665688,1.128673879448025,-17.642576971396004,0.13325639703870237,-0.13808273446140457,-0.8568615292388345,-0.003299434404630817,0.003511633897835817,0.018229800008862897,0,70,255.0,255.0,255.0
538,26.900000000000002,9.326002509573343,1.1217740961502838,-17.685397219291946,0.13310260624193465,-0.13790931978910187,-0.8559475602789891,-0.0028521974660773693,0.003424952994271587,0.01832895838495006,0,70,255.0,255.0,255.0
539,26.950000000000003,9.332654260987331,1.1148828752350284,-17.728171644791928,0.13297117729209462,-0.13774023916197736,-0.8550286334003395,-0.0024049605275239215,0.0033382720907073568,0.01842811676103722,0,70,255.0,255.0,255.0
540,27.0,9.3393,1.108,-17.7709,0.13286211018918226,-0.1375754925800311,-0.8541047486028855,-0.001957723588970506,0.0032515911871433545,0.018527275137130594,0,70,255.0,255.0,255.0
541,27.05,9.345940223565492,1.1011252279473456,-17.813581700657803,0.1327381366408669,-0.13741662777887734,-0.8531557241407386,-0.003001218343643523,0.003103000859006675,0.019433703348748044,0,70,255.0,255.0,255.0
542,27.1,9.352572944085125,1.0942582133968388,-17.856214817057232,0.1325619883548179,-0.13726519249413044,-0.8521613782680106,-0.00404471309831654,0.0029544105308699957,0.020340131560365498,0,70,255.0,255.0,255.0
543,27.150000000000002,9.359195552822012,1.087398584872659,-17.89879708312776,0.13233366533103524,-0.13712118672579035,-0.851121710984702,-0.0050882078529895566,0.002805820202733316,0.021246559771982948,0,70,255.0,255.0,255.0
544,27.200000000000003,9.365805441039267,1.0805459708989862,-17.94132623279886,0.13205316756951896,-0.1369846104738571,-0.8500367222908124,-0.006131702607662574,0.0026572298745966365,0.022152987983600398,0,70,255.0,255.0,255.0
545,27.25,9.3724,1.0737,-17.9838,0.131720495070269,-0.13685546373833066,-0.848906412186342,-0.007175197362335961,0.0025086395464601896,0.023059416195217786,0,70,255.0,255.0,255.0
546,27.3,9.378977808566011,1.0668606463801065,-18.026216448368746,0.13140690375415492,-0.13671300570560488,-0.8477505631571487,-0.005368455282226733,0.0031896817625708717,0.023174544972511237,0,70,255.0,255.0,255.0
547,27.35,9.385542195993816,1.0600292669646194,-18.068574960375066,0.13118364954204634,-0.13653649556207356,-0.8465889576890908,-0.0035617132021175044,0.0038707239786815533,0.023289673749804687,0,70,255.0,255.0,255.0
548,27.400000000000002,9.392097679138617,1.053207564359079,-18.11087524819701,0.13105073243394316,-0.13632593330773674,-0.8454215957821682,-0.001754971122008276,0.004551766194792235,0.02340480252709814,0,70,255.0,255.0,255.0
549,27.450000000000003,9.39864877485561,1.0463972411690259,-18.153117024012637,0.1310081524298455,-0.13608131894259434,-0.844248477436381,5.1770958100952336e-05,0.005232808410902917,0.02351993130439159,0,70,255.0,255.0,255.0
550,27.5,9.4052,1.0396,-18.1953,0.13105590952975324,-0.13580265246664644,-0.8430696026517291,0.001858513038208942,0.0059138506270139946,0.023635060081683257,0,70,255.0,255.0,255.0
551,27.55,9.411754142170466,1.0328169865322279,-18.2374237058672,0.13109024834252023,-0.1355233493987034,-0.8418740232306631,-0.0004849605275286774,0.005258272090707496,0.02418811676095683,0,70,255.0,255.0,255.0
552,27.6,9.418307071939614,1.0260471187446827,-18.279486941442503,0.13100741347700037,-0.1352768252575757,-0.8406507909756334,-0.002828434093266297,0.004602693554400997,0.024741173440230406,0,70,255.0,255.0,255.0
553,27.650000000000002,9.424852930623528,1.0192887576910235,-18.3214883240842,0.1308074049331936,-0.1350630800432633,-0.83939990588664,-0.005171907659003916,0.003947115018094499,0.02529423011950398,0,70,255.0,255.0,255.0
554,27.700000000000003,9.431385859538297,1.012540264424909,-18.3634264711506,0.13049022271109997,-0.13488211375576623,-0.838121367963683,-0.007515381224741536,0.0032915364817880004,0.025847286798777555,0,70,255.0,255.0,255.0
555,27.75,9.4379,1.0058,-18.4053,0.13005586681071948,-0.1347339263950845,-0.8368151772067624,-0.009858854790479876,0.0026359579454811044,0.026400343478052868,0,70,255.0,255.0,255.0
556,27.8,9.444391222752126,0.9990666074909813,-18.44710792816245,0.12960810287576602,-0.13460159669958255,-0.8355053439202196,-0.008051702607658326,0.002657229874596601,0.02599298798366067,0,70,255.0,255.0,255.0
557,27.85,9.45086231624773,0.9923398580566491,-18.488850873854936,0.12925069654995364,-0.13446820340762483,-0.8342158784083962,-0.006244550424836774,0.002678501803712097,0.025585632489268473,0,70,255.0,255.0,255.0
558,27.900000000000002,9.457317798367274,0.9856198048768263,-18.530529855466202,0.12898364783328234,-0.13433374651921134,-0.8329467806712926,-0.004437398242015223,0.0026997737328275937,0.025178276994876275,0,70,255.0,255.0,255.0
559,27.950000000000003,9.463762186991211,0.9789065011313354,-18.572145891384977,0.1288069567257521,-0.13419822603434206,-0.8316980507089087,-0.002630246059193672,0.0027210456619430902,0.024770921500484076,0,70,255.0,255.0,255.0
560,28.0,9.4702,0.9722,-18.6137,0.128720623227363,-0.13406164195301704,-0.8304696885212443,-0.0008230938763720275,0.002742317591058141,0.024363566006091908,0,70,255.0,255.0,255.0
561,28.05,9.476634566821037,0.9655005835038462,-18.655192581483014,0.12865334015440633,-0.13391026380296797,-0.8292246010884806,-0.0018682290418951346,0.0033128084109053184,0.02543993130445427,0,70,255.0,255.0,255.0
562,28.1,9.48306446306947,0.9588094490287195,-18.696621563137768,0.1285338003231735,-0.1337303611119265,-0.8279256953907987,-0.0029133642074182418,0.003883299230752496,0.02651629660281663,0,70,255.0,255.0,255.0
563,28.150000000000002,9.489487075907384,0.9521280228016697,-18.737984254051018,0.1283620037336645,-0.1335219338798927,-0.8265729714281989,-0.003958499372941349,0.004453790050599673,0.027592661901178997,0,70,255.0,255.0,255.0
564,28.200000000000003,9.495899792496864,0.9454577310497466,-18.779277963309507,0.12813795038587933,-0.1332849821068665,-0.825166429200681,-0.005003634538464456,0.005024280870446851,0.02866902719954136,0,70,255.0,255.0,255.0
565,28.25,9.5023,0.9388,-18.8205,0.12786164027981806,-0.13301950579284802,-0.8237060687082448,-0.006048769703987489,0.005594771690293987,0.029745392497901868,0,70,255.0,255.0,255.0
566,28.3,9.508685709963727,0.9321558584936334,-18.861648145905495,0.12757053650660058,-0.13274934808854597,-0.8222202517258298,-0.005595381224712164,0.005211536481787732,0.029687286798700363,0,70,255.0,255.0,255.0
567,28.35,9.515057431474393,0.9255247458284714,-18.902722073594,0.12730210215734683,-0.13249835214466923,-0.8207373400283747,-0.005141992745436839,0.004828301273281477,0.029629181099498858,0,70,255.0,255.0,255.0
568,28.400000000000002,9.521416298003196,0.9189057039164926,-18.94372192832975,0.12705633723205687,-0.1322665179612178,-0.8192573336158797,-0.004688604266161514,0.004445066064775222,0.02957107540029735,0,70,255.0,255.0,255.0
