idx,t,px,py,pz,vx,vy,vz,ax,ay,az,yaw,mode,ledr,ledg,ledb
0,0.0,0.0,0.0,0.0,-4.746030648101249e-13,-2.8505661713693614e-66,0.0427680836699208,5.695236777721498e-12,3.4206794056432335e-65,-1.1852170040390495,0,70,255.0,255.0,255.0
1,0.05,-1.7085710333164494e-14,-1.0262038216929703e-67,0.0006652510121171486,-2.1831740981265742e-13,-1.3112604388299064e-66,-0.015990681511836437,4.556189422177198e-12,2.736543524514587e-65,-1.1651336032312396,0,70,255.0,255.0,255.0
2,0.1,-2.2780947110885992e-14,-1.3682717622572934e-67,-0.0015823319838438024,-1.8984122592404968e-14,-1.1402264685477467e-67,-0.07374527665320318,3.4171420666328986e-12,2.0524076433859403e-65,-1.14505020242343,0,70,255.0,255.0,255.0
3,0.15000000000000002,-1.9933328722025243e-14,-1.1972377919751317e-67,-0.006692540485863329,1.2339679685063248e-13,7.411472045560337e-67,-0.13049570175417946,2.2780947110885988e-12,1.3682717622572932e-65,-1.12496680161562,0,70,255.0,255.0,255.0
4,0.2,-1.1390473555442996e-14,-6.841358811286462e-68,-0.014615165991921905,2.0882534851645498e-13,1.2542491154025184e-66,-0.18624195681476519,1.139047355544299e-12,6.841358811286466e-66,-1.1048834008078103,0,70,255.0,255.0,255.0
5,0.25,0.0,0.0,-0.0253,2.3730153240506244e-13,1.4252830856846807e-66,-0.24098404183496042,0.0,0.0,-1.0848000000000004,0,70,255.0,255.0,255.0
6,0.30000000000000004,1.1390473555443005e-14,6.841358811286473e-68,-0.038696834008078114,2.088253485164549e-13,1.2542491154025186e-66,-0.2947219568147652,-1.1390473555443006e-12,-6.841358811286473e-66,-1.0647165991921903,0,70,255.0,255.0,255.0
7,0.35000000000000003,1.993332872202525e-14,1.197237791975132e-67,-0.054755459514136684,1.233967968506324e-13,7.411472045560335e-67,-0.34745570175417945,-2.2780947110886e-12,-1.3682717622572939e-65,-1.04463319838438,0,70,255.0,255.0,255.0
8,0.4,2.2780947110885992e-14,1.3682717622572935e-67,-0.0734256680161562,-1.8984122592405044e-14,-1.140226468547748e-67,-0.3991852766532032,-3.4171420666328994e-12,-2.0524076433859403e-65,-1.0245497975765698,0,70,255.0,255.0,255.0
9,0.45,1.7085710333164488e-14,1.02620382169297e-67,-0.09465725101211715,-2.183174098126575e-13,-1.3112604388299067e-66,-0.44991068151183644,-4.556189422177199e-12,-2.736543524514587e-65,-1.0044663967687595,0,70,255.0,255.0,255.0
10,0.5,0.0,0.0,-0.1184,-4.746030648101249e-13,-2.8505661713693614e-66,-0.4996319163300792,-5.695236777721497e-12,-3.420679405643234e-65,-0.9843829959609502,0,70,255.0,255.0,255.0
11,0.55,-2.8476183888607515e-14,-1.7103397028216184e-67,-0.14460191497980476,-6.169839842531623e-13,-3.7057360227801697e-66,-0.5482414912291029,5.6545549686242126e-27,3.3735033418337674e-80,-0.9599999999999996,0,70,255.0,255.0,255.0
12,0.6000000000000001,-5.695236777721502e-14,-3.420679405643237e-67,-0.17320382995960956,-4.746030648101243e-13,-2.850566171369358e-66,-0.5956319163300792,5.695236777721509e-12,3.4206794056432406e-65,-0.9356170040390489,0,70,255.0,255.0,255.0
13,0.65,-7.119045972151872e-14,-4.275849257054042e-67,-0.2041447874495119,-4.7460306481012256e-14,-2.8505661713693345e-67,-0.6418031916330079,1.1390473555443e-11,6.84135881128647e-65,-0.9112340080780983,0,70,255.0,255.0,255.0
14,0.7000000000000001,-5.69523677772149e-14,-3.4206794056432296e-67,-0.23736382995960956,6.64444290734176e-13,3.9907926399171147e-66,-0.6867553171378891,1.7085710333164503e-11,1.0262038216929707e-64,-0.8868510121171477,0,70,255.0,255.0,255.0
15,0.75,0.0,0.0,-0.2728,1.661110726835437e-12,9.976981599792766e-66,-0.7304882928447225,2.278094711088599e-11,1.3682717622572934e-64,-0.862468016156198,0,70,255.0,255.0,255.0
16,0.8,1.0251426199898708e-13,6.157222930157828e-67,-0.3103923060727029,2.259110588496194e-12,1.3568694975718161e-65,-0.7730000782688228,1.139047355544278e-12,6.841358811286352e-66,-0.838003400807812,0,70,255.0,255.0,255.0
17,0.8500000000000001,2.078761423868348e-13,1.2485479830597814e-66,-0.35007962064742537,1.775015462389865e-12,1.0661117480921403e-65,-0.8142886329255038,-2.0502852399797433e-11,-1.2314445860315663e-64,-0.8135387854594259,0,70,255.0,255.0,255.0
18,0.9,2.6198089177518896e-13,1.573512526595888e-66,-0.3918007821857962,2.0882534851645376e-13,1.254249115402513e-66,-0.8543539568147653,-4.214475215513909e-11,-2.5313027601759935e-64,-0.78907417011104,0,70,255.0,255.0,255.0
19,0.9500000000000001,2.1072376077569525e-13,1.265651380087996e-66,-0.4354946291494449,-2.4394597531240463e-12,-1.4651910120838544e-65,-0.8931960499366077,-6.378665191048081e-11,-3.8311609343204234e-64,-0.764609554762654,0,70,255.0,255.0,255.0
20,1.0,0.0,0.0,-0.4811,-6.169839842531623e-12,-3.70573602278017e-65,-0.9308149122910307,-8.542855166582248e-11,-5.1310191084648506e-64,-0.7401449394142716,0,70,255.0,255.0,255.0
21,1.05,-3.8158086410734074e-13,-2.291855201780969e-66,-0.5285560607293839,-8.419458369731616e-12,-5.056904388009247e-65,-0.9672301956956066,-4.556189422177125e-12,-2.7365435245145477e-65,-0.7164663967687609,0,70,255.0,255.0,255.0
22,1.1,-7.745522017701244e-13,-4.652123991674802e-66,-0.5778032874506895,-6.6254587847493385e-12,-3.979390375231625e-65,-1.0024615519679068,7.631617282146823e-11,4.583710403561941e-64,-0.6927878541232502,0,70,255.0,255.0,255.0
23,1.1500000000000001,-9.76733107379237e-13,-5.866465180678147e-66,-0.6287824838073034,-7.878410875847838e-13,-4.73193984447302e-66,-1.0365089811079315,1.5718853506511358e-10,9.441075159575336e-64,-0.6691093114777394,0,70,255.0,255.0,255.0
24,1.2000000000000002,-7.859426753255652e-13,-4.7205375797876524e-66,-0.6814344534426116,9.093394721762032e-12,5.46168478434372e-65,-1.069372483115681,2.3806089730875896e-10,1.4298439915588733e-63,-0.6454307688322287,0,70,255.0,255.0,255.0
25,1.25,0.0,0.0,-0.7357,2.3018248643291055e-11,1.3825245931141403e-64,-1.1010520579911547,3.189332595524039e-10,1.915580467160211e-63,-0.6217522261867288,0,70,255.0,255.0,255.0
26,1.3,1.423809194430376e-12,8.551698514108092e-66,-0.7915194510097622,3.141872289043026e-11,1.8870748054465172e-64,-1.1315191389487518,1.7085710333164215e-11,1.0262038216929555e-64,-0.5969310121171467,0,70,255.0,255.0,255.0
27,1.35,2.890332664693662e-12,1.7359947983639425e-65,-0.8488312295498173,2.4726819676607485e-11,1.4851449752834363e-64,-1.1607451592028695,-2.8476183888607545e-10,-1.71033970282162e-63,-0.5721097980475647,0,70,255.0,255.0,255.0
28,1.4000000000000001,3.644951537741759e-12,2.18923481961167e-65,-0.9075732825849913,2.942539001822696e-12,1.7673510262489608e-65,-1.1887301187535082,-5.866093881053151e-10,-3.523299787812535e-63,-0.5472885839779827,0,70,255.0,255.0,255.0
29,1.4500000000000002,2.9330469405265648e-12,1.7616498939062615e-65,-0.9676835570801101,-3.393411913392407e-11,-2.0381548125291026e-64,-1.2154740176006678,-8.884569373245548e-10,-5.336259872803451e-63,-0.5224673699084007,0,70,255.0,255.0,255.0
30,1.5,0.0,0.0,-1.0291,-8.59031547306326e-11,-5.1595247701785444e-64,-1.2409768557443481,-1.1903044865437936e-09,-7.149219957794357e-63,-0.4976461558388223,0,70,255.0,255.0,255.0
31,1.55,-5.313655913614164e-12,-3.1914938854651403e-65,-1.0917613352315676,-1.1725543319198946e-10,-7.042608782985144e-64,-1.265285248509385,-6.378665191047993e-11,-3.831160934320357e-64,-0.4746895547626579,0,70,255.0,255.0,255.0
32,1.6,-1.0786778457004529e-11,-6.47876679428829e-65,-1.1556093943500416,-9.228181992168061e-11,-5.5426408636105825e-64,-1.2884458112206139,1.0627311827228337e-09,6.382987770930286e-63,-0.45173295368649347,0,70,255.0,255.0,255.0
33,1.6500000000000001,-1.3603073043587806e-11,-8.170292760378866e-65,-1.2205867858527322,-1.0982314919706013e-11,-6.596210120548504e-65,-1.3104585438780345,2.1892490173561474e-09,1.3149091635292607e-62,-0.428776352610329,0,70,255.0,255.0,255.0
34,1.7000000000000002,-1.0946245086780703e-11,-6.574545817646282e-65,-1.2866361182369486,1.2664308181393435e-10,7.606450771682034e-64,-1.3313234464816468,3.315766851989461e-09,1.991519549965493e-62,-0.40581975153416455,0,70,255.0,255.0,255.0
35,1.75,0.0,0.0,-1.3537,3.205943702792394e-10,1.9255574487600036e-63,-1.3510405190314512,4.442284686622768e-09,2.668129936401722e-62,-0.38286315045800556,0,70,255.0,255.0,255.0
36,1.8,1.9830814460026277e-11,1.1910805690449752e-64,-1.4217200080639676,4.376030098775275e-10,2.628336032649406e-63,-1.3695478670137071,2.380608973087544e-10,1.429843991558848e-63,-0.3574307688322374,0,70,255.0,255.0,255.0
37,1.85,4.025678116332444e-11,2.4179072378789218e-64,-1.4906335930500159,3.4440046001011487e-10,2.0685418479158884e-63,-1.386783595914675,-3.966162892005259e-09,-2.3821611380899526e-62,-0.33199838720646924,0,70,255.0,255.0,255.0
38,1.9000000000000001,5.076734063660944e-11,3.049193622190379e-64,-1.5603771740040804,4.098672067700116e-11,2.4617489455945225e-64,-1.402747705734354,-8.170386681319273e-09,-4.9073066753357896e-62,-0.30656600558070113,0,70,255.0,255.0,255.0
39,1.9500000000000002,4.085193340659623e-11,2.4536533376678874e-64,-1.6308871699720966,-4.726382081218132e-10,-2.838764827419906e-63,-1.417440196472745,-1.2374610470633287e-08,-7.432452212581627e-62,-0.28113362395493297,0,70,255.0,255.0,255.0
40,2.0,0.0,0.0,-1.7021,-1.1964743263863248e-09,-7.18627731802216e-63,-1.4308610681298473,-1.6578834259947284e-08,-9.957597749827457e-62,-0.25570124232916314,0,70,255.0,255.0,255.0
41,2.0500000000000003,-7.40096019264913e-11,-4.445172887633408e-64,-1.773953032512562,-1.6331566063181208e-09,-9.809083252299112e-63,-1.4430672834357865,-8.884569373244699e-10,-5.336259872802961e-63,-0.23254736990840344,0,70,255.0,255.0,255.0
42,2.1,-1.5024034619629324e-10,-9.023752272086858e-64,-1.8463874334498949,-1.2853200201187787e-09,-7.719903305302497e-63,-1.4541158051206875,1.4801920385298205e-08,8.890345775266782e-62,-0.20939349748764396,0,70,255.0,255.0,255.0
43,2.15,-1.8946628950284993e-10,-1.1379745212723628e-63,-1.9193453181309466,-1.5296456778830572e-10,-9.18737477032362e-64,-1.464006633184551,3.049229770792087e-08,1.8314317537813857e-61,-0.18623962506688446,0,70,255.0,255.0,255.0
44,2.2,-1.5246148853960418e-10,-9.157158768906919e-64,-1.992768801874666,1.7639097506733179e-09,1.059441423251142e-62,-1.4727397676273761,4.6182675030543693e-08,2.7738289300361018e-61,-0.1630857526461248,0,70,255.0,255.0,255.0
45,2.25,0.0,0.0,-2.0666,4.46530293526606e-09,2.681955182332864e-62,-1.480315208449163,6.187305235316635e-08,3.716226106290809e-61,-0.13993188022537417,0,70,255.0,255.0,255.0
46,2.3000000000000003,2.7620759324593886e-10,1.6589610981488652e-63,-2.1407806618857856,6.095023415394956e-09,3.660799697654704e-62,-1.4867109992431515,3.315766851989135e-09,1.991519549965298e-62,-0.11589975153416199,0,70,255.0,255.0,255.0
47,2.35,5.607046036218485e-10,3.367710185046851e-63,-2.2152510731504065,4.7968796204650005e-09,2.8811071373294096e-62,-1.4919051836025794,-5.5241518649187555e-08,-3.3179221962977174e-61,-0.09186762284295003,0,70,255.0,255.0,255.0
48,2.4000000000000004,7.070978173747906e-10,4.2469787228704154e-63,-2.2899511534721344,5.708715504761684e-10,3.428775013569676e-63,-1.4958977615274465,-1.1379880415036479e-07,-6.834996347591996e-61,-0.06783549415173784,0,70,255.0,255.0,255.0
49,2.45,5.689940207518204e-10,3.417498173795978e-63,-2.3648208225292415,-6.583000794571462e-09,-3.953889210262577e-62,-1.4986887330177532,-1.7235608965154147e-07,-1.0352070498886244e-60,-0.04380336546052588,0,70,255.0,255.0,255.0
50,2.5,0.0,0.0,-2.4398,-1.6664737414677916e-08,-1.0009192997529239e-61,-1.5002780980734993,-2.3091337515271817e-07,-1.386914465018049e-60,-0.019771236769315692,0,70,255.0,255.0,255.0
51,2.5500000000000003,-1.030820771057264e-09,-6.191327103832121e-63,-2.514828319944298,-2.2746937055261708e-08,-1.3662290465388904e-61,-1.5006487195916054,-1.237461047063209e-08,-7.432452212580916e-62,0.0049463760450693325,0,70,255.0,255.0,255.0
52,2.6,-2.0925780682911012e-09,-1.2568465512978718e-62,-2.589844273948482,-1.7902198461741218e-08,-1.0752438218787393e-61,-1.4997834604689924,2.0616415421145208e-07,1.2382654207664192e-60,0.029663988859454135,0,70,255.0,255.0,255.0
53,2.6500000000000004,-2.6389249799963125e-09,-1.5849940370209298e-62,-2.664786067980519,-2.130521634116377e-09,-1.279636257724643e-62,-1.4976823207056602,4.2470291889353816e-07,2.5508553636586586e-60,0.05438160167383917,0,70,255.0,255.0,255.0
54,2.7,-2.1235145944676784e-09,-1.2754276818293226e-62,-2.7395919080083693,2.456809342761253e-08,1.475611541779916e-61,-1.4943453003016085,6.432416835756224e-07,3.8634453065508874e-60,0.07909921448822396,0,70,255.0,255.0,255.0
55,2.75,0.0,0.0,-2.8142,6.21936467234456e-08,3.735481680778409e-61,-1.4897723992568375,8.617804482577065e-07,5.176035249443115e-60,0.10381682730261055,0,70,255.0,255.0,255.0
56,2.8000000000000003,3.847075490983119e-09,2.3106347317179614e-62,-2.888549258337026,8.489272480565188e-08,5.0988362163900906e-61,-1.4840061223904255,4.618267503053937e-08,2.7738289300358296e-61,0.12683424735386642,0,70,255.0,255.0,255.0
57,2.85,7.809607669542556e-09,4.690615186686802e-62,-2.9625814310556664,6.681191422649989e-08,4.012864573782014e-61,-1.4770889745214508,-7.694150981966205e-07,-4.6212694634359057e-60,0.1498516674051221,0,70,255.0,255.0,255.0
58,2.9000000000000004,9.848602102610461e-09,5.915278275796676e-62,-3.036238974605795,7.951214985989389e-09,4.7756675295416076e-62,-1.4690209556499132,-1.5850128714237874e-06,-9.519921819875436e-60,0.17286908745637797,0,70,255.0,255.0,255.0
59,2.95,7.925064357118895e-09,4.759960909937692e-62,-3.1094643454372823,-9.168937291587867e-08,-5.5070572460934105e-61,-1.459802065775813,-2.4006106446509474e-06,-1.4418574176314926e-59,0.19588650750763364,0,70,255.0,255.0,255.0
60,3.0,0.0,0.0,-3.1822,-2.321098494791045e-07,-1.3941007423360712e-60,-1.44943230489915,-3.2162084178781074e-06,-1.9317226532754413e-59,0.21890392755888932,0,70,255.0,255.0,255.0
61,3.0500000000000003,-1.4357481192875207e-08,-8.623406216488633e-62,-3.2543874467076006,-3.168239621673458e-07,-1.9029115819021476e-60,-1.4378547908466908,-1.7235608965152513e-07,-1.0352070498885265e-60,0.24419663453947443,0,70,255.0,255.0,255.0
62,3.1,-2.9145852609879125e-08,-1.7505614195449334e-61,-3.3259644018288523,-2.4934545844425833e-07,-1.497621447324932e-60,-1.4250126414452027,2.87149623857503e-06,1.7246812432977197e-59,0.2694893415200593,0,70,255.0,255.0,255.0
63,3.1500000000000004,-3.6755483430445526e-08,-2.207611906616578e-61,-3.3968676335963037,-2.9674338309841145e-08,-1.7823033860441763e-61,-1.4109058566946848,5.915348566801613e-06,3.5528831915843086e-59,0.2947820485006444,0,70,255.0,255.0,255.0
64,3.2,-2.9576742834007888e-08,-1.7764415957921433e-61,-3.4670339102425034,3.42189398235902e-07,2.0552617442593713e-60,-1.3955344365951379,8.959200895028167e-06,5.3810851398708805e-59,0.32007475548122927,0,70,255.0,255.0,255.0
65,3.25,0.0,0.0,-3.5364,8.662457511929724e-07,5.202854801266444e-60,-1.3788983811465623,1.2003053223254724e-05,7.209287088157453e-59,0.3453674624618124,0,70,255.0,255.0,255.0
66,3.3000000000000003,5.358284928051772e-08,3.218299013423657e-61,-3.6049033548325733,1.1824031238637312e-06,7.10176270596958e-60,-1.3610387142228113,6.432416835755612e-07,3.8634453065505276e-60,0.36901921448822406,0,70,255.0,255.0,255.0
67,3.35,1.0877380276997393e-07,6.533184159511053e-61,-3.672484161628926,9.305699195505336e-07,5.589199331921527e-60,-1.3419964596977398,-1.07165698561035e-05,-6.436598026847288e-59,0.3926709665146355,0,70,255.0,255.0,255.0
68,3.4000000000000004,1.3717333161917165e-07,8.238919798886644e-61,-3.7390832910089924,1.10746138253375e-07,6.651646791222561e-61,-1.3217716175713476,-2.2076381395782662e-05,-1.325954058434969e-58,0.4163227185410472,0,70,255.0,255.0,255.0
69,3.45,1.1038190697891263e-07,6.62977029217481e-61,-3.8046416135927053,-1.2770682200277288e-06,-7.670341252428142e-60,-1.300364187843635,-3.3436192935461725e-05,-2.008248314185203e-58,0.43997447056745864,0,70,255.0,255.0,255.0
70,3.5,0.0,0.0,-3.8691,-3.232873155292785e-06,-1.9417318462729705e-59,-1.2777741705146017,-4.4796004475140794e-05,-2.6905425699354376e-58,0.4636262225938754,0,70,255.0,255.0,255.0
71,3.5500000000000003,-1.9997391592919564e-07,-1.2010855432045769e-60,-3.9323991339621074,-4.412788533287579e-06,-2.6504139241976174e-59,-1.2539903522620637,-2.4006106446507276e-06,-1.4418574176313546e-59,0.4877265075076456,0,70,255.0,255.0,255.0
72,3.6,-4.059493584700167e-07,-2.4382175218499286e-60,-3.9944789516554455,-3.4729342197578776e-06,-2.085917588036118e-59,-1.229001519763837,3.999478318583897e-05,2.402171086409144e-58,0.5118267924214156,0,70,255.0,255.0,255.0
73,3.6500000000000004,-5.11937843046241e-07,-3.074806728892999e-60,-4.055279202367729,-4.133102147036607e-07,-2.4824283778846073e-60,-1.202807673019922,8.239017701632903e-05,4.9485279145814454e-58,0.5359270773351857,0,70,255.0,255.0,255.0
74,3.7,-4.1195088508164303e-07,-2.4742639572907102e-60,-4.114739635386676,4.766083481875014e-06,2.8626103265453216e-59,-1.1754088120303186,0.00012478557084681874,7.494884742753725e-58,0.5600273622489558,0,70,255.0,255.0,255.0
75,3.75,0.0,0.0,-4.1728,1.2065246869978169e-05,7.246641904965238e-59,-1.1468049367950268,0.00016718096467730842,1.0041241570926005e-57,0.5841276471627239,0,70,255.0,255.0,255.0
76,3.8000000000000003,7.463128144362648e-07,4.4825122714759415e-60,-4.229400909318998,1.6468751009286585e-05,9.891479426193512e-59,-1.1170478767289285,8.959200895027291e-06,5.381085139870373e-59,0.6061547554812081,0,70,255.0,255.0,255.0
77,3.85,1.5150236311100924e-06,9.099551671448606e-60,-4.2844864317492934,1.296116695948097e-05,7.784750418952319e-59,-1.086189461246906,-0.00014926256288725243,-8.965024542951846e-58,0.6281818637996921,0,70,255.0,255.0,255.0
78,3.9000000000000004,1.910578040565793e-06,1.1475334935683334e-59,-4.33800149952009,1.542494720561263e-06,9.264548832416195e-60,-1.0542296903489592,-0.0003074843266695335,-1.8468157599890813e-57,0.6502089721181763,0,70,255.0,255.0,255.0
79,3.95,1.5374216333476586e-06,9.234078799945356e-60,-4.389891044860592,-1.778726570747234e-05,-1.068340718093847e-58,-1.0211685640350883,-0.0004657060904518133,-2.79712906568297e-57,0.6722360804366603,0,70,255.0,255.0,255.0
80,4.0,0.0,0.0,-4.4401,-4.502811432461989e-05,-2.704483577358798e-58,-0.9870060823052931,-0.000623927854234093,-3.747442371376857e-57,0.6942631887551478,0,70,255.0,255.0,255.0
81,4.05,-2.785277341815837e-06,-1.6728963542699021e-59,-4.488567628761898,-6.146221550385874e-05,-3.691550378057642e-58,-0.9514021408222276,-3.343619293546391e-05,-2.0082483141853193e-58,0.7298944705674772,0,70,255.0,255.0,255.0
82,4.1000000000000005,-5.654145165970375e-06,-3.3959989163944633e-59,-4.535210521347381,-4.8371733618165777e-05,-2.9053084087772995e-58,-0.914016635248545,0.0005570554683631758,3.3457927085398566e-57,0.7655257523798075,0,70,255.0,255.0,255.0
83,4.15,-7.13037431921693e-06,-4.282653301384034e-59,-4.579939599551911,-5.756668667541412e-06,-3.4575766951779882e-59,-0.8748495655842464,0.001147547129661805,6.892410248498182e-57,0.8011570341921369,0,70,255.0,255.0,255.0
84,4.2,-5.737735648308992e-06,-3.44620512424907e-59,-4.622665785170961,6.638297934801431e-05,3.987101839720856e-58,-0.8339009318293314,0.0017380387909604342,1.0439027788456507e-56,0.8367883160044665,0,70,255.0,255.0,255.0
85,4.25,0.0,0.0,-4.6633,0.0001680472104285014,1.0093270118938668e-57,-0.7911707339838001,0.002328530452259063,1.398564532841483e-56,0.8724195978167977,0,70,255.0,255.0,255.0
86,4.3,1.039479655282709e-05,6.243334189932019e-59,-4.701769375633405,0.0002293801110061484,1.3777053569611216e-57,-0.7476315599821565,0.0001247855708468265,7.49488474275418e-58,0.8691473622489582,0,70,255.0,255.0,255.0
87,4.3500000000000005,2.11015570327714e-05,1.2674040498432989e-58,-4.738065882861189,0.00018052576751318214,1.0842758593213972e-57,-0.7042559977589038,-0.0020789593105654492,-1.2486668379864229e-56,0.8658751266811187,0,70,255.0,255.0,255.0
88,4.4,2.661091923630193e-05,1.59830797119678e-58,-4.772197702272269,2.148417994960437e-05,1.2903851897470365e-58,-0.6610440473140441,-0.0042827041919776855,-2.572282523400364e-56,0.8626028911132791,0,70,255.0,255.0,255.0
89,4.45,2.1413520959888313e-05,1.2861412617001745e-58,-4.804173014455566,-0.0002477446516845848,-1.4880066640789573e-57,-0.6179957086475762,-0.006486449073389922,-3.895898208814305e-56,0.8593306555454397,0,70,255.0,255.0,255.0
90,4.5,0.0,0.0,-4.834,-0.0006271607273893857,-3.7668596898395873e-57,-0.5751109817595003,-0.008690193954802156,-5.219513894228247e-56,0.8560584199776011,0,70,255.0,255.0,255.0
91,4.55,-4.199390886949248e-05,-2.330044040545817e-58,-4.861703668704477,-0.0010480582285207335,-5.141666390038722e-57,-0.5333996192491443,-0.008145706090451814,-2.797129065683149e-57,0.8123960804366426,0,70,255.0,255.0,255.0
92,4.6000000000000005,-0.00010435208296511563,-4.730016307733749e-58,-4.887376347207865,-0.0014417313364345709,-4.04657259640786e-57,-0.4938713737158356,-0.00760121822610146,4.660088081091706e-56,0.7687337408956832,0,70,255.0,255.0,255.0
93,4.65,-0.00018571330262599138,-5.964966554648717e-58,-4.911127191359013,-0.001808180051130884,-4.815783089470357e-58,-0.4565262451595755,-0.007056730361751117,9.59988906875164e-56,0.7250714013547248,0,70,255.0,255.0,255.0
94,4.7,-0.0002847163481912448,-4.799944534375791e-58,-4.933065357006773,-0.00214740437260968,5.553316472343746e-57,-0.42136423358036346,-0.006512242497400773,1.4539690056411572e-55,0.6814090618137663,0,70,255.0,255.0,255.0
95,4.75,-0.0004,0.0,-4.9533,-0.0024594043008709593,1.4058111747464482e-56,-0.3883853389781992,-0.005967754633050437,1.9479491044071503e-55,0.6377467222728082,0,70,255.0,255.0,255.0
96,4.800000000000001,-0.0005312191610748586,8.695842743190238e-58,-4.97193674954868,-0.002805147196923215,1.9188960203193776e-56,-0.3573779630212669,-0.007861961209039597,1.043902778845388e-56,0.602548316004467,0,70,255.0,255.0,255.0
97,4.8500000000000005,-0.0006820932251723137,1.7652661181091696e-57,-4.98906712830735,-0.003245600421774922,1.510201452631004e-56,-0.3281305073777521,-0.009756167785028722,-1.73916854863804e-55,0.5673499097361264,0,70,255.0,255.0,255.0
98,4.9,-0.0008573577087323404,2.2261558247398088e-57,-5.004779132291679,-0.0037807639754260836,1.7972747168134466e-57,-0.30064297204765444,-0.011650374361017849,-3.5827273751606186e-55,0.5321515034677858,0,70,255.0,255.0,255.0
99,4.95,-0.0010617481281949117,1.7913636875802984e-57,-5.019160757517339,-0.004410637857876702,-2.072525922529602e-56,-0.2749153570309738,-0.013544580937006973,-5.426286201683197e-55,0.49695309719944536,0,70,255.0,255.0,255.0
100,5.0,-0.0013,0.0,-5.0323,-0.005135222069126776,-5.246558730001834e-56,-0.25094766232771004,-0.015438787512996079,-7.269845028205776e-55,0.4617546909311061,0,70,255.0,255.0,255.0
101,5.050000000000001,-0.0015763294468310856,-3.245332693221509e-57,-5.0442853331008,-0.0059233529837864375,-7.161417442273639e-56,-0.2287685286657955,-0.01608644907338991,-3.89589820881333e-56,0.4254106555454625,0,70,255.0,255.0,255.0
102,5.1000000000000005,-0.001892875016345641,-6.588062841663304e-57,-5.055207139562735,-0.006743866976465776,-5.63614855088323e-56,-0.20840659677316353,-0.016734110633783737,6.490665386442989e-55,0.3890666201598195,0,70,255.0,255.0,255.0
103,5.15,-0.002251255862444656,-8.308126643494363e-57,-5.065156279474271,-0.007596764047164806,-6.707520558306719e-57,-0.1898618666498137,-0.01738177219417756,1.3370920593767312e-54,0.3527225847741765,0,70,255.0,255.0,255.0
104,5.2,-0.002653091139029114,-6.685460296883621e-57,-5.074223612923871,-0.008482044195883526,7.734772042884035e-56,-0.173134338295746,-0.018029433754571382,2.0251175801091632e-54,0.3163785493885336,0,70,255.0,255.0,255.0
105,5.25,-0.0031,0.0,-5.0825,-0.009399707422621936,1.958042374526089e-55,-0.15822401171096045,-0.018677095314965142,2.7131431008415955e-54,0.2800345140028906,0,70,255.0,255.0,255.0
106,5.300000000000001,-0.003593863051600825,1.2111746498567013e-56,-5.090076318048123,-0.010365440867931097,2.6726773748775178e-55,-0.14513192231554392,-0.019952242497400793,1.4539690056407913e-55,0.24364906181376256,0,70,255.0,255.0,255.0
107,5.3500000000000005,-0.004137606709445144,2.4586985248544045e-56,-5.097043513441712,-0.011394931672362024,2.103439275090192e-55,-0.13385910552958405,-0.02122738967983642,-2.4223492997133915e-54,0.2072636096246352,0,70,255.0,255.0,255.0
108,5.4,-0.004734418841489054,3.1006350749237646e-56,-5.103492549811239,-0.012488179835914734,2.5032807516413538e-56,-0.12440556135308048,-0.022502536862272045,-4.9900954999908626e-54,0.17087815743550783,0,70,255.0,255.0,255.0
109,5.45,-0.0053874873156886435,2.4950477499954182e-56,-5.109514390787178,-0.013645185358589221,-2.8866562249006527e-55,-0.11677128978603331,-0.023777684044707675,-7.557841700268333e-54,0.13449270524638046,0,70,255.0,255.0,255.0
110,5.5,-0.0061,0.0,-5.1152,-0.014865948240385491,-7.307513625104172e-55,-0.11095629082844252,-0.025052831227143288,-1.0125587900545803e-53,0.09810725305725243,0,70,255.0,255.0,255.0
111,5.550000000000001,-0.006874618346765659,-4.520165330104654e-56,-5.120640594706708,-0.016118883544489267,-9.974567755282706e-55,-0.10697578207202563,-0.02506458093700695,-5.426286201681828e-55,0.06111309719942112,0,70,255.0,255.0,255.0
112,5.6000000000000005,-0.007711898145873821,-9.175987815251287e-56,-5.125928406670417,-0.0173724063340862,-7.850142245272442e-55,-0.10484498110850034,-0.025076330646870613,9.040330660209268e-54,0.024118941341590455,0,70,255.0,255.0,255.0
113,5.65,-0.00861186877159916,-1.157172763534562e-55,-5.131155921280772,-0.018626516609176316,-9.342370950734685e-56,-0.1045638879378666,-0.025088080356734273,1.862328994058672e-53,-0.0128752145162402,0,70,255.0,255.0,255.0
114,5.7,-0.009574559598216332,-9.31164497029331e-56,-5.136415623927419,-0.01988121436975962,1.0773147695314211e-54,-0.10613250256012437,-0.025099830066597936,2.820624922096417e-53,-0.049869370374070854,0,70,255.0,255.0,255.0
115,5.75,-0.0106,0.0,-5.1418,-0.0211364996158361,2.72720121258906e-54,-0.10955082497527366,-0.025111579776461834,3.778920850134162e-53,-0.08686352623190152,0,70,255.0,255.0,255.0
116,5.800000000000001,-0.011689263561336611,1.6869486670561914e-55,-5.147400503125046,-0.022455024954111953,3.722559364625331e-54,-0.11475694939635758,-0.027629433754571466,2.0251175801086503e-54,-0.12138145061145256,0,70,255.0,255.0,255.0
117,5.8500000000000005,-0.012847600707059632,3.424525273615074e-55,-5.153304459876619,-0.02389944299129326,2.929712970599958e-54,-0.12168897003641896,-0.030147287732681053,-3.373897334112369e-53,-0.15589937499100298,0,70,255.0,255.0,255.0
118,5.9,-0.014081306072114351,4.3186275466458724e-55,-5.15959816506567,-0.025469753727380046,3.4866203051297365e-55,-0.13034688689545784,-0.03266514171079064,-6.950306426235602e-53,-0.1904172993705534,0,70,255.0,255.0,255.0
119,5.95,-0.01539667429144605,3.475153213117782e-55,-5.166367913503147,-0.027165957162372315,-4.020593455635619e-54,-0.14073069997347423,-0.03518299568890023,-1.0526715518358837e-52,-0.22493522375010383,0,70,255.0,255.0,255.0
120,6.0,-0.0168,0.0,-5.1737,-0.02898805329627006,-1.0178053487845822e-53,-0.15284040927046813,-0.037700849667009956,-1.4103124610482068e-52,-0.25945314812965425,0,70,255.0,255.0,255.0
121,6.050000000000001,-0.018296327407887992,-6.2957781352142995e-55,-5.181683792793113,-0.03086101663906303,-1.3892780682973054e-53,-0.16686042034254997,-0.03721768404470771,-7.557841700266428e-54,-0.3013472947536108,0,70,255.0,255.0,255.0
122,6.1000000000000005,-0.019885699025887733,-1.278050231293517e-54,-5.190420953823109,-0.03270982170074085,-1.0933837657872589e-53,-0.18297513874582932,-0.03673451842240547,1.2591556270428545e-52,-0.3432414413775665,0,70,255.0,255.0,255.0
123,6.15,-0.021566906939943484,-1.6117337423048925e-54,-5.200016218456549,-0.034534468481303565,-1.3012244125445504e-54,-0.2011845644803065,-0.036251352800103234,2.5938896710883733e-52,-0.3851355880015223,0,70,255.0,255.0,255.0
124,6.2,-0.023338743235999493,-1.2969448355441793e-54,-5.210574322059992,-0.03633495698075116,1.5005059053011048e-53,-0.22148869754598144,-0.035768187177800996,3.928623715133892e-52,-0.4270297346254781,0,70,255.0,255.0,255.0
125,6.25,-0.0252,0.0,-5.2222,-0.038111287199083646,3.7985012738794226e-53,-0.24388753794285414,-0.03528502155549862,5.26335775917941e-52,-0.46892388124943163,0,70,255.0,255.0,255.0
126,6.300000000000001,-0.027150226807111544,2.3496163873801007e-54,-5.234986725702507,-0.03990890848963609,5.184856336726687e-53,-0.26770536923344235,-0.03661983006659799,2.8206249220957074e-53,-0.48378937037408193,0,70,255.0,255.0,255.0
127,6.3500000000000005,-0.029192003189389547,4.76974839781256e-54,-5.2489829248309485,-0.041773270205743465,4.080563766089039e-53,-0.2922664749802626,-0.03795463857769733,-4.699232774760181e-52,-0.498654859498732,0,70,255.0,255.0,255.0
128,6.4,-0.031328666168111786,6.015072214554984e-54,-5.264225761108137,-0.04370437234740581,4.856235619665236e-54,-0.31757085518331535,-0.039289447088796677,-9.680528041729932e-52,-0.513520348623382,0,70,255.0,255.0,255.0
129,6.45,-0.033563552764556026,4.8402640208649393e-54,-5.280752398256883,-0.04570221491462312,-5.59996427564086e-53,-0.3436185098426006,-0.04062425559989603,-1.4661823308699684e-51,-0.5283858377480322,0,70,255.0,255.0,255.0
130,6.5,-0.0359,0.0,-5.2986,-0.04776679790739539,-1.4176199746733108e-52,-0.37040943895811834,-0.04195906411099509,-1.9643118575669435e-51,-0.5432513268726811,0,70,255.0,255.0,255.0
131,6.550000000000001,-0.03833956536366601,-8.768887735998973e-54,-5.317767704396863,-0.0497913494023928,-1.9350147278609448e-52,-0.3956621027236883,-0.03902299568890014,-1.052671551835618e-52,-0.4668552237501017,0,70,255.0,255.0,255.0
132,6.6000000000000005,-0.04087668821655423,-1.7800943359956725e-53,-5.338102546853101,-0.051669097476285425,-1.5228871298568898e-52,-0.41709496133312884,-0.03608692726680525,1.7537775471997867e-51,-0.39045912062752364,0,70,255.0,255.0,255.0
133,6.65,-0.04350402838760946,-2.244855511591504e-53,-5.359413537110906,-0.05340004212907331,-1.8123718066116375e-53,-0.4347080147864405,-0.03315085884471035,3.6128222495831354e-51,-0.31406301750494564,0,70,255.0,255.0,255.0
134,6.7,-0.04621424570577646,-1.806411124791557e-53,-5.381509684912476,-0.054984183360756445,2.0899351197262327e-52,-0.44850126308362326,-0.030214790422615455,5.471866951966485e-51,-0.23766691438236764,0,70,255.0,255.0,255.0
135,6.75,-0.049,0.0,-5.4042,-0.056421521171334844,5.290629771305301e-52,-0.4584747062246771,-0.02727872200052034,7.330911654349831e-51,-0.16127081125978915,0,70,255.0,255.0,255.0
136,6.800000000000001,-0.05185471173822464,3.2725934556615787e-53,-5.427332056710045,-0.0577576939007929,7.221573277771109e-52,-0.46694221987180856,-0.0261681871778008,3.928623715132884e-52,-0.17742973462546244,0,70,255.0,255.0,255.0
137,6.8500000000000005,-0.05477484394439372,6.643402504201432e-53,-5.450907687756653,-0.059038339889114944,5.683492142818653e-52,-0.47621767968722345,-0.025057652355081284,-6.545186911323131e-51,-0.19358865799113545,0,70,255.0,255.0,255.0
138,6.9,-0.05775762028145051,8.377914824910516e-53,-5.474967290448239,-0.06026345913630101,6.7638636644800115e-53,-0.486301085670922,-0.023947117532361763,-1.348323619415955e-50,-0.20974758135680843,0,70,255.0,255.0,255.0
139,6.95,-0.0608002644123382,6.741618097079737e-53,-5.499551262093217,-0.061433051642351105,-7.799744051340848e-52,-0.49719243782290423,-0.022836582709642245,-2.042128547699597e-50,-0.22590650472248147,0,70,255.0,255.0,255.0
140,7.0,-0.0639,0.0,-5.5247,-0.06254711740726523,-1.9744899110547892e-51,-0.5088917361431701,-0.021726047886922784,-2.7359334759832384e-50,-0.24206542808815446,0,70,255.0,255.0,255.0
141,7.050000000000001,-0.0670551876834357,-1.2213485049046418e-52,-5.55044406876296,-0.06367387499443572,-2.695127838322349e-51,-0.520809017789075,-0.02334425559989597,-1.4661823308695968e-51,-0.234625837748034,0,70,255.0,255.0,255.0
142,7.1000000000000005,-0.07026873600587108,-2.4793515680810056e-52,-5.576774702120291,-0.06488154296725485,-2.1211081441417727e-51,-0.5323543199179737,-0.024962463312869127,2.4426970098092725e-50,-0.22718624740791366,0,70,255.0,255.0,255.0
143,7.15,-0.07354469048658864,-3.1266803788050564e-52,-5.603673301096142,-0.06617012132572263,-2.524308285130857e-52,-0.5435276425298662,-0.026580671025842283,5.032012252705505e-50,-0.2197466570677933,0,70,255.0,255.0,255.0
144,7.2,-0.0768870966448708,-2.516006126352739e-52,-5.63112126671466,-0.06753961006983907,2.9109041085637135e-51,-0.5543289856247529,-0.028198878738815443,7.621327495601738e-50,-0.212307066727673,0,70,255.0,255.0,255.0
145,7.25,-0.0803,0.0,-5.6591,-0.06899000919960416,7.368896667088626e-51,-0.5647583492026336,-0.029817086451788155,1.0210642738497969e-49,-0.20486747638754998,0,70,255.0,255.0,255.0
146,7.300000000000001,-0.08378613752803284,4.558134674052409e-52,-5.687594068238114,-0.07044280612146427,1.0058354025512283e-50,-0.5750057089718823,-0.02829479042261538,5.471866951965104e-51,-0.20502691438239076,0,70,255.0,255.0,255.0
147,7.3500000000000005,-0.08734301203212215,9.25306602190388e-52,-5.716600703762183,-0.07181948824186571,7.916083362285225e-51,-0.5852610406408728,-0.02677249439344263,-9.116269348104777e-50,-0.20518635237723154,0,70,255.0,255.0,255.0
148,7.4,-0.09096681777219508,1.1668930032729172e-51,-5.746120305167197,-0.07312005556080853,9.420846774075356e-52,-0.5955243442096053,-0.025250198364269883,-1.8779725391406065e-49,-0.2053457903720723,0,70,255.0,255.0,255.0
149,7.45,-0.09465374900817866,9.389862695702977e-52,-5.77615327104814,-0.0743445080782927,-1.086364202912077e-50,-0.6057956196780799,-0.023727902335097133,-2.8443181434707357e-49,-0.20550522836691307,0,70,255.0,255.0,255.0
150,7.5,-0.0984,0.0,-5.8067,-0.07549284579431821,-2.7501096757299717e-50,-0.6160748670462964,-0.022205606305924497,-3.810663747800865e-49,-0.20566466636175118,0,70,255.0,255.0,255.0
151,7.550000000000001,-0.10220266220443326,-1.7011190191304997e-51,-5.837759658284585,-0.07661890051970739,-3.753828826372679e-50,-0.626288146323402,-0.02283658270964225,-2.0421285476990818e-50,-0.20286650472246684,0,70,255.0,255.0,255.0
152,7.6000000000000005,-0.10606241586564055,-3.4532912519534514e-51,-5.869326482830975,-0.07777650406528246,-2.954322530499913e-50,-0.6363615175185432,-0.023467559113359987,3.4022380382609846e-49,-0.20006834308318255,0,70,255.0,255.0,255.0
153,7.65,-0.10998083842463123,-4.354903975211163e-51,-5.9013934782350725,-0.07896565643104339,-3.515907881117072e-51,-0.6462949806317203,-0.02409853551707773,7.008688931291876e-49,-0.19727018144389824,0,70,255.0,255.0,255.0
154,7.7,-0.11395950732241461,-3.504344465645918e-51,-5.93395364909278,-0.08018635761699021,4.054366400791938e-50,-0.6560885356629329,-0.02472951192079547,1.061513982432277e-48,-0.19447201980461395,0,70,255.0,255.0,255.0
155,7.75,-0.118,0.0,-5.967,-0.08143860762312292,1.0263549036211024e-49,-0.6657421826121815,-0.025360488324512986,1.4221590717353662e-48,-0.1916738581653279,0,70,255.0,255.0,255.0
156,7.800000000000001,-0.12210321365423446,6.348662609116758e-51,-6.000525698623551,-0.08268159179970615,1.400947990293949e-49,-0.6752657057345067,-0.02435887873881529,7.621327495599824e-50,-0.1892670667276748,0,70,255.0,255.0,255.0
157,7.8500000000000005,-0.1262673245053159,1.2887858405623415e-50,-6.034524564913919,-0.08387449549700447,1.1025681785771133e-49,-0.6846688892849491,-0.02335726915311761,-1.269732521823346e-48,-0.18686027529002175,0,70,255.0,255.0,255.0
158,7.9,-0.13048982852928012,1.6252722897571738e-50,-6.068990581892513,-0.0850173187150179,1.3121546847060763e-50,-0.6939517332635088,-0.02235565956741993,-2.61567831860269e-48,-0.1844534838523687,0,70,255.0,255.0,255.0
159,7.95,-0.13476822170216293,1.3078391593013372e-50,-6.103917732580738,-0.08611006145374646,-1.5131101400255678e-49,-0.703114237670186,-0.021354049981722252,-3.961624115382034e-48,-0.18204669241471566,0,70,255.0,255.0,255.0
160,8.0,-0.1391,0.0,-6.1393,-0.08715272371319012,-3.8304086469114126e-49,-0.7121564025049802,-0.02035244039602435,-5.307569912161378e-48,-0.17963990097705818,0,70,255.0,255.0,255.0
161,8.05,-0.1434828831786292,-2.3693531417336527e-50,-6.1751319472212165,-0.08815873228146817,-5.228409078538528e-49,-0.7211130307385795,-0.019887902335097223,-2.84431814347002e-49,-0.178625228366905,0,70,255.0,255.0,255.0
162,8.1,-0.14791548611309602,-4.809814237053986e-50,-6.211410457513349,-0.08914151394669984,-4.1148404612585036e-49,-0.7300189253416707,-0.019423364274170112,4.7387062834671955e-48,-0.17761055575675186,0,70,255.0,255.0,255.0
163,8.15,-0.15239664745824838,-6.065598761507578e-50,-6.248132994194876,-0.09010106870888518,-4.897027950712579e-50,-0.7388740863142546,-0.01895882621324298,9.761844381281572e-48,-0.17659588314659871,0,70,255.0,255.0,255.0
164,8.200000000000001,-0.15692520586893388,-4.880922190640707e-50,-6.2852970205842675,-0.09103739656802416,5.6470039200232055e-49,-0.7476785136563308,-0.018494288152315852,1.478498247909595e-47,-0.17558121053644554,0,70,255.0,255.0,255.0
165,8.25,-0.1615,0.0,-6.3229,-0.09195049752411674,1.429527968402455e-48,-0.7564322073678991,-0.018029750091388408,1.9808120576910152e-47,-0.1745665379262924,0,70,255.0,255.0,255.0
166,8.3,-0.16612045363124908,8.842546306022936e-50,-6.360938512491586,-0.09287547907442133,1.951268832386016e-48,-0.7650821713111715,-0.01896951192079467,1.061513982432013e-48,-0.1714320198045996,0,70,255.0,255.0,255.0
167,8.35,-0.17078833104229993,1.795047110765361e-49,-6.3994056050326815,-0.09384744871619621,1.535679366645689e-48,-0.773575409348359,-0.0199092737502009,-1.768509261204546e-47,-0.16829750168290689,0,70,255.0,255.0,255.0
168,8.4,-0.1755059816377265,2.2637122756273143e-49,-6.438293441327986,-0.09486640644944141,1.8275957118144372e-49,-0.7819119214794621,-0.020849035579607163,-3.643169920652359e-47,-0.1651629835612141,0,70,255.0,255.0,255.0
169,8.450000000000001,-0.18027575482210206,1.821584960326151e-49,-6.477594185082195,-0.09593235227415695,-2.1074905540067218e-48,-0.7900917077044807,-0.021788797409013426,-5.517830580100173e-47,-0.16202846543952126,0,70,255.0,255.0,255.0
170,8.5,-0.1851,0.0,-6.5173,-0.09704528619034275,-5.3350710089186784e-48,-0.7981147680234143,-0.022728559238419876,-7.392491239547921e-47,-0.15889394731783124,0,70,255.0,255.0,255.0
171,8.55,-0.18998010229637494,-3.3000832082358096e-49,-6.5574036028124425,-0.09814735142084634,-7.282234421690211e-48,-0.806014284016729,-0.021354049981722835,-3.961624115381037e-48,-0.15708669241475498,0,70,255.0,255.0,255.0
172,8.6,-0.194913589717704,-6.6992070193560465e-49,-6.59789992235592,-0.09918069118851502,-5.731233420456903e-48,-0.8138234372648897,-0.019979540725025845,6.600166416471466e-47,-0.1552794375116788,0,70,255.0,255.0,255.0
173,8.65,-0.1998970259908458,-8.448289226358498e-49,-6.638784440493178,-0.10014530549334891,-6.820680052186471e-49,-0.8215422277678969,-0.018605031468328804,1.3596495244481282e-46,-0.15347218260860254,0,70,255.0,255.0,255.0
174,8.700000000000001,-0.20492697484265845,-6.798247622240533e-49,-6.680052639086958,-0.10104119433534793,7.865261824024573e-48,-0.8291706555257502,-0.017230522211631766,2.05928240724911e-46,-0.15166492770552628,0,70,255.0,255.0,255.0
175,8.75,-0.21,0.0,-6.7217,-0.10186835771451208,1.991075606727226e-47,-0.8367087205384495,-0.01585601295493455,2.7589152900500665e-46,-0.14985767280244833,0,70,255.0,255.0,255.0
176,8.8,-0.21511353718325157,1.2316078202340944e-48,-6.763722276258648,-0.10267911524219335,2.717766885437483e-47,-0.8441726926219214,-0.016574288152315753,1.4784982479092094e-47,-0.14870121053642169,0,70,255.0,255.0,255.0
177,8.85,-0.22026851008688375,2.5001780966658816e-48,-6.806116305543638,-0.10352578652974366,2.138925431518193e-47,-0.8515788415920916,-0.017292563349696928,-2.4632156404681313e-46,-0.14754474827039507,0,70,255.0,255.0,255.0
178,8.9,-0.2254667143988904,3.1529444629806675e-48,-6.848879196699302,-0.10440837157716303,2.5455124496931345e-48,-0.8589271674489607,-0.018010838547078127,-5.0742811057272764e-46,-0.1463882860043684,0,70,255.0,255.0,255.0
179,8.950000000000001,-0.2307099458072647,2.5371405528635987e-48,-6.89200805856998,-0.10532687038445149,-2.935355674209155e-47,-0.8662176701925286,-0.01872911374445933,-7.685346570986423e-46,-0.14523182373834176,0,70,255.0,255.0,255.0
180,9.0,-0.236,0.0,-6.9355,-0.10628128295160896,-7.430795326017035e-47,-0.8734503498227949,-0.019447388941840282,-1.0296412036245474e-45,-0.14407536147231337,0,70,255.0,255.0,255.0
181,9.05,-0.24133774897061913,-4.596422960112796e-48,-6.979351292152968,-0.10721618761038032,-1.014284409958091e-46,-0.8805749454955905,-0.01794879740901332,-5.517830580098744e-47,-0.14090846543950356,0,70,255.0,255.0,255.0
182,9.1,-0.24672036993476062,-9.330791684727923e-48,-7.0235548554695315,-0.10807616269251029,-7.982578384027079e-47,-0.8875411963667452,-0.016450205876186407,9.19284592022538e-46,-0.13774156940669385,0,70,255.0,255.0,255.0
183,9.15,-0.25214411641359274,-1.176694892928682e-47,-7.068102772709614,-0.10886120819799895,-9.499981793553888e-48,-0.8943491024362598,-0.014951614343359444,1.893747489846098e-45,-0.134574673373884,0,70,255.0,255.0,255.0
184,9.200000000000001,-0.2576052419282833,-9.46873744923034e-48,-7.112987126633131,-0.10957132412684627,1.0954896514434162e-46,-0.9009986637041337,-0.01345302281053248,2.868210387669658e-45,-0.1314077773410742,0,70,255.0,255.0,255.0
185,9.25,-0.2631,0.0,-7.1582,-0.11020651047905218,2.7732105697340916e-46,-0.907489880170367,-0.011954431277705235,3.8426732854931823e-45,-0.1282408813082636,0,70,255.0,255.0,255.0
186,9.3,-0.2686258669342723,1.715408402021709e-47,-7.203734155129487,-0.11084013431628562,3.785360951288616e-46,-0.9138635253957125,-0.013390522211632125,2.0592824072485746e-46,-0.1267049277055502,0,70,255.0,255.0,255.0
187,9.35,-0.27418521017407343,3.482298864224581e-47,-7.249585072578236,-0.11154556270021539,2.979138810459013e-46,-0.920160372940922,-0.014826613145558965,-3.430816804043338e-45,-0.12516897410283684,0,70,255.0,255.0,255.0
188,9.4,-0.2797816199467387,4.391485125416662e-47,-7.295748912462242,-0.11232279563084152,3.545441472452245e-47,-0.9263804228059961,-0.016262704079485855,-7.067561848811663e-45,-0.12363302050012343,0,70,255.0,255.0,255.0
189,9.450000000000001,-0.2854186864796027,3.5337809244057775e-47,-7.342221834897501,-0.11317183310816399,-4.088423038352749e-46,-0.9325236749909345,-0.017698795013412746,-1.0704306893579987e-44,-0.12209706689741001,0,70,255.0,255.0,255.0
190,9.5,-0.2911,0.0,-7.389,-0.11409267513218277,-1.0349762746334662e-45,-0.9385901294957372,-0.019134885947339475,-1.4341051938348184e-44,-0.12056111329469577,0,70,255.0,255.0,255.0
191,9.55,-0.29682758329229225,-6.401991312075556e-47,-7.4360792873290915,-0.11499127512447771,-1.4127159395196373e-45,-0.944562952921563,-0.01680911374445789,-7.685346570984444e-46,-0.11835182373833476,0,70,255.0,255.0,255.0
192,9.600000000000001,-0.30259718936894553,-1.2996116288425728e-46,-7.483454454217528,-0.11577358650662858,-1.1118297403433117e-45,-0.9504253118695708,-0.014483341541576312,1.2803982624151295e-44,-0.11614253418197376,0,70,255.0,255.0,255.0
193,9.65,-0.3084030037994527,-1.6389245608737964e-46,-7.531119977441418,-0.11643960927863534,-1.3231767710453621e-46,-0.9561772063397604,-0.012157569338694812,2.6376499905400554e-44,-0.11393324462561283,0,70,255.0,255.0,255.0
194,9.700000000000001,-0.31423921215330664,-1.3188249952700064e-46,-7.5790703337768734,-0.11698934344049805,1.5258202501967583e-45,-0.961818636332132,-0.00983179713581323,3.9949017186650296e-44,-0.11172395506925183,0,70,255.0,255.0,255.0
195,9.75,-0.3201,0.0,-7.6273,-0.11742278899221668,3.8625840415604556e-45,-0.9673496018466854,-0.007506024932931621,5.352153446789956e-44,-0.10951466551288647,0,70,255.0,255.0,255.0
196,9.8,-0.32598139989655944,2.389255684628052e-46,-7.6758038955541545,-0.1178507651858033,5.2723276629496883e-45,-0.9727966629180341,-0.009613022810532675,2.868210387668921e-45,-0.10836777734105779,0,70,255.0,255.0,255.0
197,9.850000000000001,-0.3318868323501452,4.8502166289478285e-46,-7.724578710551661,-0.11838409127326996,4.1494050803273505e-45,-0.9781863795807912,-0.01172002068813373,-4.778511369256172e-44,-0.1072208891692291,0,70,255.0,255.0,255.0
198,9.9,-0.33782156485545106,6.116549730953521e-46,-7.77362157777209,-0.11902276725461666,4.9381629369361945e-46,-0.983518751834957,-0.013827018565734709,-9.843843777279057e-44,-0.10607400099740047,0,70,255.0,255.0,255.0
199,9.950000000000001,-0.3437908649071714,4.9219218886394525e-46,-7.822929629995014,-0.11976679312984344,-5.694438696951759e-45,-0.9887937796805313,-0.015934016443335766,-1.490917618530212e-43,-0.10492711282557178,0,70,255.0,255.0,255.0
200,10.0,-0.3498,0.0,-7.8725,-0.12061616889895022,-1.4415359891608355e-44,-0.9940114631175142,-0.01804101432093619,-1.9974508593324996e-43,-0.1037802246537387,0,70,255.0,255.0,255.0
201,10.05,-0.35585241712147064,-8.91682360730465e-46,-7.922329130454294,-0.12146166413230898,-1.9676594712279108e-44,-0.9991303954062938,-0.015778795013413716,-1.0704306893577192e-44,-0.10097706689744093,0,70,255.0,255.0,255.0
202,10.100000000000001,-0.3619442812304748,-1.8101254886948738e-45,-7.972410703575834,-0.1221940484002916,-1.5485790580966084e-44,-1.0041091698072586,-0.013516575705891244,1.7833647214609558e-43,-0.09817390914114316,0,70,255.0,255.0,255.0
203,10.15,-0.3680699367787435,-2.282727436294028e-45,-8.022737711470223,-0.1228133217028981,-1.8429474976699466e-45,-1.008947786320408,-0.011254356398368854,3.6737725118576165e-43,-0.09537075138484548,0,70,255.0,255.0,255.0
204,10.200000000000001,-0.3742237282180083,-1.836886255928779e-45,-8.073303146243077,-0.12331948404012849,2.125193453761028e-44,-1.013646244945743,-0.008992137090846382,5.564180302254344e-43,-0.0925675936285477,0,70,255.0,255.0,255.0
205,10.25,-0.3804,0.0,-8.1241,-0.12371253541198272,5.379885552487296e-44,-1.0182045456832627,-0.006729917783323214,7.454588092651003e-43,-0.08976443587224558,0,70,255.0,255.0,255.0
206,10.3,-0.38659453161755863,3.327803874459055e-45,-8.175121982628669,-0.12407857828496112,7.343405118616675e-44,-1.0226657554567995,-0.007911797135812332,3.9949017186639876e-44,-0.08868395506921763,0,70,255.0,255.0,255.0
207,10.350000000000001,-0.3928088427279567,6.755480291884712e-45,-8.226365675145013,-0.12450371512556396,5.7793757243537e-44,-1.0270729411901844,-0.00909367648830145,-6.655607748918206e-43,-0.08760347426618968,0,70,255.0,255.0,255.0
208,10.4,-0.39904588802957536,8.519254772080757e-45,-8.277828376347017,-0.12498794593379127,6.877973696986177e-45,-1.0314261028834182,-0.010275555840790526,-1.371070566970256e-42,-0.08652299346316177,0,70,255.0,255.0,255.0
209,10.450000000000001,-0.4053086222207962,6.855352834851175e-45,-8.329507385032684,-0.125531270709643,-7.931329945348931e-44,-1.0357252405365007,-0.011457435193279644,-2.0765803590487163e-42,-0.08544251266013381,0,70,255.0,255.0,255.0
210,10.5,-0.4116,0.0,-8.3814,-0.12613368945311923,-2.0078006220788346e-43,-1.0399703541494316,-0.012639314545768832,-2.7820901511271522e-42,-0.08436203185709878,0,70,255.0,255.0,255.0
211,10.55,-0.4179222564082956,-1.2419533137105755e-44,-8.433502939031031,-0.12675202272784686,-2.740596100323879e-43,-1.044126582766499,-0.012094016443334913,-1.4909176185298279e-43,-0.08188711282558817,0,70,255.0,255.0,255.0
212,10.600000000000001,-0.42427474785769953,-2.521179567884397e-44,-8.485810595844125,-0.12734309109745273,-2.1568923839318196e-43,-1.0481590654319906,-0.011548718340900994,2.4839066274211866e-42,-0.07941219379407756,0,70,255.0,255.0,255.0
213,10.65,-0.43065611110295543,-3.179429165202901e-44,-8.5383167831417,-0.12790689456193693,-2.566894729027477e-44,-1.0520678021459064,-0.011003420238467095,5.116905016695262e-42,-0.07693727476256702,0,70,255.0,255.0,255.0
214,10.700000000000001,-0.43706498289880774,-2.55845250834759e-44,-8.591015313626189,-0.12844343312129944,2.9600126327634707e-43,-1.0558527929082473,-0.010458122136033176,7.749903405969431e-42,-0.0744623557310564,0,70,255.0,255.0,255.0
215,10.75,-0.4435,0.0,-8.6439,-0.12895270677554024,7.49321393306661e-43,-1.0595140377190122,-0.009912824033598833,1.0382901795243505e-41,-0.07198743669954233,0,70,255.0,255.0,255.0
216,10.8,-0.44995964274925965,4.635032867396396e-44,-8.696964661247213,-0.12942533080365137,1.0228043889433847e-42,-1.0630519134772145,-0.00899213709084584,5.5641803022529025e-43,-0.06952759362854795,0,70,255.0,255.0,255.0
217,10.850000000000001,-0.45644176584124635,9.409170242349116e-44,-8.750203141478497,-0.12985192048462485,8.049631963291906e-43,-1.066466797081867,-0.008071450148092848,-9.270065734792924e-42,-0.06706775055755358,0,70,255.0,255.0,255.0
218,10.9,-0.4629440675586031,1.1865791183603527e-43,-8.803609291086174,-0.13023247581846065,9.57978154641132e-44,-1.06975868853297,-0.0071507632053398875,-1.909654949981079e-41,-0.0646079074865593,0,70,255.0,255.0,255.0
219,10.950000000000001,-0.46946424618397337,9.548274749905247e-44,-8.857176960462569,-0.13056699680515882,-1.1046917536518979e-42,-1.072927587830523,-0.006230076262586894,-2.8923033264829003e-41,-0.06214806441556492,0,70,255.0,255.0,255.0
220,11.0,-0.476,0.0,-8.9109,-0.13085548344471934,-2.7965055110187602e-42,-1.0759734949745265,-0.005309389319834379,-3.874951702984687e-41,-0.05968822134456886,0,70,255.0,255.0,255.0
221,11.05,-0.4825495725946664,-1.7298178155875006e-43,-8.964772815980123,-0.13113065405754726,-3.81715794574115e-42,-1.078929763324643,-0.005697435193281702,-2.0765803590481756e-42,-0.05856251266009023,0,70,255.0,255.0,255.0
222,11.100000000000001,-0.4891133887773161,-3.5115501401512076e-43,-9.018792038241894,-0.13142522696404751,-3.004163546923581e-42,-1.0818297462405355,-0.006085481066729026,3.459635631175052e-41,-0.05743680397561161,0,70,255.0,255.0,255.0
223,11.15,-0.49569241866263236,-4.42837355692112e-43,-9.072954852513606,-0.13173920216422014,-3.575223145661763e-43,-1.084673443722204,-0.0064735269401763355,7.126929298254791e-41,-0.05631109529113302,0,70,255.0,255.0,255.0
224,11.200000000000001,-0.5022876323652993,-3.563464649127339e-43,-9.127258444523546,-0.13207257965806515,4.1227657513312497e-42,-1.087460855769649,-0.00686157281362366,1.079422296533466e-40,-0.055185386606654396,0,70,255.0,255.0,255.0
225,11.25,-0.5089,0.0,-9.1817,-0.1324253594455825,1.043670065076838e-41,-1.0901919823828696,-0.007249618687071413,1.4461516632414398e-40,-0.05405967792216515,0,70,255.0,255.0,255.0
226,11.3,-0.5155300668720751,6.455767975610364e-43,-9.2362760748323,-0.1327720529661601,1.424582739402122e-41,-1.0928290332242014,-0.006618122136032447,7.749903405967401e-42,-0.05142235573110479,0,70,255.0,255.0,255.0
227,11.350000000000001,-0.5221766790494904,1.3105283536369917e-42,-9.290980705553928,-0.13308717165918577,1.1211690991365134e-41,-1.0953342179559802,-0.005986625584993481,-1.2911535951220918e-40,-0.04878503354004443,0,70,255.0,255.0,255.0
228,11.4,-0.5288382577908678,1.6526915109324128e-42,-9.345807298859405,-0.13337071552465946,1.3342914428005878e-42,-1.0977075365782059,-0.005355129033954537,-2.6598062243038084e-40,-0.04614771134898417,0,70,255.0,255.0,255.0
229,11.450000000000001,-0.5355132243548304,1.329903112151883e-42,-9.400749261443258,-0.13362268456258122,-1.5386371251673096e-41,-1.0999489890908787,-0.004723632482915572,-4.028458853485574e-40,-0.04351038915792381,0,70,255.0,255.0,255.0
230,11.5,-0.5422,0.0,-9.4558,-0.13384307877295104,-3.895029709205476e-41,-1.102058575493998,-0.004092135931875962,-5.3971114826672905e-40,-0.04087306696685822,0,70,255.0,255.0,255.0
231,11.55,-0.5488973599170336,-2.4093254086853955e-42,-9.510953284690679,-0.13405313407781258,-5.316615163034373e-41,-1.1040581037785584,-0.004310076262584686,-2.892303326482152e-41,-0.039108064415551855,0,70,255.0,255.0,255.0
232,11.600000000000001,-0.5556054950247237,-4.890958400532847e-42,-9.566204339542399,-0.1342740863992095,-4.184260041853695e-41,-1.1059693819355532,-0.004528016593293411,4.81865081737086e-40,-0.03734306186424549,0,70,255.0,255.0,255.0
233,11.65,-0.5623249501738968,-6.167928688037538e-42,-9.621548752048774,-0.1345059357371419,-4.979643456636194e-42,-1.1077924099649827,-0.004745956924002127,9.926531967389753e-40,-0.03557805931293919,0,70,255.0,255.0,255.0
234,11.700000000000001,-0.5690562702153801,-4.963265983694799e-42,-9.676982109703436,-0.13474868209160973,5.742271925536113e-41,-1.1095271878668471,-0.0049638972547108515,1.5034413117408827e-39,-0.03381305676163283,0,70,255.0,255.0,255.0
235,11.75,-0.5758,0.0,-9.7325,-0.13500232546261295,1.4536448771745066e-40,-1.1111737156411459,-0.0051818375854189025,2.014229426742773e-39,-0.032048054210317645,0,70,255.0,255.0,255.0
236,11.8,-0.5825564934597909,8.991724837180545e-42,-9.788097986404987,-0.1352554107225891,1.984187791273537e-40,-1.1127305516615698,-0.004941572813626168,1.0794222965331894e-40,-0.030225386606638666,0,70,255.0,255.0,255.0
237,11.850000000000001,-0.589325340851616,1.8253305248494398e-41,-9.84377153627649,-0.13549648274397558,1.5615871068278266e-40,-1.1141962543018098,-0.004701308041833434,-1.798344967436135e-39,-0.02840271900295969,0,70,255.0,255.0,255.0
238,11.9,-0.5961059415135453,2.3019023241217755e-41,-9.899516092945499,-0.1357255415267724,1.8584282383744214e-41,-1.1155708235618658,-0.004461043270040708,-3.704632164525521e-39,-0.02658005139928078,0,70,255.0,255.0,255.0
239,11.950000000000001,-0.6028976947836499,1.8523160822627318e-41,-9.955327099743007,-0.13594258707097964,-2.1430450576977144e-40,-1.1168542594417377,-0.004220778498247974,-5.610919361614975e-39,-0.0247573837956018,0,70,255.0,255.0,255.0
240,12.0,-0.6097,0.0,-10.0112,-0.13614761937659722,-5.425076537777479e-40,-1.1180465619414257,-0.00398051372645658,-7.517206558704362e-39,-0.02293471619191756,0,70,255.0,255.0,255.0
241,12.05,-0.6165118662438032,-3.355757394003679e-41,-10.067129969689383,-0.13631722303183155,-7.40508964879071e-40,-1.1191316895751713,-0.0028036324829163128,-4.0284588534845474e-40,-0.020470389157906832,0,70,255.0,255.0,255.0
242,12.100000000000001,-0.6233307415688137,-6.812226259344473e-41,-10.123111115351657,-0.13642798262488887,-5.82792242312594e-40,-1.1200936008572164,-0.001626751239376045,6.711514788007452e-39,-0.0180060621238961,0,70,255.0,255.0,255.0
243,12.15,-0.6301536837719224,-8.590816427683345e-41,-10.179137276169243,-0.13647989815576916,-6.935748607834097e-41,-1.120932295787561,-0.0004498699958358195,1.3825875461363107e-38,-0.015541735089885461,0,70,255.0,255.0,255.0
244,12.200000000000001,-0.636977750650021,-6.912937730681447e-41,-10.23520229132455,-0.13647296962447245,7.997953038237244e-40,-1.121647774366205,0.0007270112477044486,2.0940236134719016e-38,-0.013077408055874732,0,70,255.0,255.0,255.0
245,12.25,-0.6438,0.0,-10.2913,-0.13640719703099874,2.024666127393541e-39,-1.1222400365931484,0.0019038924912444521,2.805459680807467e-38,-0.010613081021860538,0,70,255.0,255.0,255.0
246,12.3,-0.6506184415649969,1.2523857092296658e-40,-10.347424534837495,-0.1363396971500853,2.7636170803889304e-39,-1.1227266900377362,0.0007961027452934764,1.5034413117404955e-39,-0.00885305676165193,0,70,255.0,255.0,255.0
247,12.350000000000001,-0.6574348928731304,2.5423574512528457e-40,-10.403571202316892,-0.1363275867564694,2.175010258567593e-39,-1.1231253422693135,-0.0003116870006574994,-2.504771418459368e-38,-0.007093032501443325,0,70,255.0,255.0,255.0
248,12.4,-0.6642521233987653,3.2061363386611596e-40,-10.459735602377542,-0.13637086585015104,2.5884566192961738e-40,-1.1234359932878806,-0.001419476746608436,-5.159886968092692e-38,-0.005333008241234781,0,70,255.0,255.0,255.0
249,12.450000000000001,-0.6710729026162671,2.5799434840463064e-40,-10.515913334958796,-0.13646953443113025,-2.984876709525128e-39,-1.1236586430934372,-0.002527266492559412,-7.815002517726109e-38,-0.0035729839810261744,0,70,255.0,255.0,255.0
250,12.5,-0.6779,0.0,-10.5721,-0.13662359249940695,-7.556156855796416e-39,-1.1237932916859834,-0.00363505623851057,-1.047011806735943e-37,-0.0018129597208265125,0,70,255.0,255.0,255.0
251,12.55,-0.6847351674962101,-4.673967097518296e-40,-10.62829109096065,-0.136771988367826,-1.031395935667665e-38,-1.1238335502738939,-0.0023007784982510136,-5.610919361613531e-39,0.00020261620440823,0,70,255.0,255.0,255.0
252,12.600000000000001,-0.6915760869386658,-9.488207179076935e-40,-10.684481675380788,-0.13685367034923207,-8.117248791957775e-39,-1.1237730300655426,-0.0009665007579914573,9.347934195036724e-38,0.0022181921296429725,0,70,255.0,255.0,255.0
253,12.65,-0.6984194226330165,-1.1965463711876307e-39,-10.740666714320598,-0.13686863844362512,-9.660251616401347e-40,-1.1236117310609297,0.00036777698226805183,1.9256960326234453e-37,0.004233768054877644,0,70,255.0,255.0,255.0
254,12.700000000000001,-0.7052618388849113,-9.628480163117073e-40,-10.796841168840276,-0.13681689265100525,1.1139711534276778e-38,-1.1233496532600546,0.0017020547225276078,2.916598645743253e-37,0.006249343980112386,0,70,255.0,255.0,255.0
255,12.75,-0.7121,0.0,-10.853,-0.13669843297137235,2.819996129579212e-38,-1.1229867966629186,0.003036332462788227,3.907501258863026e-37,0.00826491990534528,0,70,255.0,255.0,255.0
256,12.8,-0.7189312884501631,1.744348268084352e-39,-10.909138301319913,-0.1365563493786101,3.849222034631767e-38,-1.1225311088666814,0.002647011247702208,2.0940236134713608e-38,0.009962591944143308,0,70,255.0,255.0,255.0
257,12.850000000000001,-0.725755959372207,3.541047126505489e-39,-10.96525169615997,-0.13643373184660212,3.0293984909263504e-38,-1.1219905374685042,0.0022576900326161885,-3.4886965361687536e-37,0.011660263982941337,0,70,255.0,255.0,255.0
258,12.9,-0.7325749860691692,4.4655718508844065e-39,-11.021335940340066,-0.13633058037534848,3.605254984630923e-39,-1.1213650824683872,0.0018683688175301833,-7.186795433684512e-37,0.013357936021739304,0,70,255.0,255.0,255.0
259,12.950000000000001,-0.7393893418440879,3.593397716842199e-39,-11.077386789680109,-0.1362468949648491,-4.157396942758199e-38,-1.1206547438663303,0.001479047602444164,-1.0884894331200401e-36,0.015055608060537332,0,70,255.0,255.0,255.0
260,13.0,-0.7462,0.0,-11.1334,-0.13618267561510403,-1.0524368832737207e-37,-1.1198595216623335,0.0010897263873588248,-1.4582993228716162e-36,0.016753280099331747,0,70,255.0,255.0,255.0
261,13.05,-0.7530076787031378,-6.509996362585578e-39,-11.189370903759695,-0.136122614117734,-1.4365492202859404e-37,-1.1189540142593766,0.0013127335074422796,-7.8150025177241e-38,0.01946701601894855,0,70,255.0,255.0,255.0
262,13.100000000000001,-0.759812075572507,-1.3215367788114262e-38,-11.245293139979339,-0.1360514022643598,-1.1305869084509627e-37,-1.1179128200604385,0.0015357406275257343,1.3019992725171342e-36,0.022180751938565356,0,70,255.0,255.0,255.0
263,13.15,-0.7666126330903069,-1.6665741032349996e-38,-11.301159924319139,-0.13596904005498142,-1.3454994776883533e-38,-1.1167359390655198,0.0017587477476091811,2.6821485702114607e-36,0.024894487858182067,0,70,255.0,255.0,255.0
264,13.200000000000001,-0.7734087937387382,-1.341074285105709e-38,-11.35696447243929,-0.13587552748959889,1.5515616617605124e-37,-1.1154233712746204,0.0019817548676926357,4.062297867905836e-36,0.027608223777798868,0,70,255.0,255.0,255.0
265,13.25,-0.7802,0.0,-11.4127,-0.1357708645682122,3.9277479201369615e-37,-1.11397511668774,0.0022047619877758606,5.4424471656001606e-36,0.030321959697419132,0,70,255.0,255.0,255.0
266,13.3,-0.7869851967372866,2.429563718225796e-38,-11.468360483641314,-0.13562519415045454,5.361274677680584e-37,-1.1124368340958024,0.0036220547225300085,2.916598645742492e-37,0.031209343980088646,0,70,255.0,255.0,255.0
267,13.350000000000001,-0.7937613383377667,4.932042402595156e-38,-11.523942943922677,-0.13540865909595917,4.219407784711215e-37,-1.1108541822897313,0.005039347457284156,-4.859127436451662e-36,0.03209672826275816,0,70,255.0,255.0,255.0
268,13.4,-0.8005248815696034,6.219739227851557e-38,-11.579445162383385,-0.1351212594047261,5.021472412290307e-38,-1.1092271612695266,0.006456640192038253,-1.000991473747739e-35,0.032984112545427643,0,70,255.0,255.0,255.0
269,13.450000000000001,-0.8072722832009603,5.004957368738616e-38,-11.634864920562729,-0.13476299507675535,-5.7905069527662305e-37,-1.1075557710351884,0.0078739329267924,-1.51607020385033e-35,0.033871496828097154,0,70,255.0,255.0,255.0
270,13.5,-0.814,0.0,-11.6902,-0.1343338661120469,-1.4658554797274124e-36,-1.1058400115867169,0.009291225661546498,-2.0311489339529023e-35,0.03475888111077019,0,70,255.0,255.0,255.0
271,13.55,-0.8207059343477168,-9.067255236644623e-38,-11.745447161675054,-0.13392060928044716,-2.0008549490436395e-36,-1.1040186493574338,0.0072390476024418214,-1.0884894331197563e-36,0.03809560806055115,0,70,255.0,255.0,255.0
272,13.600000000000001,-0.8273937710764274,-1.8406632831569196e-37,-11.800599084329955,-0.1336099613518027,-1.57470442303939e-36,-1.1020304507806618,0.005186869543337145,1.813451047328951e-35,0.041432335010332104,0,70,255.0,255.0,255.0
273,13.65,-0.8340686406312795,-2.321238280817122e-37,-11.855647426147327,-0.13340192232611348,-1.8740390171472856e-37,-1.0998754158564006,0.0031346914842325397,3.7357510379698096e-35,0.044769061960112946,0,70,255.0,255.0,255.0
274,13.700000000000001,-0.8407356734574213,-1.8678755189848753e-37,-11.910583845309802,-0.13329649220337944,2.1610466149304392e-36,-1.0975535445846505,0.0010825134251278637,5.658051028610736e-35,0.04810578890989391,0,70,255.0,255.0,255.0
275,13.75,-0.8474,0.0,-11.9654,-0.13329367098360065,5.470647126895953e-36,-1.0950648369654112,-0.000969664633976075,7.580351019251595e-35,0.05144251585967119,0,70,255.0,255.0,255.0
276,13.8,-0.854064665871847,3.3839457228352698e-37,-12.02008846965848,-0.13326836872775774,7.4672923284065e-36,-1.0924645684744734,0.001981754867692584,4.06229786790478e-36,0.05256822377784227,0,70,255.0,255.0,255.0
277,13.850000000000001,-0.8607243773565246,6.869448892368162e-37,-12.074645518757517,-0.1330954954968314,5.876876913686435e-36,-1.089808014587627,0.004933174369361243,-6.767891445670639e-35,0.05369393169601334,0,70,255.0,255.0,255.0
278,13.9,-0.8673717559052787,8.662979200483334e-37,-12.12906833302731,-0.13277505129082162,6.99400882736014e-37,-1.087095175304872,0.007884593871029797,-1.3942012678131498e-34,0.05481963961418437,0,70,255.0,255.0,255.0
279,13.950000000000001,-0.8739994229693553,6.971006339065636e-37,-12.183354098198073,-0.13230703610972838,-8.065135764445139e-36,-1.0843260506262087,0.010836013372698457,-2.1116133910592618e-34,0.05594534753235545,0,70,255.0,255.0,255.0
280,14.0,-0.8806,0.0,-12.2375,-0.1316914499535518,-2.04167330278564e-35,-1.0815006405516365,0.01378743287436679,-2.8290255143053483e-34,0.05707105545052649,0,70,255.0,255.0,255.0
281,14.05,-0.8871682021648962,-1.2629057367676617e-36,-12.291502959691032,-0.13105391580852271,-2.786831436458236e-35,-1.0786030767446715,0.011713932926796093,-1.516070203849943e-35,0.05883149682807523,0,70,255.0,255.0,255.0
282,14.100000000000001,-0.8937071194974755,-2.563713228631573e-36,-12.345358840639987,-0.13052005666087219,-2.1932803231706357e-35,-1.0756174908688287,0.009640432979225396,2.5258114735353597e-34,0.06059193820562397,0,70,255.0,255.0,255.0
283,14.15,-0.9002219357476064,-3.233067852111622e-36,-12.399063241743432,-0.1300898725106002,-2.6101996292293234e-36,-1.072543882924109,0.007566933031654773,5.20322996745562e-34,0.06235237958317265,0,70,255.0,255.0,255.0
284,14.200000000000001,-0.9067178346651584,-2.6016149837277686e-36,-12.452611761897916,-0.12976336335770672,3.009949644285011e-35,-1.0693822529105117,0.005493433084084077,7.880648461375973e-34,0.06411282096072139,0,70,255.0,255.0,255.0
285,14.25,-0.9132,0.0,-12.506,-0.1295405292021918,7.619628498452965e-35,-1.0661326008280367,0.003419933136512787,1.055806695529623e-33,0.06587326233827895,0,70,255.0,255.0,255.0
286,14.3,-0.9196721254685688,4.7132283747871195e-36,-12.55922289157741,-0.12933196803815086,1.0400596512992293e-34,-1.0627551245468327,0.0049225134251256845,5.658051028609272e-35,0.06922578890987983,0,70,255.0,255.0,255.0
287,14.350000000000001,-0.9261319446535747,9.567908025289476e-36,-12.612272718682542,-0.12904827785967923,8.185433601313897e-35,-1.0592100219370486,0.006425093713738582,-9.426456749574375e-34,0.0725783154814807,0,70,255.0,255.0,255.0
288,14.4,-0.9325757011042961,1.2065973488398154e-35,-12.66514109999897,-0.128689458666777,9.741397634181272e-36,-1.0554972929986846,0.007927674002351425,-1.9418718602009325e-33,0.07593084205308147,0,70,255.0,255.0,255.0
289,14.450000000000001,-0.9389996383700119,9.709359301004506e-36,-12.717819654210267,-0.12825551045944408,-1.1233285000695528e-34,-1.0516169377317404,0.009430254290964323,-2.9410980454444623e-33,0.07928336862468235,0,70,255.0,255.0,255.0
290,14.5,-0.9454,0.0,-12.7703,-0.12774643323768053,-2.843684069102622e-34,-1.0475689561362165,0.010932834579578277,-3.9403242306879566e-33,0.08263589519628667,0,70,255.0,255.0,255.0
291,14.55,-0.9517736959608292,-1.759000776238082e-35,-12.822575073999342,-0.1272022120388736,-3.881555461551094e-34,-1.0434324250680003,0.010836013372698615,-2.1116133910587135e-34,0.08282534753236064,0,70,255.0,255.0,255.0
292,14.600000000000001,-0.9581203018882266,-3.570791887252633e-35,-12.874643084629856,-0.12666283190041067,-3.054845408208496e-34,-1.0392864213829802,0.010739192165818954,3.518001552476214e-33,0.08301479986843462,0,70,255.0,255.0,255.0
293,14.65,-0.9644400598352093,-4.5030826101480983e-35,-12.926503558260697,-0.1261282928222917,-3.635539090749571e-35,-1.0351309450811568,0.010642370958939294,7.247164444058168e-33,0.08320425220450858,0,70,255.0,255.0,255.0
294,14.700000000000001,-0.9707332118547948,-3.6235822220290274e-35,-12.978156021261023,-0.1255985948045167,4.192319035849711e-34,-1.0309659961625295,0.010545549752059633,1.0976327335640252e-32,0.08339370454058255,0,70,255.0,255.0,255.0
295,14.75,-0.977,0.0,-13.0296,-0.12507373784708573,1.061277342656519e-33,-1.0267915746270986,0.010448728545180197,1.4705490227222208e-32,0.08358315687665296,0,70,255.0,255.0,255.0
296,14.8,-0.983240290688115,6.564680267473616e-35,-13.080833612425225,-0.12453118380635414,1.4486162194905146e-33,-1.0225231751811639,0.011253433084082831,7.880648461373944e-34,0.0871528209607384,0,70,255.0,255.0,255.0
297,14.850000000000001,-0.9894524477935198,1.3326376746481586e-34,-13.131849342798047,-0.12394839453867744,1.1400838272702595e-33,-1.0180762925310245,0.012058137622985465,-1.312936053494742e-32,0.09072248504482384,0,70,255.0,255.0,255.0
298,14.9,-0.9956344595548668,1.680573309175258e-34,-13.182638266958257,-0.1233253700440556,1.3568016599580178e-34,-1.0134509266766814,0.012862842161888072,-2.7046785916031734e-32,0.09429214912890915,0,70,255.0,255.0,255.0
299,14.950000000000001,-1.0017843142108096,1.3523392958015659e-34,-13.233191460745648,-0.12266211032248861,-1.5645947643329284e-33,-1.0086470776181338,0.013667546700790706,-4.096421129711655e-32,0.0978618132129946,0,70,255.0,255.0,255.0
300,15.0,-1.0079,0.0,-13.2835,-0.12195861537397655,-3.9607409637158137e-33,-1.0036647453553822,0.014472251239693645,-5.488163667820087e-32,0.10143147729707458,0,70,255.0,255.0,255.0
301,15.05,-1.0139803412867114,-2.449972029365638e-34,-13.333556076299763,-0.12126505273571009,-5.4063093318069485e-33,-0.9985708742073387,0.013270254290964583,-2.9410980454437124e-33,0.10232336862466378,0,70,255.0,255.0,255.0
302,15.100000000000001,-1.0200275069376952,-4.973471509867371e-34,-13.383356344177962,-0.12063158994488007,-4.254850768260188e-33,-0.9934324084929157,0.012068257342235522,4.8999440587313443e-32,0.10321525995225296,0,70,255.0,255.0,255.0
303,15.15,-1.0260445019453233,-6.2719849756862225e-34,-13.43289857390628,-0.12005822700148654,-5.063652730757128e-34,-0.9882493482121133,0.010866260393506503,1.0093997922006877e-31,0.10410715127984212,0,70,255.0,255.0,255.0
304,15.200000000000001,-1.0320343313019678,-5.046998961003357e-34,-13.4821805357564,-0.11954496390552943,5.839147153746744e-33,-0.9830216933649314,0.00966426344477744,1.5288051785282591e-31,0.10499904260743131,0,70,255.0,255.0,255.0
305,15.25,-1.038,0.0,-13.5312,-0.11909180065700879,1.4781686512206736e-32,-0.9777494439513704,0.008462266496048865,2.048210564855812e-31,0.1058909339350178,0,70,255.0,255.0,255.0
306,15.3,-1.0439431441650406,9.143420090715188e-34,-13.579954082375732,-0.11861660525080596,2.0176621107737275e-32,-0.9723933279894801,0.010545549752064261,1.0976327335637406e-32,0.10835370454059173,0,70,255.0,255.0,255.0
307,15.350000000000001,-1.0498599244557005,1.856124836482132e-33,-13.628437280490113,-0.11803724568180235,1.5879319245770494e-32,-0.9669140734973112,0.012628833008079658,-1.828684018143064e-31,0.11081647514616566,0,70,255.0,255.0,255.0
308,15.4,-1.0557451326638407,2.340736659356963e-33,-13.676643437416624,-0.117353721949998,1.8897809263070446e-33,-0.9613116804748636,0.01471211626409498,-3.7671313096424332e-31,0.1132792457517395,0,70,255.0,255.0,255.0
309,15.450000000000001,-1.0615935605813207,1.883565654821187e-33,-13.72456639622876,-0.11656603405539286,-2.1791993850654057e-32,-0.9555861489221372,0.016795399520110377,-5.705578601141871e-31,0.11574201635731343,0,70,255.0,255.0,255.0
310,15.5,-1.0674,0.0,-13.7722,-0.11567418199798699,-5.516600508511113e-32,-0.9497374788391323,0.018878682776125588,-7.644025892641241e-31,0.11820478696289083,0,70,255.0,255.0,255.0
311,15.55,-1.073160682053127,-3.412370833349512e-33,-13.819537994197317,-0.11476452626106423,-7.530017509914217e-32,-0.9437598138347356,0.017507546700783853,-4.096421129710603e-32,0.12090181321297372,0,70,255.0,255.0,255.0
312,15.600000000000001,-1.0788775952395027,-6.927152194941791e-33,-13.866573733861598,-0.11392342732790857,-5.926242621482179e-32,-0.9376472975178348,0.016136410625442115,6.82474166669912e-31,0.12359883946305662,0,70,255.0,255.0,255.0
313,15.65,-1.084554167399314,-8.735748139859229e-33,-13.913300476427224,-0.11315088519852004,-7.052758432152476e-33,-0.9313999298884299,0.014765274550100429,1.4059125446369047e-30,0.12629586571313942,0,70,255.0,255.0,255.0
314,15.700000000000001,-1.0901938263727509,-7.02956272318441e-33,-13.959711479328567,-0.11244689987289855,8.132882824886943e-32,-0.9250177109465209,0.013394138474758692,2.1293509226039226e-30,0.1289928919632223,0,70,255.0,255.0,255.0
315,15.75,-1.0958,0.0,-14.0058,-0.11181147135104416,2.058823338282378e-31,-0.9185006406921078,0.012023002399417448,2.852789300570915e-30,0.13168991821330867,0,70,255.0,255.0,255.0
316,15.8,-1.101374927622451,1.2735141324326528e-32,-14.05156034083501,-0.11117328970493918,2.8102407928883142e-31,-0.9119114166715881,0.013504263444781704,1.5288051785278626e-31,0.13187904260747008,0,70,255.0,255.0,255.0
317,15.850000000000001,-1.10691609458629,2.5852483943285027e-32,-14.096990984063499,-0.11046104500656596,2.2117038561351665e-31,-0.9053127364313607,0.01498552449014596,-2.5470282648653425e-30,0.1320681670016315,0,70,255.0,255.0,255.0
318,15.9,-1.1124197977389032,3.2602255900079955e-32,-14.142091456874482,-0.10967473725592458,2.632125280230292e-32,-0.8987045999714252,0.016466785535510165,-5.246937047583374e-30,0.1322572913957929,0,70,255.0,255.0,255.0
319,15.950000000000001,-1.1178823339276776,2.623468523791646e-32,-14.18686128645698,-0.10881436645301495,-3.0352331914482365e-31,-0.8920870072917814,0.01794804658087442,-7.946845830301503e-30,0.1324464157899543,0,70,255.0,255.0,255.0
320,16.0,-1.1233,0.0,-14.2313,-0.10787993259783714,-7.683633302278399e-31,-0.8854599583924297,0.019429307626238956,-1.0646754613019536e-29,0.13263554018412105,0,70,255.0,255.0,255.0
321,16.05,-1.12867000745707,-4.752819446395659e-32,-14.275405442462652,-0.1069263149191783,-1.0487961420561833e-30,-0.8787225194788941,0.01871539952011424,-5.705578601140404e-31,0.13686201635730116,0,70,255.0,255.0,255.0
322,16.1,-1.1339932264153396,-9.648278357819832e-32,-14.319168729884412,-0.10600839264582569,-8.254191162392447e-31,-0.8717737567566994,0.018001491413989525,9.505638892791455e-30,0.14108849253048128,0,70,255.0,255.0,255.0
323,16.150000000000002,-1.1392714416450744,-1.2167327546046074e-31,-14.362579296074847,-0.1051261657777793,-9.823225277702391e-32,-0.8646136702258458,0.01728758330786481,1.958183564569695e-29,0.1453149687036614,0,70,255.0,255.0,255.0
324,16.2,-1.144506437916539,-9.790917822848342e-32,-14.405626574843518,-0.10427963431503924,1.1327644483303727e-30,-0.8572422598863336,0.016573675201740145,2.965803239860173e-29,0.14954144487684123,0,70,255.0,255.0,255.0
325,16.25,-1.1497,0.0,-14.4483,-0.10346879825760533,2.8675709870831218e-30,-0.849659525738162,0.015859767095615984,3.9734229151507224e-29,0.15376792105002313,0,70,255.0,255.0,255.0
326,16.3,-1.1548530425492693,1.7737763653149984e-31,-14.490590689314383,-0.10264145061834616,3.9141604889359006e-30,-0.8419665054128321,0.017234138474750058,2.129350922603371e-30,0.15395289196316514,0,70,255.0,255.0,255.0
327,16.35,-1.1599629997523522,3.6007865036950826e-31,-14.532496496398856,-0.1017453844101303,3.0805060793434615e-30,-0.8342642365418452,0.018608509853884132,-3.547552730630048e-29,0.15413786287630718,0,70,255.0,255.0,255.0
328,16.400000000000002,-1.1650264356808,4.54090845941763e-31,-14.57401695882614,-0.10078059963295773,3.6660775830580193e-31,-0.8265527191252012,0.019982881233018203,-7.308040553520435e-29,0.1543228337894492,0,70,255.0,255.0,255.0
329,16.45,-1.170039914406165,3.654020276760166e-31,-14.615151614168948,-0.09974709628682853,-4.227534474176684e-30,-0.8188319531629006,0.02135725261215218,-1.1068528376410553e-28,0.15450780470259123,0,70,255.0,255.0,255.0
330,16.5,-1.175,0.0,-14.6559,-0.09864487437174253,-1.0701920618104647e-29,-0.8111019386549423,0.022731623991286587,-1.4829016199300937e-28,0.1546927756157377,0,70,255.0,255.0,255.0
331,16.55,-1.1799042223458525,-6.6198235166204285e-31,-14.696260600279823,-0.09753188260743839,-1.460784581368742e-29,-0.8032994588697979,0.02178804658087837,-7.946845830299425e-30,0.15740641579003561,0,70,255.0,255.0,255.0
332,16.6,-1.1847539745752529,-1.3438318178998349e-30,-14.73622768452017,-0.09646606971365466,-1.14966052011346e-29,-0.7953612970759385,0.020844469170470156,1.3239647033241052e-28,0.16012005596433354,0,70,255.0,255.0,255.0
333,16.650000000000002,-1.1895516156317265,-1.694690108306592e-30,-14.775794468620607,-0.09544743569039135,-1.3681987804461866e-30,-0.7872874532733642,0.019900891760061937,2.727397864951204e-28,0.1628336961386315,0,70,255.0,255.0,255.0
334,16.7,-1.1942995044588,-1.3636989324755834e-30,-14.814954168480693,-0.09447598053764851,1.577737344837637e-29,-0.7790779274620757,0.018957314349653788,4.1308310265782045e-28,0.16554733631292923,0,70,255.0,255.0,255.0
335,16.75,-1.199,0.0,-14.8537,-0.09355170425542603,3.994011148533547e-29,-0.7707327196420716,0.018013736939245018,5.534264188205303e-28,0.1682609764872316,0,70,255.0,255.0,255.0
336,16.8,-1.2036548680673214,2.4705517701166716e-30,-14.892025309566334,-0.09263901895190128,5.45172227658138e-29,-0.76225965910797,0.01849367520174426,2.965803239859441e-29,0.17066144487682727,0,70,255.0,255.0,255.0
337,16.85,-1.2082635019466381,5.015248621229832e-30,-14.929923965520473,-0.09170233673525158,4.2905914725194944e-29,-0.7536665751543885,0.0189736134642435,-4.941103540233414e-28,0.17306191326642295,0,70,255.0,255.0,255.0
338,16.900000000000002,-1.2128247017922946,6.324669587284602e-30,-14.96738996669145,-0.09074165760547691,5.106187363478953e-30,-0.7449534677813274,0.019453551726742745,-1.0178787404452773e-27,0.17546238165601863,0,70,255.0,255.0,255.0
339,16.95,-1.2173372677586336,5.089393702226313e-30,-15.00441731190828,-0.08975698156257735,-5.888195931932875e-29,-0.7361203369887871,0.01993348998924195,-1.541647126867176e-27,0.17786285004561414,0,70,255.0,255.0,255.0
340,17.0,-1.2218,0.0,-15.041,-0.08874830860655276,-1.4905852532323723e-28,-0.7271671827767664,0.02041342825174086,-2.0654155132891115e-27,0.1802633184352116,0,70,255.0,255.0,255.0
341,17.05,-1.2262115053848628,-9.220224728804642e-30,-15.077132561454851,-0.08770404158495552,-2.0346104524956776e-28,-0.7181259046983218,0.021357252612148193,-1.1068528376407827e-28,0.18138780470256483,0,70,255.0,255.0,255.0
342,17.1,-1.2305696176381955,-1.871716266701949e-29,-15.112811653397944,-0.08661258334533792,-1.6012705369964518e-28,-0.7090284023065097,0.02230107697255553,1.844044945760955e-27,0.18251229096991806,0,70,255.0,255.0,255.0
343,17.150000000000002,-1.2348719771990964,-2.360398824083182e-29,-15.148034464613612,-0.08547393388769994,-1.9056550673469659e-29,-0.6998746756013298,0.02324490133296286,3.7987751752859886e-27,0.18363677723727131,0,70,255.0,255.0,255.0
344,17.2,-1.2391162245066647,-1.8993875876429677e-29,-15.182798183886186,-0.08428809321204168,2.197504638289387e-28,-0.6906647245827829,0.024188725693370126,5.753505404810884e-27,0.18476126350462446,0,70,255.0,255.0,255.0
345,17.25,-1.2433,0.0,-15.2171,-0.08305506131836297,5.562939898076134e-28,-0.6813985492508677,0.025132550053777458,7.708235634335917e-27,0.18588574977198125,0,70,255.0,255.0,255.0
346,17.3,-1.2474215103932278,3.44103471451019e-29,-15.25093644461427,-0.08180881470827721,7.593269582324572e-28,-0.6720367220987444,0.024717314349652915,4.130831026577188e-28,0.1885873363129472,0,70,255.0,255.0,255.0
347,17.35,-1.2514812275005816,6.985340204684812e-29,-15.284301420887758,-0.08058332988339764,5.976023000733859e-28,-0.6625398156195728,0.024302078645528368,-6.88206942902048e-27,0.19128892285391313,0,70,255.0,255.0,255.0
348,17.400000000000002,-1.2554801894113212,8.809128337604268e-29,-15.317188174854111,-0.07937860684372433,7.112001533039955e-29,-0.6529078298133527,0.02388684294140382,-1.4177221960698677e-26,0.19399050939487908,0,70,255.0,255.0,255.0
349,17.45,-1.259419434214707,7.088610980349244e-29,-15.349589952546976,-0.07819464558925732,-8.201198959964255e-28,-0.6431407646800853,0.023471607237279306,-2.1472374492376354e-26,0.19669209593584483,0,70,255.0,255.0,255.0
350,17.5,-1.2633,0.0,-15.3815,-0.07703144611999645,-2.0761174339072163e-27,-0.6332386202197686,0.023056371533155207,-2.876752702405456e-26,0.19939368247681166,0,70,255.0,255.0,255.0
351,17.55,-1.2671224530422267,-1.2842116385160295e-28,-15.412912060088072,-0.0758606995819364,-2.8338467876802612e-27,-0.6232312069067075,0.023773489989245788,-1.5416471268668018e-27,0.20090285004562852,0,70,255.0,255.0,255.0
352,17.6,-1.2708854723594805,-2.6069644552037303e-28,-15.443821863051031,-0.07465409712107184,-2.2302821465938986e-27,-0.6131483352152054,0.02449060844533637,2.568423277032096e-26,0.2024120176144454,0,70,255.0,255.0,255.0
353,17.650000000000002,-1.2745872651556207,-3.2876114526333887e-28,-15.474225635969955,-0.07341163873740274,-2.6542351064812844e-28,-0.6029900051452626,0.02520772690142695,5.291011266750871e-26,0.20392118518326227,0,70,255.0,255.0,255.0
354,17.7,-1.278226038634507,-2.6455056333753997e-28,-15.504119605925917,-0.0721333244309292,3.0607291201567627e-27,-0.5927562166968796,0.02592484535751748,8.013599256469453e-26,0.20543035275207905,0,70,255.0,255.0,255.0
355,17.75,-1.2818,0.0,-15.5335,-0.07081915420165102,7.748175745821252e-27,-0.5824469698700553,0.02664196381360817,1.073618724618823e-25,0.20693952032089324,0,70,255.0,255.0,255.0
356,17.8,-1.285307877437866,4.7927430826131e-28,-15.562362515033442,-0.06950038696397655,1.0576060192488587e-26,-0.5720304502744169,0.02610872569336981,5.753505404809475e-27,0.20972126350463527,0,70,255.0,255.0,255.0
357,17.85,-1.288750483061498,9.729323800346439e-28,-15.590700726908125,-0.068208281632314,8.323526286302207e-27,-0.5614748435195915,0.025575487573131446,-9.585486165226336e-26,0.2125030066883773,0,70,255.0,255.0,255.0
358,17.900000000000002,-1.2921291499661975,1.226953297677313e-27,-15.618507681266081,-0.06694283820666337,9.905740272621164e-28,-0.5507801496055789,0.025042249452893083,-1.974632287093362e-25,0.21528474987211932,0,70,255.0,255.0,255.0
359,17.95,-1.2954452112472643,9.873161435466676e-28,-15.64577642374936,-0.06570405668702475,-1.1422796584630632e-26,-0.53994636853238,0.02450901133265476,-2.990715957664018e-25,0.21806649305586112,0,70,255.0,255.0,255.0
360,18.0,-1.2987,0.0,-15.6725,-0.06449193707339794,-2.891658554937779e-26,-0.5289735002999931,0.023975773212416618,-4.0067996282347473e-25,0.22084823623960403,0,70,255.0,255.0,255.0
361,18.05,-1.3018940372063106,-1.7886760691936368e-27,-15.698672279778162,-0.06325775256215564,-3.9470393982274084e-26,-0.5179109919956081,0.025391607237275026,-2.1472374492371117e-26,0.22165209593578794,0,70,255.0,255.0,255.0
362,18.1,-1.305024595394528,-3.631033074618203e-27,-15.724290429316481,-0.0619527763496704,-3.106382299861493e-26,-0.5068082907064141,0.02680744126213343,3.577352138387325e-25,0.22245595563197187,0,70,255.0,255.0,255.0
363,18.150000000000002,-1.3080881349795905,-4.579052045445913e-27,-15.749352438965722,-0.06057700843594225,-3.696872598400318e-27,-0.49566539643241064,0.02822327528699184,7.3694280216983615e-25,0.22325981532815578,0,70,255.0,255.0,255.0
364,18.2,-1.3110811163764349,-3.684714010849128e-27,-15.773856299076641,-0.059130448820971286,4.2630457218365775e-26,-0.4844823091735989,0.029639109311850147,1.1161503905009127e-24,0.22406367502433966,0,70,255.0,255.0,255.0
365,18.25,-1.314,0.0,-15.7978,-0.057613097504757294,1.0791816645168992e-25,-0.47325902892997707,0.031054943336708996,1.495357978832016e-24,0.22486753472052623,0,70,255.0,255.0,255.0
366,18.3,-1.3168423737368917,6.675429968513237e-27,-15.821180365853918,-0.05609260278740151,1.4730551573660774e-25,-0.46192558174316056,0.029764845357521556,8.013599256467475e-26,0.2284703527521265,0,70,255.0,255.0,255.0
367,18.35,-1.3196103353603896,1.3551199918438164e-26,-15.843989555825958,-0.05463661296900509,1.159317657081575e-25,-0.4504119936547641,0.028474747378334116,-1.3350859937026665e-24,0.23207317078372675,0,70,255.0,255.0,255.0
368,18.400000000000002,-1.3223071101154416,1.7089254884106336e-26,-15.866218562871035,-0.053245128049568054,1.3796916366339166e-26,-0.4387182646647876,0.027184649399146676,-2.7503079799700077e-24,0.235675988815327,0,70,255.0,255.0,255.0
369,18.45,-1.3249359232469957,1.3751539899849852e-26,-15.887858379944076,-0.05191814802909048,-1.590990322888324e-25,-0.42684439477323194,0.02589455141995933,-4.165529966237248e-24,0.239278806846927,0,70,255.0,255.0,255.0
370,18.5,-1.3275,0.0,-15.9089,-0.05065567290757218,-4.0275608025738183e-25,-0.4147903839800954,0.024604453440772,-5.580751952504589e-24,0.24288162487852905,0,70,255.0,255.0,255.0
371,18.55,-1.3300012678461226,-2.491304380485931e-26,-15.929335856806166,-0.0493798362882365,-5.497516689641568e-25,-0.4026426810317352,0.026429011332654677,-2.990715957663274e-25,0.24302649305587226,0,70,255.0,255.0,255.0
372,18.6,-1.3324364631639136,-5.057376659913446e-26,-15.949164147379694,-0.04801277177430668,-4.32663239834015e-25,-0.3904877346745078,0.028253569224537353,4.982608760971934e-24,0.2431713612332155,0,70,255.0,255.0,255.0
373,18.650000000000002,-1.3348010245586435,-6.377796749097942e-26,-15.968384509550136,-0.04655447936578272,-5.1490792866956183e-26,-0.37832554490841325,0.03007812711642003,1.0264289117710194e-23,0.24331622941055872,0,70,255.0,255.0,255.0
374,18.7,-1.3370903906355822,-5.132144558855026e-26,-15.986996581147052,-0.045004959062664746,5.937656719369638e-25,-0.36615611173345247,0.031902685008302574,1.5545969474448082e-23,0.24346109758790196,0,70,255.0,255.0,255.0
375,18.75,-1.3393,0.0,-16.005,-0.04336421086495252,1.5031061545778374e-24,-0.35397943514962366,0.03372724290018542,2.082764983118634e-23,0.24360596576524385,0,70,255.0,255.0,255.0
376,18.8,-1.3414261548786175,9.297674525092399e-26,-16.02239300692142,-0.04168405205965172,2.0517011601200196e-24,-0.34171169412988517,0.03347910931184566,1.1161503905006355e-24,0.24710367502428698,0,70,255.0,255.0,255.0
377,18.85,-1.3434686119839554,1.8874386647809967e-25,-16.03916825465527,-0.0400162999337679,1.6147211936279025e-24,-0.3292690676471946,0.03323097572350591,-1.8595349050185068e-23,0.2506013842833301,0,70,255.0,255.0,255.0
378,18.900000000000002,-1.3454279916499847,2.3802261507981127e-25,-16.05531699892842,-0.03836095448730108,1.9216625510148667e-25,-0.3166515557015518,0.032982842135166154,-3.8306848490870766e-23,0.25409909354237326,0,70,255.0,255.0,255.0
379,18.95,-1.3473049142106759,1.9153424245435122e-25,-16.07083049546771,-0.03671801572025136,-2.2159636554590228e-24,-0.3038591582929578,0.03273470854682642,-5.801834793155508e-23,0.25759680280141617,0,70,255.0,255.0,255.0
380,19.0,-1.3491,0.0,-16.0857,-0.035087483632618516,-5.609668538053967e-24,-0.29089187542141076,0.032486574958486614,-7.772984737224075e-23,0.2610945120604611,0,70,255.0,255.0,255.0
381,19.05,-1.3508141126394073,-3.469939371988366e-25,-16.099917715508166,-0.03348395547315725,-7.65705297151592e-24,-0.2778065424487263,0.03165455141996295,-4.165529966236215e-24,0.26231880684690917,0,70,255.0,255.0,255.0
382,19.1,-1.3524490889002645,-7.044016993132639e-25,-16.113479633999216,-0.03192202849062218,-6.026221534677596e-24,-0.2646599947367195,0.030822527881439285,6.939878743976832e-23,0.26354310163335726,0,70,255.0,255.0,255.0
383,19.150000000000002,-1.3540070088414182,-8.883124928282661e-25,-16.126382694736183,-0.03040170268501328,-7.171742275389865e-25,-0.25145223228539026,0.029990504342915624,1.4296310484577285e-22,0.26476739641980535,0,70,255.0,255.0,255.0
384,19.200000000000003,-1.3554899525217146,-7.148155242288246e-25,-16.1386238369821,-0.02892297805633057,8.270088949899899e-24,-0.23818325509473856,0.02915848080439196,2.165274222517774e-22,0.26599169120625343,0,70,255.0,255.0,255.0
385,19.25,-1.3569,0.0,-16.1502,-0.027485854604574148,2.093556799763803e-23,-0.22485306316476544,0.028326457265868327,2.900917396577768e-22,0.2672159859927028,0,70,255.0,255.0,255.0
386,19.3,-1.3582381945637536,1.2949990035444227e-24,-16.161108131045914,-0.026028126047719844,2.8576510725943666e-23,-0.2114621360752482,0.02998268500830295,1.5545969474444288e-23,0.2684210975879796,0,70,255.0,255.0,255.0
387,19.35,-1.3595014324149868,2.6288629307749568e-24,-16.171345209347862,-0.02448758610374381,2.2490164945082473e-23,-0.1980109534059671,0.031638912750737574,-2.589998007088882e-22,0.2696262091832564,0,70,255.0,255.0,255.0
388,19.400000000000002,-1.3606855729843428,3.315227356233253e-24,-16.18090822212685,-0.02286423477264604,2.6765306550544672e-24,-0.18449951515692217,0.033295140493172205,-5.335455708922207e-22,0.2708313207785332,0,70,255.0,255.0,255.0
389,19.450000000000003,-1.3617864757024658,2.6677278544609576e-24,-16.189794156603895,-0.02115807205442654,-3.086439214414037e-23,-0.1709278213281134,0.03495136823560683,-8.080913410755532e-22,0.27203643237381003,0,70,255.0,255.0,255.0
390,19.5,-1.3628,0.0,-16.198,-0.01936909794908544,-7.813260345249815e-23,-0.15729587191954175,0.03660759597804125,-1.0826371112588659e-21,0.2732415439690876,0,70,255.0,255.0,255.0
391,19.55,-1.3637227091055781,-4.833002076978854e-24,-16.205520160308172,-0.01753954033596374,-1.0664898993225873e-22,-0.14344891325027856,0.036574708546825915,-5.801834793154069e-23,0.28063680280143166,0,70,255.0,255.0,255.0
392,19.6,-1.3645539814397893,-9.811050023786562e-24,-16.21233872860934,-0.015711627094402797,-8.39344382456523e-23,-0.12923219163939817,0.03654182111561057,9.666004153957845e-22,0.28803206163377565,0,70,255.0,255.0,255.0
393,19.650000000000002,-1.3652938992212111,-1.237259693210474e-23,-16.218437216756413,-0.013885358224402625,-9.988948392678877e-24,-0.1146457070869006,0.036508933684395235,1.9912191787231095e-21,0.29542732046611964,0,70,255.0,255.0,255.0
394,19.700000000000003,-1.365942544668422,-9.956095893615005e-24,-16.22379713660233,-0.012060733725963222,1.1518747962666148e-22,-0.09968945959278581,0.03647604625317989,3.015837942050435e-21,0.3028225792984637,0,70,255.0,255.0,255.0
395,19.75,-1.3665,0.0,-16.2284,-0.010237753599084715,2.9159484581235456e-22,-0.0843634491570549,0.036443158821964555,4.0404567053776876e-21,0.3102178381308076,0,70,255.0,255.0,255.0
396,19.8,-1.3669669690139339,1.803700930437099e-23,-16.23223762772141,-0.008453712608425793,3.9801944900309124e-22,-0.06928621092362972,0.03491848080439134,2.165274222517185e-22,0.29287169120619105,0,70,255.0,255.0,255.0
397,19.85,-1.3673466418258573,3.661533716437129e-23,-16.235343076214797,-0.006745905518645531,3.1324758803752667e-22,-0.05507628003643539,0.033393802786818125,-3.6074018608742506e-21,0.27552554428157444,0,70,255.0,255.0,255.0
398,19.900000000000002,-1.3676428301308132,4.617516037218571e-23,-16.237759710847488,-0.005114332329743932,3.727926291566099e-23,-0.04173365649547189,0.03186912476924491,-7.43133114400022e-21,0.2581793973569579,0,70,255.0,255.0,255.0
399,19.950000000000003,-1.3678593456238464,3.715665571999905e-23,-16.239530896986786,-0.0035589930417209955,-4.298855263625058e-22,-0.029258340300739233,0.03034444675167169,-1.1255260427126189e-20,0.24083325043234127,0,70,255.0,255.0,255.0
400,20.0,-1.368,0.0,-16.2407,-0.0020798876545768223,-1.08824677979692e-21,-0.017650331452238217,0.028819768734098587,-1.507918971025188e-20,0.22348710350772594,0,70,255.0,255.0,255.0
401,20.05,-1.3680710148386857,-6.73150351405051e-23,-16.2413261288062,-0.0008216092303341379,-1.4854288060801058e-21,-0.007854243055198768,0.021511368235608078,-8.080913410753317e-22,0.16835643237384645,0,70,255.0,255.0,255.0
402,20.1,-1.3680882512567822,-1.3665029863369857e-22,-16.241531366531465,7.124916898401592e-05,-1.1690559139044543e-21,-0.0008146882148533331,0.014202967737117567,1.3463007028101216e-20,0.11322576123996696,0,70,255.0,255.0,255.0
403,20.150000000000002,-1.368069980255536,-1.7232804455663808e-22,-16.24145353985363,0.000598687543377639,-1.3912810326996472e-22,0.003468333068798084,0.00689456723862706,2.773410539727776e-20,0.05809509010608746,0,70,255.0,255.0,255.0
404,20.200000000000003,-1.3680344728361933,-1.3867052698638124e-22,-16.241230475450532,0.0007607058928467314,1.604354625823362e-21,0.004994820795755497,-0.00041383325986345254,4.200520376645431e-20,0.0029644189722079772,0,70,255.0,255.0,255.0
405,20.25,-1.368,0.0,-16.241,0.0005573042173913213,4.0613922733753255e-21,0.003764774966019081,-0.007722233758353435,5.627630213562984e-20,-0.05216625216166754,0,70,255.0,255.0,255.0
406,20.3,-1.3679809716313236,2.5122313125764937e-22,-16.240871457053792,0.00022014952976198845,5.543695775317333e-21,0.0014871831444384,-0.005763953746819688,3.0158379420496127e-21,-0.038937420701558416,0,70,255.0,255.0,255.0
407,20.35,-1.3679763531470142,5.099858573704231e-22,-16.24084025765934,-1.909115729065565e-05,4.36297606758029e-21,-0.00012896710413681572,-0.0038056737352859414,-5.0244626251530614e-20,-0.0257085892414493,0,70,255.0,255.0,255.0
408,20.400000000000002,-1.3679812488470433,6.431370178543667e-22,-16.24087332973799,-0.00016041784376661104,5.192331501642001e-22,-0.0010836757797065663,-0.0018473937237521946,-1.0350509044511085e-19,-0.012479757781340181,0,70,255.0,255.0,255.0
409,20.450000000000003,-1.3679907630313815,5.175254522255255e-22,-16.240937601211094,-0.00020383052966587768,-5.98753297693094e-21,-0.001376942882270851,0.0001108862877815522,-1.5676555463869107e-19,0.0007490736787689398,0,70,255.0,255.0,255.0
410,20.5,-1.368,0.0,-16.241,-0.00014932921498846322,-1.5157322313704382e-20,-0.0010087684118297202,0.002069166299315159,-2.100260188322675e-19,0.013977905138877124,0,70,255.0,255.0,255.0
411,20.55,-1.3680050986360204,-9.375774898900926e-22,-16.241034442978627,-5.898888871381598e-05,-2.0689354295189226e-20,-0.0003984895225494471,0.0015444467516706796,-1.1255260427123146e-20,0.010433250432333455,0,70,255.0,255.0,255.0
412,20.6,-1.368006336155161,-1.903293130847994e-21,-16.241042802831178,5.115460178606932e-06,-1.628284835641671e-20,3.4556631403640024e-05,0.0010197272040262002,1.8751549797802121e-19,0.006888595725789788,0,70,255.0,255.0,255.0
413,20.650000000000002,-1.3680050243562922,-2.400220026860829e-21,-16.24103394119441,4.298383168880549e-05,-1.9378044973868388e-21,0.00029037005002954125,0.0004950076563817211,3.8628625638316565e-19,0.003343941019246118,0,70,255.0,255.0,255.0
414,20.700000000000003,-1.3680024750382822,-1.9314312819157228e-21,-16.241016719705094,5.461622581677975e-05,2.234577728190039e-20,0.00036895073332825646,-2.9711891262758448e-05,5.8505701478831e-19,-0.00020071368729754867,0,70,255.0,255.0,255.0
415,20.75,-1.368,0.0,-16.241,4.001264256253158e-05,5.656789698144221e-20,0.00027029868129979987,-0.0005544314389072006,7.838277731934402e-19,-0.003745368393840963,0,70,255.0,255.0,255.0
416,20.8,-1.367998633824596,3.499086828302721e-21,-16.240990771031694,1.5806025093275474e-05,7.721372140543958e-20,0.0001067749457593882,-0.0004138332598630298,4.2005203766442846e-20,-0.002795581027775411,0,70,255.0,255.0,255.0
417,20.85,-1.3679983022323416,7.103186666021553e-21,-16.240988531015955,-1.3706834237719934e-06,6.076841735808653e-20,-9.259421477745189e-06,-0.0002732350808188591,-6.998173656605545e-19,-0.0018457936617098589,0,70,255.0,255.0,255.0
418,20.900000000000002,-1.3679986537277893,8.957743089588947e-21,-16.240990905484367,-1.1517482988610815e-05,7.231984839383125e-21,-7.780442041160026e-05,-0.00013263690177468834,-1.441639935087552e-18,-0.0008960062956443068,0,70,255.0,255.0,255.0
419,20.950000000000003,-1.3679993368154912,7.20819967543736e-21,-16.24099551996852,-1.4634373601241018e-05,-8.339557615067071e-20,-9.886005104217709e-05,7.961277269482453e-06,-2.183462504514549e-18,5.3781070421245365e-05,0,70,255.0,255.0,255.0
420,21.0,-1.368,0.0,-16.241,-1.072135526166309e-05,-2.1111426561206444e-19,-7.242631336947932e-05,0.00014855945631364321,-2.925285073941493e-18,0.0010035684364867298,0,70,255.0,255.0,255.0
421,21.05,-1.3680003660655964,-1.3058769823320793e-20,-16.241002472894603,-4.235211659285927e-06,-2.8816553132656906e-19,-2.861026048810572e-05,0.00011088628778143958,-1.567655546386484e-19,0.0007490736787681891,0,70,255.0,255.0,255.0
422,21.1,-1.3680004549154732,-2.6509453533238217e-20,-16.241003073105016,3.6727351648102697e-07,-2.2679082107592947e-19,2.4810545073406564e-06,7.321311924923595e-05,2.6117539646641964e-18,0.0004945789210496483,0,70,255.0,255.0,255.0
423,21.150000000000002,-1.3680003607325517,-3.343075233149496e-20,-16.24100243686812,3.086100265637773e-06,-2.6990134860145727e-20,2.0847631616859806e-05,3.553995071703232e-05,5.380273483967041e-18,0.00024008416333110765,0,70,255.0,255.0,255.0
424,21.200000000000003,-1.3680001776997537,-2.6901367419833725e-20,-16.241001200420815,3.92126858818431e-06,3.112365273207823e-19,2.648947084045176e-05,-2.13321781517131e-06,8.148793003269887e-18,-1.4410594387433227e-05,0,70,255.0,255.0,255.0
425,21.25,-1.368,0.0,-16.241,2.8727784841207786e-06,7.878891654668156e-19,1.940657217811742e-05,-3.9806386347372244e-05,1.0917312522572531e-17,-0.0002689053521059558,0,70,255.0,255.0,255.0
426,21.3,-1.3679999019130191,4.8735992464980446e-20,-16.240999337389887,1.1348215438682355e-06,1.0754484039008367e-18,7.666096193034735e-06,-2.971189126272849e-05,5.850570147881509e-19,-0.00020071368729734495,0,70,255.0,255.0,255.0
427,21.35,-1.3679998781057665,9.893462746693131e-20,-16.240999176563996,-9.841064215211255e-08,8.463948669456313e-19,-6.647965516173607e-07,-1.9617396178084732e-05,-9.74719849299623e-18,-0.00013252202248873412,0,70,255.0,255.0,255.0
428,21.400000000000002,-1.3679999033420043,1.2476526623639088e-19,-16.240999347043154,-8.269180739402653e-07,1.0072855460119988e-19,-5.586106055838869e-06,-9.522901093440978e-06,-2.007945400078061e-17,-6.433035768012331e-05,0,70,255.0,255.0,255.0
429,21.450000000000003,-1.3679999523854947,1.0039727000389752e-19,-16.24099967834821,-1.050700751496224e-06,-1.161550533132458e-18,-7.097832319629786e-06,5.715939912027802e-07,-3.041170950856499e-17,3.861307128487541e-06,0,70,255.0,255.0,255.0
430,21.5,-1.368,0.0,-16.241,-7.697586748200263e-07,-2.9404423962551977e-18,-5.199975342990369e-06,1.066608907584581e-05,-4.074396501634864e-17,7.205297193709349e-05,0,70,255.0,255.0,255.0
431,21.55,-1.3680000262823275,-1.8188520003660098e-19,-16.241000177545843,-3.040745161870141e-07,-4.013628084276778e-18,-2.054124284033214e-06,7.961277269474413e-06,-2.183462504513959e-18,5.378107042119091e-05,0,70,255.0,255.0,255.0
432,21.6,-1.3680000326614614,-3.69229056334487e-19,-16.241000220639012,2.6369052127426306e-08,-3.158788646706597e-18,1.781316991287985e-07,5.256465463103015e-06,3.6377040007320724e-17,3.5509168905288324e-05,0,70,255.0,255.0,255.0
433,21.650000000000002,-1.368000025899432,-4.656303126140686e-19,-16.241000174959257,2.2157203012329464e-07,-3.759240835446534e-19,1.4967926064956687e-06,2.551653656731618e-06,7.49375425191554e-17,1.7237267389385737e-05,0,70,255.0,255.0,255.0
434,21.700000000000003,-1.3680000127582683,-3.7468771259575634e-19,-16.241000086186336,2.815344178005918e-07,4.334965605209052e-18,1.9018584380673965e-06,-1.5315814963978028e-07,1.1349804503099008e-16,-1.034634126516844e-06,0,70,255.0,255.0,255.0
435,21.75,-1.368,0.0,-16.241,2.0625621515932653e-07,1.0973880419553975e-17,1.3933291938440507e-06,-2.8579699560109846e-06,1.5205854754282202e-16,-1.9306535642418127e-05,0,70,255.0,255.0,255.0
436,21.8,-1.3679999929576718,6.788048076814235e-19,-16.240999952426733,8.147652087982137e-08,1.4979063933206275e-17,5.504009430981199e-07,-2.133217815169151e-06,8.148793003267683e-18,-1.4410594387418624e-05,0,70,255.0,255.0,255.0
437,21.85,-1.367999991248388,1.3779815978710169e-18,-16.240999940879952,-7.065566357591574e-09,1.1788759719880754e-17,-4.7730244897832375e-08,-1.408465674327317e-06,-1.3576096153628666e-16,-9.514653132419122e-06,0,70,255.0,255.0,255.0
438,21.900000000000002,-1.3679999930602682,1.7377559842198838e-18,-16.240999953119807,-5.9370046552912313e-08,1.4029677795774115e-18,-4.0106437014380564e-07,-6.83713533485483e-07,-2.7967071607584095e-16,-4.618711877419621e-06,0,70,255.0,255.0,255.0
439,21.950000000000003,-1.3679999965814325,1.3983535803791274e-18,-16.24099997690644,-7.543691970614086e-08,-1.617831188770375e-17,-5.096014326398011e-07,4.103860735635066e-08,-4.235804706153953e-16,2.7722937757988195e-07,0,70,255.0,255.0,255.0
440,22.0,-1.368,0.0,-16.241,-5.526618581727995e-08,-4.09550792819607e-17,-3.7334143238583556e-07,7.657907481981329e-07,-5.674902251549393e-16,5.173170632579039e-06,0,70,255.0,255.0,255.0
441,22.05,-1.3680000018869862,-2.5333340306890926e-18,-16.241000012747218,-2.18315673322713e-08,-5.590262764854832e-17,-1.4747948835926616e-07,5.715939912021941e-07,-3.041170950855674e-17,3.861307128483608e-06,0,70,255.0,255.0,255.0
442,22.1,-1.3680000023449872,-5.142697335149578e-18,-16.24100001584117,1.893213302940279e-09,-4.399625023281641e-17,1.2789280462530764e-08,3.7739723420625544e-07,5.066668061378258e-16,2.549443624388177e-06,0,70,255.0,255.0,255.0
443,22.150000000000002,-1.3680000018594956,-6.485393624265465e-18,-16.24100001256151,1.5908156088354777e-08,-5.235947034764994e-18,1.0746487407955512e-07,1.8320047721031662e-07,1.0437453217842086e-15,1.2375801202927453e-06,0,70,255.0,255.0,255.0
444,22.200000000000003,-1.3680000009160025,-5.218726608920754e-18,-16.2410000061879,2.02132610239722e-08,6.037828194560591e-17,1.3654729249180703e-07,-1.0996279785622034e-08,1.580823837430591e-15,-7.428338380268552e-08,0,70,255.0,255.0,255.0
445,22.25,-1.368,0.0,-16.241,1.4808528109793288e-08,1.5284643670828883e-16,1.0003653569929123e-07,-2.0519303678154703e-07,2.1179023530769357e-15,-1.3861468878980246e-06,0,70,255.0,255.0,255.0
446,22.3,-1.367999999494384,9.454531315074949e-18,-16.240999996584392,5.849748449263838e-09,2.0863144666098695e-16,3.951701033894468e-08,-1.5315814963962585e-07,1.1349804503095956e-16,-1.0346341265158028e-06,0,70,255.0,255.0,255.0
447,22.35,-1.3679999993716627,1.9192807742727302e-17,-16.24099999575537,-5.072868541695177e-10,1.6419624121138489e-16,-3.426876952290524e-09,-1.011232624977047e-07,-1.8909062630150166e-15,-6.831213651335809e-07,0,70,255.0,255.0,255.0
448,22.400000000000002,-1.3679999995017502,2.420381851284198e-17,-16.240999996634155,-4.262577800506773e-09,1.95408203594826e-17,-2.8795126174414362e-08,-4.908837535578352e-08,-3.895310571060993e-15,-3.31608603751359e-07,0,70,255.0,255.0,255.0
449,22.450000000000003,-1.3679999997545584,1.9476552855303903e-17,-16.240999998341955,-5.41612438974794e-09,-2.2533481589472e-16,-3.6587737327426894e-08,2.946511786137637e-09,-5.899714879106969e-15,1.990415763086289e-08,0,70,255.0,255.0,255.0
450,22.5,-1.368,0.0,-16.241,-3.967926621893199e-09,-5.704306675511946e-16,-2.6804710411329384e-08,5.498139892805511e-08,-7.9041191871528e-15,3.714169190130596e-07,0,70,255.0,255.0,255.0
451,22.55,-1.3680000001354793,-3.528479122961069e-17,-16.241000000915207,-1.567426464784057e-09,-7.786231589953995e-16,-1.0588552996512576e-08,4.10386073563092e-08,-4.2358047061528033e-16,2.7722937757960354e-07,0,70,255.0,255.0,255.0
452,22.6,-1.3680000001683617,-7.162853363575961e-17,-16.241000001137344,1.3593411373777925e-10,-6.127887146127233e-16,9.182273466313624e-10,2.709581578456329e-08,7.05695824592224e-15,1.830418361461475e-07,0,70,255.0,255.0,255.0
453,22.650000000000002,-1.3680000001335046,-9.032988042710244e-17,-16.241000000901877,1.1421551136723106e-09,-7.292733440316526e-17,7.715630618102433e-09,1.3153024212817378e-08,1.453749696245976e-14,8.885429471269147e-08,0,70,255.0,255.0,255.0
454,22.700000000000003,-1.3680000000657653,-7.268748481229478e-17,-16.241000000444274,1.4512365350195351e-09,8.409609816332734e-16,9.803656817900635e-09,-7.897673589285348e-10,2.201803567899728e-14,-5.333246720764559e-09,0,70,255.0,255.0,255.0
455,22.75,-1.368,0.0,-16.241,1.0631783777795084e-09,2.1288762334964894e-15,7.182305946026325e-09,-1.4732558930673452e-08,2.949857439553427e-14,-9.952078815421387e-08,0,70,255.0,255.0,255.0
456,22.8,-1.3679999999637003,1.3168463360336782e-16,-16.24099999975477,4.199574098723888e-10,2.905861189320611e-15,2.8372016471056286e-09,-1.0996279785610968e-08,1.5808238374301606e-15,-7.428338380261155e-08,0,70,255.0,255.0,255.0
457,22.85,-1.3679999999548909,2.6732132680031117e-16,-16.240999999695248,-3.644960078160393e-11,2.2869586172395077e-15,-2.4603243423493447e-10,-7.260000640548483e-09,-2.6336926720673948e-14,-4.9045979451009235e-08,0,70,255.0,255.0,255.0
458,22.900000000000002,-1.3679999999642316,3.371157031955678e-16,-16.24099999975834,-3.0604265418246974e-10,2.7216851725317855e-16,-2.0673962979953644e-09,-3.523721495485999e-09,-5.425467727877806e-14,-2.3808575099406918e-08,0,70,255.0,255.0,255.0
459,22.950000000000003,-1.3679999999823815,2.7127338639387536e-16,-16.240999999880955,-3.888217503302087e-10,-3.138509110638376e-15,-2.626889944175659e-09,2.125576495764856e-10,-8.217242783688217e-14,1.4288292521953986e-09,0,70,255.0,255.0,255.0
460,23.0,-1.368,0.0,-16.241,-2.8478688922483515e-10,-7.945074266434762e-15,-1.9245133727759176e-09,3.948836794638705e-09,-1.1009017839498425e-13,2.666623360379592e-08,0,70,255.0,255.0,255.0
461,23.05,-1.368000000009721,-4.914537431838606e-16,-16.24100000006571,-1.1240317470549814e-10,-1.0844821598287043e-14,-7.602535919099363e-10,2.9465117861346767e-09,-5.899714879105375e-15,1.9904157630842675e-08,0,70,255.0,255.0,255.0
462,23.1,-1.3680000000120758,-9.97656773565485e-16,-16.241000000081662,9.864289388636729e-12,-8.535045754345307e-15,6.590239030837815e-11,1.9441867776306485e-09,9.82907486367735e-14,1.3142081657889432e-08,0,70,255.0,255.0,255.0
463,23.150000000000002,-1.3680000000095698,-1.2581329323551687e-15,-16.241000000064755,8.201550305756946e-11,-1.01574673460955e-15,5.539545738790257e-10,9.418617691266198e-10,2.024812121526524e-13,6.380005684936189e-09,0,70,255.0,255.0,255.0
464,23.200000000000003,-1.3680000000047092,-1.0124060607632065e-15,-16.241000000031896,1.0405046630129999e-10,1.1713075460920222e-14,7.039029588020059e-10,-6.046323937740842e-11,3.0667167566853127e-13,-3.820702880170553e-10,0,70,255.0,255.0,255.0
465,23.25,-1.368,0.0,-16.241,7.596917911983218e-11,2.965142083224256e-14,5.157475450773451e-10,-1.0627882478813661e-09,4.1086213918440277e-13,-7.144146260969818e-09,0,70,255.0,255.0,255.0
466,23.3,-1.3679999999974164,1.8341303391320744e-15,-16.24099999998239,2.9655288949603936e-11,4.0473425203827564e-14,2.038127205341163e-10,-7.89767358927737e-10,2.2018035678991284e-14,-5.3332467207591585e-09,0,70,255.0,255.0,255.0
467,23.35,-1.367999999996807,3.723305767461628e-15,-16.240999999978108,-3.0075567729426535e-12,3.1853224400141715e-14,-1.7577126998578265e-11,-5.16746469974108e-10,-3.668260678264202e-13,-3.5223471805484987e-09,0,70,255.0,255.0,255.0
468,23.400000000000002,-1.3679999999974897,4.695416026225107e-15,-16.240999999982638,-2.2019358047807598e-11,3.7908184211850235e-15,-1.484219975207385e-10,-2.4372558102047887e-10,-7.556701713318315e-13,-1.711447640337839e-09,0,70,255.0,255.0,255.0
469,23.450000000000003,-1.3679999999987813,3.7783508566589494e-15,-16.24099999999144,-2.738011487499089e-11,-4.371379273304252e-14,-1.887218910323645e-10,2.9295307933150156e-11,-1.1445142748372431e-12,9.945189987282087e-11,0,70,255.0,255.0,255.0
470,23.5,-1.368,0.0,-16.241,-1.9089827254493592e-11,-1.1066060906253547e-13,-1.3847680753346296e-10,3.0231619688675984e-10,-1.5333583783426273e-12,1.9103514400833537e-09,0,70,255.0,255.0,255.0
471,23.55,-1.368000000000614,-6.845067613344436e-15,-16.241000000004735,-6.2179810929176165e-12,-1.510488792170232e-13,-5.499729022652901e-11,2.1255764957627189e-10,-8.217242783686017e-14,1.4288292521939569e-09,0,70,255.0,255.0,255.0
472,23.6,-1.3680000000006964,-1.389556629628103e-14,-16.2410000000059,2.1659377031338964e-12,-1.188778518462216e-13,4.406117685934762e-12,1.2279910226578395e-10,1.369013522668907e-12,9.4730706430456e-10,0,70,255.0,255.0,255.0
473,23.650000000000002,-1.3680000000004724,-1.7523531172545264e-14,-16.2410000000047,6.0619291336609535e-12,-1.4147526950130528e-14,3.9733416203928335e-11,3.304055495529597e-11,2.8201994731746743e-12,4.657848764151633e-10,0,70,255.0,255.0,255.0
474,23.700000000000003,-1.3680000000001655,-1.4100997365872598e-14,-16.24100000000233,5.469993198663539e-12,1.6314209547124986e-13,5.098460532745178e-11,-5.671799235519194e-11,4.271385423680441e-12,-1.5737311474233548e-11,0,70,255.0,255.0,255.0
475,23.75,-1.368,0.0,-16.241,3.901298981421985e-13,4.129910154178993e-13,3.815968505650672e-11,-1.4647653966567357e-10,5.722571374186106e-12,-4.972594993635959e-10,0,70,255.0,255.0,255.0
476,23.8,-1.368000000000128,2.5546140114245676e-14,-16.240999999998664,-4.783364577933483e-12,5.637220916642653e-13,1.6176440371999784e-11,-6.046323937735077e-11,3.066716756684489e-13,-3.8207028801666895e-10,0,70,255.0,255.0,255.0
477,23.85,-1.3680000000004067,5.185895941766249e-14,-16.240999999998287,-5.656194039592964e-12,4.4365818298474457e-13,-4.7343745160719395e-14,2.5550060910972032e-11,-5.1092280228492085e-12,-2.6688107666974197e-10,0,70,255.0,255.0,255.0
478,23.900000000000002,-1.3680000000006216,6.539870866395592e-14,-16.240999999998575,-2.2283584868362388e-12,5.2799289379337115e-14,-1.0511667294974798e-11,1.1156336119929487e-10,-1.0525127721366867e-11,-1.51691865322815e-10,0,70,255.0,255.0,255.0
479,23.950000000000003,-1.3680000000005579,5.262563860683143e-14,-16.24099999999924,5.500142080336681e-12,-6.088545891519572e-13,-1.5216530277442433e-11,1.9757666148761763e-10,-1.5941027419884524e-11,-3.650265397588807e-11,0,70,255.0,255.0,255.0
480,24.0,-1.368,0.0,-16.241,1.7529307661924796e-11,-1.5413034526090618e-12,-1.416193269256394e-11,2.835899617759342e-10,-2.1356927118401794e-11,7.868655737103069e-11,0,70,255.0,255.0,255.0
481,24.05,-1.3679999999988752,-9.533949284363826e-14,-16.2410000000006,2.535143940465154e-11,-2.103839487440038e-12,-9.708471261470123e-12,2.929530793313103e-11,-1.1445142748369368e-12,9.945189987271948e-11,0,70,255.0,255.0,255.0
482,24.1,-1.3679999999976769,-1.9354027137436893e-13,-16.241000000000955,2.045883845523794e-11,-1.6557548800927572e-12,-4.2167427052918504e-12,-2.2499934590967216e-10,1.906789856872792e-11,1.2021724237440828e-10,0,70,255.0,255.0,255.0
483,24.150000000000002,-1.3679999999970411,-2.4407130348327844e-13,-16.241000000001005,2.8515048136840017e-12,-1.9704963056721839e-13,2.3132529759708768e-12,-4.792939997524753e-10,3.9280311412292774e-11,1.4098258487609708e-10,0,70,255.0,255.0,255.0
484,24.200000000000003,-1.3679999999976036,-1.9640155706145322e-13,-16.241000000000703,-2.7470561520010288e-11,2.272276261136577e-12,9.881515782318058e-12,-7.335886535952785e-10,5.949272425585763e-11,1.6174792737778588e-10,0,70,255.0,255.0,255.0
485,24.25,-1.368,0.0,-16.241,-7.050736054584138e-11,5.7522227950183475e-12,1.8488045713749046e-11,-9.878833074380638e-10,7.970513709942107e-11,1.8251326987947318e-10,0,70,255.0,255.0,255.0
486,24.3,-1.3680000000043724,3.558118312603073e-13,-16.24099999999893,-9.66223930406727e-11,7.851635858095886e-12,2.265744467388071e-11,-5.6717992355173793e-11,4.2713854236792925e-12,-1.5737311474208965e-11,0,70,255.0,255.0,255.0
487,24.35,-1.3680000000088863,7.223021260798131e-13,-16.2409999999979,-7.617915978135883e-11,6.179361337386284e-12,1.6914314566328126e-11,8.744473227277162e-10,-7.116236625206248e-11,-2.139878928278911e-10,0,70,255.0,255.0,255.0
488,24.400000000000002,-1.3680000000112145,9.108865052691578e-13,-16.240999999997403,-9.177660767899816e-12,7.353992328895338e-13,1.2586553910912939e-12,1.805612637810606e-09,-1.4659611792780426e-10,-4.122384741815733e-10,0,70,255.0,255.0,255.0
489,24.450000000000003,-1.3680000000090282,7.329805896389815e-13,-16.24099999999794,1.0438210399970437e-10,-8.480250455394352e-12,-2.4309532851829786e-11,2.7367779528934963e-09,-2.2202986960354603e-10,-6.104890555352554e-10,0,70,255.0,255.0,255.0
490,24.5,-1.368,0.0,-16.241,2.645001345214407e-10,-2.1467587727464327e-11,-5.979025016243224e-11,3.66794326797632e-09,-2.974636212792824e-10,-8.087396368889232e-10,0,70,255.0,255.0,255.0
491,24.55,-1.367999999983636,-1.327907832197591e-12,-16.241000000003677,3.6113813275803916e-10,-2.93027039449435e-11,-8.09213074340527e-11,1.9757666148756322e-10,-1.594102741988019e-11,-3.650265397588357e-11,0,70,255.0,255.0,255.0
492,24.6,-1.3679999999667782,-2.6956682329448833e-12,-16.241000000007446,2.842578006701972e-10,-2.306169046945237e-11,-6.344051556002065e-11,-3.2727899450011935e-09,2.65581566439522e-10,7.357343289371561e-10,0,70,255.0,255.0,255.0
493,24.650000000000002,-1.3679999999581025,-3.399474717593352e-12,-16.24100000000938,3.385913825791505e-11,-2.744547300990917e-12,-7.347874540336044e-12,-6.74315655148995e-09,5.471041602989242e-10,1.5079713118501958e-09,0,70,255.0,255.0,255.0
494,24.700000000000003,-1.3679999999662842,-2.7355208014944707e-12,-16.241000000007542,-3.900578544788074e-10,3.164872556044083e-11,8.735661562500109e-11,-1.0213523157978707e-08,8.286267541583264e-10,2.2802082947632356e-09,0,70,255.0,255.0,255.0
495,24.75,-1.368,0.0,-16.241,-9.874931775399214e-10,8.011812811483895e-11,2.206729549359799e-10,-1.3683889764467216e-08,1.1101493480177085e-09,3.0524452776762203e-09,0,70,255.0,255.0,255.0
496,24.8,-1.3680000000610837,4.955819497530057e-12,-16.240999999986354,-1.347930137991484e-09,1.0935917992167811e-10,3.0102778506233013e-10,-7.335886535950797e-10,5.949272425584145e-11,1.6174792737774344e-10,0,70,255.0,255.0,255.0
497,24.85,-1.3680000001240011,1.0060370805699721e-11,-16.240999999972306,-1.0608520428994305e-09,8.606740054042318e-11,2.3684774767375447e-10,1.2216712457277057e-08,-9.911638995060256e-10,-2.7289494229207335e-09,0,70,255.0,255.0,255.0
498,24.900000000000002,-1.368000000156377,1.2687012365104251e-11,-16.24099999996508,-1.2625889226376106e-10,1.0242789971074092e-11,2.813284277025281e-11,2.516701356814919e-08,-2.041820523267893e-09,-5.6196467732192095e-09,0,70,255.0,255.0,255.0
499,24.950000000000003,-1.3680000001258352,1.02091026163389e-11,-16.2409999999719,1.4558493139155245e-09,-1.1811465178636902e-10,-3.2511692964817453e-10,3.8117314679021326e-08,-3.09247714702976e-09,-8.510344123517688e-09,0,70,255.0,255.0,255.0
500,25.0,-1.368,0.0,-16.241,3.6854725756382448e-09,-2.990049247318915e-10,-8.229015695814873e-10,5.106761578989254e-08,-4.143133770791552e-09,-1.1401041473815954e-08,0,70,255.0,255.0,255.0
501,25.05,-1.3679999997720298,-1.8495370157922634e-11,-16.241000000050896,5.030582419207896e-09,-4.0813401574176896e-10,-1.1231898328152676e-09,2.7367779528927543e-09,-2.2202986960348554e-10,-6.104890555350887e-10,0,70,255.0,255.0,255.0
502,25.1,-1.3679999995372176,-3.7545814989854e-11,-16.24100000010333,3.959150370927523e-09,-3.212079116922404e-10,-8.839504751349969e-10,-4.559405988410703e-08,3.6990740315845808e-09,1.0180063362745777e-08,0,70,255.0,255.0,255.0
503,25.150000000000002,-1.3679999994163905,-4.734857474282365e-11,-16.241000000130303,4.711764307971284e-10,-3.822661258330571e-11,-1.0518349654067538e-10,-9.392489772110681e-08,7.620177932772646e-09,2.097061578102664e-08,0,70,255.0,255.0,255.0
504,25.200000000000003,-1.3679999995303755,-3.810088966386112e-11,-16.24100000010485,-5.433339401183292e-09,4.4080988158503515e-10,1.213111102967697e-09,-1.422557355581066e-07,1.1541281833960713e-08,3.1761168199307504e-08,0,70,255.0,255.0,255.0
505,25.25,-1.368,0.0,-16.241,-1.3754397125013058e-08,1.115901570812727e-09,3.070933323389969e-09,-1.9058657339510294e-07,1.54623857351485e-08,4.255172061758759e-08,0,70,255.0,255.0,255.0
506,25.3,-1.3680000008507978,6.902566113416048e-11,-16.24099999981004,-1.87743995388401e-08,1.5231768830453978e-09,4.19173154619874e-09,-1.0213523157975938e-08,8.286267541581026e-10,2.280208294762613e-09,0,70,255.0,255.0,255.0
507,25.35,-1.3680000017271292,1.4012288915371628e-10,-16.240999999614388,-1.4775749440810665e-08,1.1987642462285385e-09,3.2989541528662335e-09,1.7015952707915106e-07,-1.3805132226832296e-08,-3.7991304028062364e-08,0,70,255.0,255.0,255.0
508,25.400000000000002,-1.3680000021780618,1.7670728660619037e-10,-16.240999999513708,-1.7584468309247478e-09,1.4266366036214895e-10,3.926011433924482e-10,3.505325773162781e-07,-2.8438891207822693e-08,-7.826281635088735e-08,0,70,255.0,255.0,255.0
509,25.450000000000003,-1.368000001752663,1.4219445603910563e-10,-16.240999999608686,2.0277508290817645e-08,-1.6451248745537713e-09,-4.527327482222613e-09,5.30905627553405e-07,-4.307265018881309e-08,-1.1853432867371232e-07,0,70,255.0,255.0,255.0
510,25.5,-1.368,0.0,-16.241,5.1332115924413986e-08,-4.164601358519016e-09,-1.1460831723978388e-08,7.112786777905195e-07,-5.770640916980245e-08,-1.5880584099653448e-07,0,70,255.0,255.0,255.0
511,25.55,-1.3679999968247798,-2.5760727437871923e-10,-16.241000000708926,7.006701573615251e-08,-5.6845735164398216e-09,-1.5643736351979694e-08,3.811731467901107e-08,-3.0924771470289273e-09,-8.510344123515395e-09,0,70,255.0,255.0,255.0
512,25.6,-1.3679999935542664,-5.229457416250111e-10,-16.241000001439126,5.514384739231515e-08,-4.473849073221913e-09,-1.2311866136329938e-08,-6.350440484324973e-07,5.152145487574459e-08,1.4178515274950369e-07,0,70,255.0,255.0,255.0
513,25.650000000000002,-1.3679999918713628,-6.594805716819377e-10,-16.241000001814868,6.5626108929018645e-09,-5.324280288652899e-10,-1.4652210770291245e-09,-1.3082054115440057e-06,1.0613538689851811e-07,2.9208064962252277e-07,0,70,255.0,255.0,255.0
514,25.700000000000003,-1.3679999934589728,-5.306769344925615e-10,-16.2410000014604,-7.567669376208726e-08,6.13968961663005e-09,1.6896198825922754e-08,-1.981366774655514e-06,1.6074931892129163e-07,4.4237614649554187e-07,0,70,255.0,255.0,255.0
515,25.75,-1.368,0.0,-16.241,-1.915740665726429e-07,1.554250386326334e-08,4.277239357252358e-08,-2.6545281377669744e-06,2.1536325094406126e-07,5.926716433685504e-07,0,70,255.0,255.0,255.0
516,25.8,-1.3680000118500835,9.614034363807168e-10,-16.24099999735425,-2.614936634057699e-07,2.121511718271389e-08,5.838321386172004e-08,-1.4225573555806802e-07,1.1541281833957615e-08,3.1761168199299034e-08,0,70,255.0,255.0,255.0
517,25.85,-1.3680000240558061,1.9516600773463283e-09,-16.240999994629103,-2.0579964012844992e-07,1.669663204665911e-08,4.594851039245352e-08,2.3700166666508384e-06,-1.9228068727614603e-07,-5.291493069699523e-07,0,70,255.0,255.0,255.0
518,25.900000000000002,-1.368000030336487,2.4612150001215608e-09,-16.240999993226826,-2.4491996740682684e-08,1.9870484550990023e-09,5.468283164724033e-09,4.882289068859745e-06,-3.961026563862497e-07,-1.090059782139204e-06,0,70,255.0,255.0,255.0
519,25.950000000000003,-1.3680000244114456,1.9805132819311404e-09,-16.2409999945497,2.8242926675753153e-07,-2.2913633591966427e-08,-6.305746782146841e-08,7.394561471068651e-06,-5.999246254963533e-07,-1.650970257308455e-06,0,70,255.0,255.0,255.0
520,26.0,-1.368,0.0,-16.241,7.149641503661576e-07,-5.800541409453434e-08,-1.5962874256611595e-07,9.90683387327738e-06,-8.037465946064426e-07,-2.2118807324776664e-06,0,70,255.0,255.0,255.0
521,26.05,-1.367999955774887,-3.5880064711441464e-09,-16.24100000987406,9.759076378869275e-07,-7.917589521441575e-08,-2.1788911909490044e-07,5.309056275532638e-07,-4.307265018880137e-08,-1.1853432867368026e-07,0,70,255.0,255.0,255.0
522,26.1,-1.3679999102225098,-7.2836945677603e-09,-16.241000020044456,7.680547131214846e-07,-6.231267911341453e-08,-1.7148217543348412e-07,-8.845022618170853e-06,7.176012942288399e-07,1.974812075130306e-06,0,70,255.0,255.0,255.0
523,26.150000000000002,-1.3679998867826892,-9.185379428804301e-09,-16.24100002527782,9.14053760698295e-08,-7.415765791530729e-09,-2.0407911581866955e-08,-1.822095086389497e-05,1.4782752386464812e-06,4.068158478934292e-06,0,70,255.0,255.0,255.0
524,26.200000000000003,-1.3679999088952457,-7.391376193231996e-09,-16.241000020340792,-1.0540403732680387e-06,8.551484475123572e-08,2.3533367245995092e-07,-2.7596879109619087e-05,2.238949183064122e-06,6.161504882738278e-06,0,70,255.0,255.0,255.0
525,26.25,-1.368,0.0,-16.241,-2.668282534891988e-06,2.1647915251487402e-07,5.957425766919402e-07,-3.6972807355342544e-05,2.99962312748171e-06,8.254851286542112e-06,0,70,255.0,255.0,255.0
526,26.3,-1.368000165050369,1.3390622448195873e-08,-16.240999963149505,-3.64213688814194e-06,2.954884636749491e-07,8.131732625178816e-07,-1.981366774654986e-06,1.6074931892124867e-07,4.4237614649542096e-07,0,70,255.0,255.0,255.0
527,26.35,-1.368000335054155,2.718311819369488e-08,-16.24099992519307,-2.8664192123574886e-06,2.3255408440699906e-07,6.399801913414829e-07,3.301007380603257e-05,-2.6781244896392126e-06,-7.37009899355127e-06,0,70,255.0,255.0,255.0
528,26.400000000000002,-1.3680004225327564,3.428030271509567e-08,-16.240999905661884,-3.4112950753863545e-07,2.76760147110239e-08,7.616336316274381e-08,6.800151438672014e-05,-5.516998298199675e-06,-1.5182574133597961e-05,0,70,255.0,255.0,255.0
529,26.450000000000003,-1.3680003400075722,2.758499149099686e-08,-16.24099992408713,3.933732226314622e-06,-3.191457454129763e-07,-8.782772220183352e-07,0.00010299295496740769,-8.355872106760135e-06,-2.2995049273644653e-05,0,70,255.0,255.0,255.0
530,26.5,-1.368,0.0,-16.241,9.958165989201793e-06,-8.079111959649617e-07,-2.2233415642016446e-06,0.00013798439554809277,-1.1194745915320396e-05,-3.0807524413690795e-05,0,70,255.0,255.0,255.0
531,26.55,-1.367999384023637,-4.997448332163934e-08,-16.24100013752792,1.359263991468083e-05,-1.1027779594853806e-06,-3.0348039309766262e-06,7.394561471066639e-06,-5.999246254961909e-07,-1.650970257308009e-06,0,70,255.0,255.0,255.0
532,26.6,-1.3679987495608703,-1.014487782070192e-07,-16.241000279183265,1.0697622136308468e-05,-8.67903658514582e-07,-2.3884385899324477e-06,-0.0001231952726059595,9.994896664328014e-06,2.7505583899074777e-05,0,70,255.0,255.0,255.0
533,26.650000000000002,-1.3679984230862852,-1.2793583143157833e-07,-16.241000352074646,1.273112654084706e-06,-1.0328829305256488e-07,-2.842455410691091e-07,-0.0002537851066829856,2.0589717954152214e-05,5.666213805545756e-05,0,70,255.0,255.0,255.0
534,26.700000000000003,-1.3679987310744668,-1.0294858977075543e-07,-16.24100028331069,-1.4680888531990451e-05,1.1910681369006696e-06,3.2777752156133897e-06,-0.00038437494076001176,3.118453924397642e-05,8.581869221184035e-05,0,70,255.0,255.0,255.0
535,26.75,-1.368,0.0,-16.241,-3.716438142191518e-05,3.0151656313449727e-06,8.297623680114639e-06,-0.0005149647748370287,4.177936053379987e-05,0.00011497524636822109,0,70,255.0,255.0,255.0
536,26.8,-1.368002298855083,1.865073108383615e-07,-16.24099948673882,-5.072842277058138e-05,4.115623374266573e-06,1.1326042461388624e-05,-2.759687910961167e-05,2.2389491830635157e-06,6.161504882736622e-06,0,70,255.0,255.0,255.0
537,26.85,-1.368004666702364,3.7861199463438194e-07,-16.240998958073874,-3.992406933287639e-05,3.239060549651327e-06,8.913774168388308e-06,0.0004597710166178053,-3.730146216767284e-05,-0.00010265223660274784,0,70,255.0,255.0,255.0
538,26.900000000000002,-1.3680058851221033,4.774630230112176e-07,-16.240998686039518,-4.75132110880019e-06,3.8547715749923613e-07,1.060818801113693e-06,0.0009471389123452223,-7.68418735184092e-05,-0.0002114659780882323,0,70,255.0,255.0,255.0
539,26.950000000000003,-1.368004735694562,3.8420936759202463e-07,-16.24099894267011,5.4789821901647185e-05,-4.445126802189704e-06,-1.2232823640435227e-05,0.0014345068080726393,-0.00011638228486914555,-0.0003202797195737168,0,70,255.0,255.0,255.0
