idx,t,px,py,pz,vx,vy,vz,ax,ay,az,yaw,mode,ledr,ledg,ledb
0,0.0,4.5,3.0,0.0,2.1879312720357297e-21,-1.9877396196400516e-20,0.017974594246339348,-2.6255175264428758e-20,2.385287543568062e-19,-0.5084951309560722,0,70,255.0,255.0,255.0
1,0.05,4.5,3.0,0.00026468539286821644,1.0064483851364355e-21,-9.143602250344235e-21,-0.007355686646683905,-2.1004140211543005e-20,1.9082300348544497e-19,-0.5047161047648578,0,70,255.0,255.0,255.0
2,0.1,4.5,3.0,-0.0007324194761757119,8.751725088142888e-23,-7.950958478560171e-22,-0.03249701623014644,-1.5753105158657253e-20,1.4311725261408372e-19,-0.5009370785736433,0,70,255.0,255.0,255.0
3,0.15000000000000002,4.5,3.0,-0.002981867041653749,-5.6886213072929e-22,5.1681230110641374e-21,-0.05744939450404825,-1.0502070105771501e-20,9.541150174272247e-20,-0.49715805238242894,0,70,255.0,255.0,255.0
4,0.2,4.5,3.0,-0.006474209738087858,-9.626897596957214e-22,8.746054326416232e-21,-0.08221282146838933,-5.251035052885749e-21,4.7705750871361224e-20,-0.4933790261912145,0,70,255.0,255.0,255.0
5,0.25,4.5,3.0,-0.0112,-1.0939656360178648e-21,9.938698098200258e-21,-0.10678729712316967,0.0,0.0,-0.4895999999999998,0,70,255.0,255.0,255.0
6,0.30000000000000004,4.5,3.0,-0.01714979026191215,-9.626897596957208e-22,8.746054326416226e-21,-0.13117282146838932,5.251035052885756e-21,-4.7705750871361284e-20,-0.4858209738087854,0,70,255.0,255.0,255.0
7,0.35000000000000003,4.5,3.0,-0.024314132958346255,-5.688621307292893e-22,5.168123011064131e-21,-0.15536939450404824,1.0502070105771507e-20,-9.541150174272252e-20,-0.4820419476175711,0,70,255.0,255.0,255.0
8,0.4,4.5,3.0,-0.032683580523824286,8.751725088142954e-23,-7.950958478560246e-22,-0.1793770162301464,1.5753105158657256e-20,-1.4311725261408374e-19,-0.4782629214263567,0,70,255.0,255.0,255.0
9,0.45,4.5,3.0,-0.04224868539286821,1.0064483851364362e-21,-9.143602250344242e-21,-0.20319568664668392,2.1004140211543008e-20,-1.90823003485445e-19,-0.47448389523514234,0,70,255.0,255.0,255.0
10,0.5,4.5,3.0,-0.053,2.1879312720357297e-21,-1.9877396196400516e-20,-0.22682540575366067,2.6255175264428755e-20,-2.385287543568062e-19,-0.4707048690439266,0,70,255.0,255.0,255.0
11,0.55,4.5,3.0,-0.06492632434521964,2.8443106536464487e-21,-2.5840615055320675e-20,-0.2501610274797589,-2.7083389842945504e-35,1.925929944387236e-34,-0.4627199999999996,0,70,255.0,255.0,255.0
12,0.6000000000000001,4.5,3.0,-0.0780094486904393,2.1879312720357274e-21,-1.9877396196400498e-20,-0.27309740575366065,-2.625517526442881e-20,2.385287543568066e-19,-0.45473513095607254,0,70,255.0,255.0,255.0
13,0.65,4.5,3.0,-0.0922294108630491,2.1879312720357188e-22,-1.987739619640045e-21,-0.2956345405753661,-5.251035052885753e-20,4.770575087136125e-19,-0.4467502619121455,0,70,255.0,255.0,255.0
14,0.7000000000000001,4.5,3.0,-0.10756624869043929,-3.0631037808500273e-21,2.782835467496076e-20,-0.3177724319448752,-7.876552579328631e-20,7.155862630704188e-19,-0.4387653928682185,0,70,255.0,255.0,255.0
15,0.75,4.5,3.0,-0.124,-7.657759452125053e-21,6.957088668740181e-20,-0.3395110798621879,-1.0502070105771503e-19,9.541150174272249e-19,-0.43078052382429144,0,70,255.0,255.0,255.0
16,0.8,4.5,3.0,-0.1415121123572093,-1.0414552854890072e-20,9.461640589486648e-20,-0.3609350686125756,-5.251035052885677e-21,4.7705750871360454e-20,-0.4261790261912144,0,70,255.0,255.0,255.0
17,0.8500000000000001,4.5,3.0,-0.16008967227989668,-8.182862957413622e-21,7.434146177453785e-20,-0.3821289824813094,9.451863095194368e-20,-8.58703515684504e-19,-0.42157752855813735,0,70,255.0,255.0,255.0
18,0.9,4.5,3.0,-0.17972117602397936,-9.626897596957169e-22,8.746054326416171e-21,-0.4030928214683893,1.9428829695677282e-19,-1.7651127822403664e-18,-0.4169760309250603,0,70,255.0,255.0,255.0
19,0.9500000000000001,4.5,3.0,-0.20039511984537475,1.1245966738263672e-20,-1.0216981644949888e-19,-0.4238265855738154,2.940579629616022e-19,-2.6715220487962312e-18,-0.41237453329198326,0,70,255.0,255.0,255.0
20,1.0,4.5,3.0,-0.2221,2.8443106536464485e-20,-2.5840615055320673e-19,-0.44433027479758763,3.9382762896643136e-19,-3.577931315352093e-18,-0.4077730356589071,0,70,255.0,255.0,255.0
21,1.05,4.5,3.0,-0.24482282622594312,3.8813900765913846e-20,-3.5262500852414516e-19,-0.46451469806993884,2.100414021154266e-20,-1.9082300348544182e-19,-0.39960389523514184,0,70,255.0,255.0,255.0
22,1.1,4.5,3.0,-0.26854466218997414,3.054352055761875e-20,-2.774884509017509e-19,-0.48429066432110185,-3.5181934854334604e-19,3.1962853083812093e-18,-0.39143475481137663,0,70,255.0,255.0,255.0
23,1.1500000000000001,4.5,3.0,-0.2932450850410336,3.631965911579198e-21,-3.299647768602401e-20,-0.5036581735510766,-7.246428372982348e-19,6.5833936202478605e-18,-0.38326561438761136,0,70,255.0,255.0,255.0
24,1.2000000000000002,4.5,3.0,-0.31890367192806196,-4.192076317220478e-20,3.808509111230355e-19,-0.522617225759863,-1.0974663260531235e-18,9.970501932114512e-18,-0.3750964739638461,0,70,255.0,255.0,255.0
25,1.25,4.5,3.0,-0.3455,-1.0611466669373288e-19,9.64053715525425e-19,-0.5411678209474611,-1.4702898148080104e-18,1.335761024398115e-17,-0.366927333540076,0,70,255.0,255.0,255.0
26,1.3,4.5,3.0,-0.37301498273901823,-1.4484105020876531e-19,1.3158836282017144e-18,-0.5593901391076684,-7.876552579328526e-20,7.155862630704103e-19,-0.3619653928682176,0,70,255.0,255.0,255.0
27,1.35,4.5,3.0,-0.401434878960207,-1.139912192730614e-19,1.0356123418324663e-18,-0.577364360234283,1.3127587632214399e-18,-1.192643771784033e-17,-0.3570034521963592,0,70,255.0,255.0,255.0
28,1.4000000000000001,4.5,3.0,-0.43074728381188665,-1.3565173886621164e-20,1.2323985641768018e-19,-0.5950904843273044,2.704283052236165e-18,-2.4568461698751067e-17,-0.3520415115245008,0,70,255.0,255.0,255.0
29,1.4500000000000002,4.5,3.0,-0.4609397924423776,1.5643708595055538e-19,-1.4212338280426433e-18,-0.612568511386733,4.09580734125089e-18,-3.721048567966181e-17,-0.3470795708526424,0,70,255.0,255.0,255.0
30,1.5,4.5,3.0,-0.492,3.9601556023846705e-19,-3.597808711548494e-18,-0.6297984414125685,5.487331630265611e-18,-4.985250966057251e-17,-0.34211763018077956,0,70,255.0,255.0,255.0
31,1.55,4.5,3.0,-0.5239148428179841,5.405503000691474e-19,-4.9109095042827125e-18,-0.6467407454993876,2.94057962961598e-19,-2.6715220487961885e-18,-0.33557453329198433,0,70,255.0,255.0,255.0
32,1.6,4.5,3.0,-0.5566686219691981,4.2542135653462697e-19,-3.864960916428113e-18,-0.6633558947417669,-4.899215704342415e-18,4.450946556298013e-17,-0.3290314364031891,0,70,255.0,255.0,255.0
33,1.6500000000000001,4.5,3.0,-0.5902449797114202,5.062872963490551e-20,-4.5996294798469535e-19,-0.6796438891397065,-1.0092489371646429e-17,9.169045317475645e-17,-0.3224883395143939,0,70,255.0,255.0,255.0
34,1.7000000000000002,4.5,3.0,-0.6246275583024282,-5.838275806300168e-19,5.304084401047539e-18,-0.6956047286932063,-1.5285763038950442e-17,1.3887144078653277e-16,-0.31594524262559864,0,70,255.0,255.0,255.0
35,1.75,4.5,3.0,-0.6598,-1.4779475742601354e-18,1.3427181130668551e-17,-0.7112384134022662,-2.0479036706254425e-17,1.8605242839830882e-16,-0.3094021457368026,0,70,255.0,255.0,255.0
36,1.8,4.5,3.0,-0.6957456459890456,-2.0173601500678242e-18,1.832775438892913e-17,-0.7265268788947824,-1.097466326053102e-18,9.970501932114319e-18,-0.3021364739638418,0,70,255.0,255.0,255.0
37,1.85,4.5,3.0,-0.7324466331630008,-1.5876942068654452e-18,1.4424231323879983e-17,-0.7414520607986504,1.828410405414822e-17,-1.6611142453408018e-16,-0.2948708021908811,0,70,255.0,255.0,255.0
38,1.9000000000000001,4.5,3.0,-0.7698847973424333,-1.8894974465300043e-19,1.7166119355210943e-18,-0.7560139591138705,3.766567443434955e-17,-3.4219335100027467e-16,-0.2876051304179203,0,70,255.0,255.0,255.0
39,1.9500000000000002,4.5,3.0,-0.8080419743479106,2.1788732365695117e-18,-1.9795103776147512e-17,-0.7702125738404425,5.704724481455087e-17,-5.182752774664691e-16,-0.2803394586449595,0,70,255.0,255.0,255.0
40,2.0,4.5,3.0,-0.8469,5.515774736802074e-18,-5.011091581112571e-17,-0.7840479049783664,7.64288151947521e-17,-6.943572039326629e-16,-0.27307378687200057,0,70,255.0,255.0,255.0
41,2.0500000000000003,4.5,3.0,-0.8864417732258338,7.52889030020215e-18,-6.840010805143384e-17,-0.7975837389214825,4.095807341250505e-18,-3.721048567965828e-17,-0.26835957085264006,0,70,255.0,255.0,255.0
42,2.1,4.5,3.0,-0.9266544453787988,5.9253554709271556e-18,-5.383196437909183e-17,-0.8108838620636305,-6.823720051225045e-17,6.199362325733407e-16,-0.26364535483327955,0,70,255.0,255.0,255.0
43,2.15,4.5,3.0,-0.967526230918847,7.051702489771303e-19,-6.406484794099964e-18,-0.8239482744048103,-1.4057020836575142e-16,1.2770829508263396e-15,-0.25893113881391905,0,70,255.0,255.0,255.0
44,2.2,4.5,3.0,-1.0090453443059304,-8.131665365648035e-18,7.387633070354249e-17,-0.8367769759450223,-2.12903216219253e-16,1.934229669079344e-15,-0.25421692279455854,0,70,255.0,255.0,255.0
45,2.25,4.5,3.0,-1.0512,-2.0585151372948163e-17,1.870164821138343e-16,-0.8493699666842662,-2.8523622407275393e-16,2.5913763873323428e-15,-0.24950270677519804,0,70,255.0,255.0,255.0
46,2.3000000000000003,4.5,3.0,-1.0939768611076202,-2.809820105074078e-17,2.5527267781680626e-16,-0.8616341654192863,-1.5285763038948954e-17,1.3887144078651914e-16,-0.2410652426256014,0,70,255.0,255.0,255.0
47,2.35,4.5,3.0,-1.137356385321804,-2.2113727676843175e-17,2.0090362619248732e-16,-0.8734764909468264,2.5466469799485365e-16,-2.3136335057592824e-15,-0.2326277784760048,0,70,255.0,255.0,255.0
48,2.4000000000000004,4.5,3.0,-1.181317478982178,-2.6317312512552643e-18,2.3909327240876598e-17,-0.8848969432668867,5.246151590286586e-16,-4.766138452305107e-15,-0.22419031432640815,0,70,255.0,255.0,255.0
49,2.45,4.5,3.0,-1.2258390484283679,3.0347788226022606e-17,-2.7571021903802254e-16,-0.8958955223794672,7.945656200624612e-16,-7.218643398850908e-15,-0.21575285017681156,0,70,255.0,255.0,255.0
50,2.5,4.5,3.0,-1.2709,7.682483075499057e-17,-6.979550126442115e-16,-0.9064722282845679,1.064516081096264e-15,-9.67114834539671e-15,-0.20731538602721677,0,70,255.0,255.0,255.0
51,2.5500000000000003,4.5,3.0,-1.3164811823436864,1.0486391390276096e-16,-9.52690603215791e-16,-0.9167435994013724,5.704724481454542e-17,-5.182752774664204e-16,-0.203539458644963,0,70,255.0,255.0,255.0
52,2.6,4.5,3.0,-1.3625712133339856,8.252955523644555e-17,-7.497825403908576e-16,-0.9268261741490642,-9.50421591467164e-16,8.634597790463788e-15,-0.1997635312627093,0,70,255.0,255.0,255.0
53,2.6500000000000004,4.5,3.0,-1.4091606531524412,9.821754756043985e-18,-8.923082416940709e-17,-0.9367199525276434,-1.9578904277488827e-15,1.7787470858394078e-14,-0.19598760388045552,0,70,255.0,255.0,255.0
54,2.7,4.5,3.0000000000000004,-1.4562400619805977,-1.132594875384424e-16,1.028964545448548e-15,-0.9464249345371097,-2.965359264030592e-15,2.6940343926324286e-14,-0.1922116764982018,0,70,255.0,255.0,255.0
55,2.75,4.5,3.0,-1.5038,-2.8671417164701414e-16,2.6048035684630116e-15,-0.9559411201774635,-3.972828100312302e-15,3.60932169942545e-14,-0.18843574911595162,0,70,255.0,255.0,255.0
56,2.8000000000000003,4.5,3.0,-1.5518288095176345,-3.913574545603031e-16,3.555489735046358e-15,-0.9651354369752261,-2.1290321621923283e-16,1.9342296690791673e-15,-0.17933692279455501,0,70,255.0,255.0,255.0
57,2.85,4.5,3.0000000000000004,-1.6003059613422548,-3.080044932689391e-16,2.798226535370944e-15,-0.973874812456919,3.5470216678738032e-15,-3.2224757656095863e-14,-0.1702380964731585,0,70,255.0,255.0,255.0
58,2.9000000000000004,4.5,3.0000000000000004,-1.6492087084080584,-3.6655287772920776e-17,3.3301396943675365e-16,-0.9821592466225421,7.306946551966872e-15,-6.638374498127121e-14,-0.16113927015176188,0,70,255.0,255.0,255.0
59,2.95,4.5,3.0000000000000004,-1.6985143036492416,4.2269016192774703e-16,-3.8401479627561675e-15,-0.9899887394720952,1.1066871436059908e-14,-1.0054273230644623e-13,-0.15204044383036536,0,70,255.0,255.0,255.0
60,3.0,4.5,3.0,-1.7482,1.070031855833066e-15,-9.721259261207835e-15,-0.9973632910055785,1.4826796320152945e-14,-1.347017196316213e-13,-0.14294161750896883,0,70,255.0,255.0,255.0
61,3.0500000000000003,4.5,2.9999999999999996,-1.798245179585777,1.4605659043384513e-15,-1.3269268336969644e-14,-1.004410652697723,7.945656200623885e-16,-7.218643398850236e-15,-0.13895285017680725,0,70,255.0,255.0,255.0
62,3.1,4.5,2.9999999999999987,-1.8486377412969957,1.1494884178393107e-15,-1.0443123601092918e-14,-1.0112585760232593,-1.3237665080028045e-14,1.2026443283391968e-13,-0.1349640828446457,0,70,255.0,255.0,255.0
63,3.1500000000000004,4.5,2.9999999999999987,-1.8993677132153264,1.367993963356396e-16,-1.2428250535776079e-15,-1.0179070609821874,-2.7269895780118604e-14,2.4774750906669075e-13,-0.13097531551248412,0,70,255.0,255.0,255.0
64,3.2,4.5,2.999999999999999,-1.9504251234224377,-1.5775011601725459e-15,1.4331627305576118e-14,-1.0243561075745078,-4.1302126480209036e-14,3.7523058529946066e-13,-0.1269865481803226,0,70,255.0,255.0,255.0
65,3.25,4.5,3.0,-2.0018,-3.99341325168525e-15,3.628023347636833e-14,-1.0306057158002198,-5.533435718029947e-14,5.027136615322305e-13,-0.1229977808481646,0,70,255.0,255.0,255.0
66,3.3000000000000003,4.5,3.000000000000002,-2.053480872139259,-5.450906162793502e-15,4.952158361283221e-14,-1.0365659522338795,-2.9653592640303076e-15,2.6940343926321626e-14,-0.11541167649821733,0,70,255.0,255.0,255.0
67,3.35,4.5,3.0000000000000044,-2.105450273469763,-4.289949178088304e-15,3.89742678690007e-14,-1.0421468834500414,4.94036386522384e-14,-4.48832973679583e-13,-0.10782557214827014,0,70,255.0,255.0,255.0
68,3.4000000000000004,4.499999999999999,3.0000000000000058,-2.1576892387306383,-5.105422975696357e-16,4.638286244873645e-15,-1.0473485094487063,1.0177263656850755e-13,-9.24606291285492e-13,-0.10023946779832288,0,70,255.0,255.0,255.0
69,3.45,4.5,3.0000000000000044,-2.2101788026610087,5.887314478762436e-15,-5.3486361259548364e-14,-1.052170830229874,1.5414163448477626e-13,-1.4003796088913964e-12,-0.09265336344837569,0,70,255.0,255.0,255.0
70,3.5,4.5,3.0,-2.2629,1.4903621150907933e-14,-1.3539967464426548e-13,-1.056613845793544,2.065106324010449e-13,-1.876152926497301e-12,-0.0850672590984356,0,70,255.0,255.0,255.0
71,3.5500000000000003,4.500000000000001,2.999999999999992,-2.3158345318571887,2.0343058746835555e-14,-1.848170661143592e-13,-1.0607175383667637,1.1066871436058869e-14,-1.0054273230643652e-13,-0.07908044383035848,0,70,255.0,255.0,255.0
72,3.6,4.500000000000002,2.999999999999983,-2.3689667648239534,1.6010308294513905e-14,-1.4545394787490993e-13,-1.0645218901765796,-1.8437688952892545e-13,1.6750674618844122e-12,-0.0730936285622814,0,70,255.0,255.0,255.0
73,3.6500000000000004,4.5000000000000036,2.9999999999999782,-2.4222817318621233,1.905369793942907e-15,-1.7310319925916996e-14,-1.068026901222992,-3.798206504939115e-13,3.4506776560752767e-12,-0.06710681329420427,0,70,255.0,255.0,255.0
74,3.7,4.500000000000002,2.999999999999983,-2.475764465933529,-2.197175675487718e-14,1.996138177326173e-13,-1.0712325715060003,-5.752644114588958e-13,5.2262878502661255e-12,-0.0611199980261272,0,70,255.0,255.0,255.0
75,3.75,4.5,3.0,-2.5294,-5.562107135194648e-14,5.053184651006936e-13,-1.0741389010256046,-7.707081724238801e-13,7.001898044456973e-12,-0.055133182758050125,0,70,255.0,255.0,255.0
76,3.8000000000000003,4.4999999999999964,3.0000000000000315,-2.5831730004319873,-7.592132882454871e-14,6.897466808446046e-13,-1.0767238942990638,-4.130212648020502e-14,3.7523058529942385e-13,-0.04826654818032271,0,70,255.0,255.0,255.0
77,3.85,4.499999999999994,3.0000000000000635,-2.637066667234425,-5.97512839999673e-14,5.428415236306391e-13,-1.0789655558436368,6.881039194634636e-13,-6.251436873858065e-12,-0.04139991360259535,0,70,255.0,255.0,255.0
78,3.9000000000000004,4.499999999999991,3.00000000000008,-2.69106383382087,-7.110936878201955e-15,6.460299345879452e-14,-1.0808638856593236,1.4175099654071386e-12,-1.2878104333015615e-11,-0.03453327902486793,0,70,255.0,255.0,255.0
79,3.95,4.499999999999993,3.0000000000000644,-2.745147333604876,8.199971254074633e-14,-7.449689096709203e-13,-1.0824188837461237,2.146916011350807e-12,-1.9504771792173103e-11,-0.027666644447140575,0,70,255.0,255.0,255.0
80,4.0,4.5,3.0,-2.7993,2.0758066425687797e-13,-1.885874185758509e-12,-1.0836305501040373,2.876322057294475e-12,-2.613143925133059e-11,-0.02080000986941144,0,70,255.0,255.0,255.0
81,4.05,4.500000000000013,2.999999999999883,-2.853505466414863,2.8334225655135923e-13,-2.574169657264058e-12,-1.0845468844369823,1.5414163448478543e-13,-1.4003796088914798e-12,-0.01585336344838739,0,70,255.0,255.0,255.0
82,4.1000000000000005,4.500000000000026,2.9999999999997633,-2.9077505662383483,2.2299482770535417e-13,-2.0259121466476355e-12,-1.085215886448876,-2.5680387883249525e-12,2.333068003354807e-11,-0.010906717027363247,0,70,255.0,255.0,255.0
83,4.15,4.500000000000033,2.9999999999997016,-2.9620229328544005,2.6538377718865e-14,-2.411016539092604e-13,-1.0856375561397187,-5.290219211134642e-12,4.806173967598718e-11,-0.005960070606339194,0,70,255.0,255.0,255.0
84,4.2,4.500000000000027,2.9999999999997597,-3.0163101996469686,-3.0602709340810814e-13,2.7802618209510656e-12,-1.08581189350951,-8.012399633944331e-12,7.279279931842629e-11,-0.0010134241853151406,0,70,255.0,255.0,255.0
85,4.25,4.5,3.0,-3.0706,-7.747015856755653e-13,7.038178277933342e-12,-1.0857388985582503,-1.0734580056754019e-11,9.752385896086539e-11,0.003933222235703582,0,70,255.0,255.0,255.0
86,4.3,4.499999999999952,3.000000000000435,-3.12487873390856,-1.057447697380888e-12,9.606931948211627e-12,-1.0853445679530105,-5.752644114589308e-13,5.226287850266435e-12,0.011840001973888875,0,70,255.0,255.0,255.0
87,4.3500000000000005,4.499999999999903,3.0000000000008837,-3.179127867812187,-8.322280268214497e-13,7.560807062959905e-12,-1.0845548983608615,9.584051233836338e-12,-8.707128326033415e-11,0.019746781712074307,0,70,255.0,255.0,255.0
88,4.4,4.499999999999877,3.0000000000011147,-3.233327634761532,-9.90425739972582e-14,8.998036221782482e-13,-1.0833698897818032,1.974336687913143e-11,-1.7936885437093311e-10,0.0276535614502596,0,70,255.0,255.0,255.0
89,4.45,4.499999999999901,3.000000000000897,-3.287458267807251,1.1421086610916861e-12,-1.0376078374133334e-11,-1.0817895422158355,2.9902682524426516e-11,-2.7166642548153203e-10,0.035560341188444894,0,70,255.0,255.0,255.0
90,4.5,4.5,3.0,-3.3415,2.8912256784453833e-12,-2.6266838925974858e-11,-1.0798138556629584,4.006199816972161e-11,-3.639639965921309e-10,0.043467120926635516,0,70,255.0,255.0,255.0
91,4.55,4.5000000000001785,2.9999999999983755,-3.3954339979508954,3.946448532972193e-12,-3.5853558135582453e-11,-1.0774988437509712,2.146916011350938e-12,-1.9504771792174256e-11,0.049133355552854835,0,70,255.0,255.0,255.0
92,4.6000000000000005,4.500000000000364,2.9999999999967017,-3.4492451625129092,3.1059172795804446e-12,-2.8217316105191985e-11,-1.0749005201076727,-3.5768166147020404e-11,3.249544530077885e-10,0.05479959017907425,0,70,255.0,255.0,255.0
93,4.65,4.500000000000457,2.9999999999958407,-3.5029193280994746,3.696319182701678e-13,-3.3581128348037258e-12,-1.0720188847330636,-7.368324830539106e-11,6.694136778077451e-10,0.06046582480529356,0,70,255.0,255.0,255.0
94,4.7,4.500000000000369,2.999999999996653,-3.5564423291240264,-4.262407550958635e-12,3.872405167558228e-11,-1.0688539376271435,-1.1159833046376174e-10,1.0138729026077018e-09,0.06613205943151287,0,70,255.0,255.0,255.0
95,4.75,4.5,3.0,-3.6098,-1.0790201128105968e-11,9.802917742596608e-11,-1.0654056787899124,-1.4951341262213243e-10,1.3583321274076585e-09,0.07179829405773575,0,70,255.0,255.0,255.0
96,4.800000000000001,4.499999999999333,3.0000000000060636,-3.6629780742878584,-1.472834643450789e-11,1.3380730059411826e-10,-1.0616680570431023,-8.012399633942305e-12,7.279279931840791e-11,0.07770657581466915,0,70,255.0,255.0,255.0
97,4.8500000000000005,4.499999999998645,3.0000000000123093,-3.7159618821361797,-1.1591441091500329e-11,1.0530845735780809e-10,-1.0576350212084453,1.3348861335424528e-10,-1.2127465287708196e-09,0.08361485757160245,0,70,255.0,255.0,255.0
98,4.9,4.499999999998291,3.000000000015523,-3.768736652840572,-1.3794850990834025e-12,1.2532647717036697e-11,-1.053306571285942,2.749896263424329e-10,-2.498285856860047e-09,0.08952313932853576,0,70,255.0,255.0,255.0
99,4.95,4.499999999998624,3.0000000000124913,-3.8212876156966424,1.5907521542742866e-11,-1.445201283281958e-10,-1.048682707275592,4.164906393306205e-10,-3.783825184949275e-09,0.09543142108546905,0,70,255.0,255.0,255.0
100,5.0,4.5,3.0,-3.8736,4.026957883397849e-11,-3.6584987077788946e-10,-1.043763429177395,5.579916523188079e-10,-5.0693645130385016e-09,0.10133970284240768,0,70,255.0,255.0,255.0
101,5.050000000000001,4.5000000000024905,2.9999999999773697,-3.9256585048976733,5.4966937205059374e-11,-4.993756442408904e-10,-1.038516928076623,2.9902682524418865e-11,-2.716664254814628e-10,0.10852034118845753,0,70,255.0,255.0,255.0
102,5.1000000000000005,4.500000000005056,2.9999999999540607,-3.977445708942375,4.325984708642087e-11,-3.930165133260401e-10,-1.0329113950585491,-4.981862872699608e-10,4.5260316620754916e-09,0.11570097953450728,0,70,255.0,255.0,255.0
103,5.15,4.500000000006377,2.9999999999420663,-4.02894366053824,5.14830847806346e-12,-4.677247803334306e-11,-1.0269468301231726,-1.0262752570643404e-09,9.323729749632444e-09,0.12288161788055701,0,70,255.0,255.0,255.0
104,5.2,4.500000000005132,2.9999999999533813,-4.080134408089402,-5.93676786200128e-11,5.39356461637201e-10,-1.0206232332704934,-1.55436422685872e-09,1.4121427837189399e-08,0.13006225622660675,0,70,255.0,255.0,255.0
105,5.25,4.5,3.0,-4.131,-1.5028811420780797e-10,1.3653703056855917e-09,-1.0139406045005117,-2.0824531966530996e-09,1.891912592474635e-08,0.13724289457266003,0,70,255.0,255.0,255.0
106,5.300000000000001,4.499999999990704,3.000000000084457,-4.181523106121452,-2.0513940238572958e-10,1.8636952763694436e-09,-1.006936230650407,-1.115983304637337e-10,1.0138729026074445e-09,0.14293205943152223,0,70,255.0,255.0,255.0
107,5.3500000000000005,4.499999999981129,3.000000000171448,-4.231688882094326,-1.6144794725418315e-10,1.4667575959463527e-09,-0.9996473985573595,1.8592565357255975e-09,-1.6891380119531143e-08,0.14862122429038435,0,70,255.0,255.0,255.0
108,5.4,4.499999999976202,3.0000000002162115,-4.281483105006473,-1.9213748813170547e-11,1.7455726441633555e-10,-0.9920741082213688,3.830111401914928e-09,-3.479663314166973e-08,0.15431038914924647,0,70,255.0,255.0,255.0
109,5.45,4.499999999980849,3.000000000173983,-4.330891551945747,2.2156319293730828e-10,-2.0129057182206077e-09,-0.9842163596424348,5.800966268104258e-09,-5.270188616380832e-08,0.15999955400810856,0,70,255.0,255.0,255.0
110,5.5,4.5,3.0,-4.3799,5.608828779972534e-10,-5.0956313519644776e-09,-0.9760741528205579,7.77182113429359e-09,-7.060713918594691e-08,0.16568871886697245,0,70,255.0,255.0,255.0
111,5.550000000000001,4.500000000034694,2.999999999684803,-4.428493870616521,7.655906723378588e-10,-6.955405461236886e-09,-0.9676261493217468,4.1649063933051686e-10,-3.783825184948337e-09,0.17223142108546385,0,70,255.0,255.0,255.0
112,5.6000000000000005,4.500000000070429,2.9999999993601456,-4.476657162680327,6.025319419303118e-10,-5.474013870459373e-09,-0.9588510107120114,-6.938839855632426e-09,6.303948881604907e-08,0.17877412330395515,0,70,255.0,255.0,255.0
113,5.65,4.500000000088819,2.9999999991930872,-4.524373519435873,7.170668677461878e-11,-6.514565796320012e-10,-0.9497487369913514,-1.4294170350595371e-08,1.2986280281704644e-07,0.18531682552244644,0,70,255.0,255.0,255.0
114,5.7,4.500000000071472,2.999999999350686,-4.571626584127612,-8.268850931292202e-10,7.512266411245226e-09,-0.9403193281597668,-2.1649500845558314e-08,1.9668611681804384e-07,0.19185952774093773,0,70,255.0,255.0,255.0
115,5.75,4.5,3.0,-4.6184,-2.0932433977812054e-09,1.9017155102172318e-08,-0.9305627842172576,-2.9004831340521257e-08,2.6350943081904127e-07,0.1984022299594317,0,70,255.0,255.0,255.0
116,5.800000000000001,4.49999999987052,3.000000001176333,-4.66467741141247,-2.8572232869657056e-09,2.5957926568578095e-08,-0.9204791720626063,-1.5543642268583284e-09,1.412142783718583e-08,0.20494225622661402,0,70,255.0,255.0,255.0
117,5.8500000000000005,4.499999999737153,3.0000000023879694,-4.7104424671843725,-2.2486798204670636e-09,2.042929788589114e-08,-0.9100685585945961,2.589610288680411e-08,-2.3526657514466516e-07,0.21148228249379625,0,70,255.0,255.0,255.0
118,5.9,4.499999999668527,3.0000000030114395,-4.75567881725004,-2.676129982853036e-10,2.4312690541116742e-09,-0.8993309438132268,5.334657000046655e-08,-4.846545781265161e-07,0.21802230876097844,0,70,255.0,255.0,255.0
119,5.95,4.499999999733267,3.0000000024232727,-4.800370111543805,3.085977179579572e-09,-2.8036159926760315e-08,-0.8882663277184983,8.0797037114129e-08,-7.340425811083671e-07,0.22456233502816067,0,70,255.0,255.0,255.0
120,6.0,4.5,3.0,-4.8445,7.812090713127568e-09,-7.097298905672479e-08,-0.8768747103104106,1.0824750422779142e-07,-9.83430584090218e-07,0.23110236129534378,0,70,255.0,255.0,255.0
121,6.050000000000001,4.500000000483229,2.999999995609866,-4.888052483733605,1.0663302475524963e-08,-9.687630081307548e-08,-0.8651771624278239,5.800966268102772e-09,-5.27018861637951e-08,0.23679955400811722,0,70,255.0,255.0,255.0
122,6.1000000000000005,4.5000000009809575,2.9999999910879773,-4.931012968582189,8.392187339937941e-09,-7.624317767310516e-08,-0.8531947549095987,-9.664557169158405e-08,8.780268117626114e-07,0.24249674672089055,0,70,255.0,255.0,255.0
123,6.15,4.500000001237074,2.999999988761155,-4.973367211563971,9.987453063665952e-10,-9.073619636814656e-09,-0.840927487755735,-1.9909210965127087e-07,1.808755509689018e-06,0.2481939394336639,0,70,255.0,255.0,255.0
124,6.2,4.50000000099546,2.9999999909562223,-5.015100969697168,-1.1517023625189076e-08,1.0463237329579596e-07,-0.8283753609662325,-3.0153864761095767e-07,2.7394842076154243e-06,0.2538911321464372,0,70,255.0,255.0,255.0
125,6.25,4.5,3.0,-5.0562,-2.9155119454729066e-08,2.6487480112472683e-07,-0.8155383745410915,-4.039851855706445e-07,3.6702129055418315e-06,0.2595883248592079,0,70,255.0,255.0,255.0
126,6.300000000000001,4.499999998196569,3.0000000163842033,-5.0966494536531135,-3.979598661513415e-08,3.615472766837239e-07,-0.8023801782260881,-2.1649500845552888e-08,1.9668611681799432e-07,0.26673952774091764,0,70,255.0,255.0,255.0
127,6.3500000000000005,4.499999996339015,3.000000033260122,-5.136432058486874,-3.1320069539284706e-08,2.8454341280652944e-07,-0.7888644217669996,3.6068618387953197e-07,-3.276840671905781e-06,0.2738907306226273,0,70,255.0,255.0,255.0
128,6.4,4.499999995383176,3.000000041943939,-5.175529936494078,-3.727368227181081e-09,3.386320949314688e-08,-0.7749911051638255,7.430218686046167e-07,-6.750367460629556e-06,0.2810419335043369,0,70,255.0,255.0,255.0
129,6.45,4.499999996284891,3.0000000337518378,-5.213925209667522,4.2982117321176704e-08,-3.9049333325642373e-07,-0.760760228416566,1.1253575533297016e-06,-1.022389424935333e-05,0.28819313638604654,0,70,255.0,255.0,255.0
130,6.5,4.5,3.0,-5.2516,1.0880838710578869e-07,-9.885262154421826e-07,-0.7461717915252208,1.5076932380547863e-06,-1.3697421038077104e-05,0.29534433926775705,0,70,255.0,255.0,255.0
131,6.550000000000001,4.500000006730496,2.9999999388533207,-5.288536901653943,1.485206439850116e-07,-1.34931280592182e-06,-0.7312541246678229,8.079703711410834e-08,-7.340425811081799e-07,0.3013623350281535,0,70,255.0,255.0,255.0
132,6.6000000000000005,4.500000013662984,2.9999998758715347,-5.3247203974703154,1.1688809081720083e-07,-1.0619304735530124e-06,-0.7160355580224053,-1.3460991638265442e-06,1.2229335875860513e-05,0.30738033078854987,0,70,255.0,255.0,255.0
133,6.65,4.500000017230224,2.9999998434630886,-5.360135442459716,1.3910727602357674e-08,-1.2637921833577272e-07,-0.700516091588968,-2.772995364767197e-06,2.51927143328292e-05,0.3133983265489463,0,70,255.0,255.0,255.0
134,6.7,4.500000013864978,2.999999874036428,-5.394766991632745,-1.6041144565951784e-07,1.457340959729899e-06,-0.6846957253675108,-4.199891565707849e-06,3.81560927897979e-05,0.31941632230934264,0,70,255.0,255.0,255.0
135,6.75,4.5,3.0,-5.4286,-4.060784289684257e-07,3.6892300606440033e-06,-0.6685744593580338,-5.626787766648501e-06,5.111947124676658e-05,0.325434318069739,0,70,255.0,255.0,255.0
136,6.800000000000001,4.499999974881447,3.000000228202514,-5.461619739731116,-5.542865893249124e-07,5.035703947003556e-06,-0.6521713231026286,-3.0153864761088154e-07,2.739484207614727e-06,0.3306911321464612,0,70,255.0,255.0,255.0
137,6.8500000000000005,4.499999949009048,3.0000004632537385,-5.493812751631865,-4.3623229372951866e-07,3.963178481405521e-06,-0.6355053461433876,5.023710471426643e-06,-4.564050283153627e-05,0.33594794622318325,0,70,255.0,255.0,255.0
138,6.9,4.499999935695926,3.0000005842037063,-5.525165893667057,-5.191554218224965e-08,4.716536638499453e-07,-0.6185765284803104,1.034895959046417e-05,-9.402048987068727e-05,0.3412047602999053,0,70,255.0,255.0,255.0
139,6.95,4.499999948255202,3.00000047010245,-5.5556660238015,5.986636653168942e-07,-5.4388705056631715e-06,-0.6013848701133971,1.5674208709501693e-05,-0.00014240047690983827,0.3464615743766274,0,70,255.0,255.0,255.0
140,7.0,4.5,3.0,-5.5853,1.5155053287679141e-06,-1.376839402713383e-05,-0.5839303710426479,2.099945782853922e-05,-0.00019078046394898924,0.3517183884533468,0,70,255.0,255.0,255.0
141,7.050000000000001,4.500000093743713,2.9999991483366233,-5.614052139421594,2.068625713314638e-06,-1.87935029820924e-05,-0.5660605829216624,1.1253575533294161e-06,-1.0223894249350744e-05,0.3630731363860601,0,70,255.0,255.0,255.0
142,7.1000000000000005,4.500000190300821,2.9999982711135096,-5.641896596002223,1.6280410841008743e-06,-1.4790783452069074e-05,-0.5476230574040416,-1.8748742721880035e-05,0.00017033267545028455,0.3744278843187732,0,70,255.0,255.0,255.0
143,7.15,4.500000239986072,2.999997819722086,-5.668804982872055,1.9375144112664083e-07,-1.7602354370640063e-06,-0.5286177944897853,-3.862284299708948e-05,0.00035088924514991985,0.3857826322514863,0,70,255.0,255.0,255.0
144,7.2,4.500000193114215,2.999998245553774,-5.694748913161257,-2.2342432156080607e-06,2.0298141062922785e-05,-0.5090447941788933,-5.849694327229894e-05,0.0005314458148495552,0.3971373801841994,0,70,255.0,255.0,255.0
145,7.25,4.5,3.0,-5.7197,-5.655942886103231e-06,5.138434604789132e-05,-0.4889040564713656,-7.837104354750837e-05,0.0007120023845491904,0.4084921281169098,0,70,255.0,255.0,255.0
146,7.300000000000001,4.499999650143699,3.000003178450995,-5.743633302582508,-7.720216263933638e-06,7.013830798136605e-05,-0.46840234521070967,-4.199891565706792e-06,3.815609278978824e-05,0.41157632230931546,0,70,255.0,255.0,255.0
147,7.3500000000000005,4.499999289787667,3.000006452292222,-5.766537664359244,-6.075932042673978e-06,5.519995532687078e-05,-0.44774642424043387,6.997126041609349e-05,-0.000635690198969602,0.41466051650172103,0,70,255.0,255.0,255.0
148,7.4,4.4999991043597865,3.0000081369079514,-5.788405374844724,-7.230902223243181e-07,6.5692880844061e-06,-0.42693629356053775,0.00014414241239789376,-0.0013095364907289922,0.41774471069412655,0,70,255.0,255.0,255.0
149,7.45,4.4999992792879375,3.000006547682453,-5.8092287235534705,8.338309197115347e-06,-7.575369374602798e-05,-0.4059719531710213,0.000218313564379694,-0.0019833827824883824,0.42082890488653213,0,70,255.0,255.0,255.0
150,7.5,4.5,3.0,-5.829,2.110826621564501e-05,-0.00019176899016443144,-0.3848534030718846,0.0002924847163614943,-0.002657229074247772,0.4239130990789408,0,70,255.0,255.0,255.0
151,7.550000000000001,4.5000013056814945,2.9999873378593978,-5.847719450248371,2.8812239342419918e-05,-0.00030975972894347443,-0.3640580362354953,1.5674208709497736e-05,-0.0020624004769138815,0.4079015743766203,0,70,255.0,255.0,255.0
152,7.6000000000000005,4.500002650548512,2.9999695197176033,-5.865419146560801,2.267568708659504e-05,-0.0003980090378558212,-0.34406324563422236,-0.00026113629894249383,-0.001467571879580001,0.3918900496743,0,70,255.0,255.0,255.0
153,7.65,4.5000033425747805,2.99994803264611,-5.882139117749046,2.6986094481706207e-06,-0.00045651691690147404,-0.3248690312680654,-0.0005379468065944855,-0.0008727432822461208,0.3758785249719798,0,70,255.0,255.0,255.0
154,7.7,4.500002689734033,2.999924363716411,-5.89791939262486,-3.1118993572853314e-05,-0.0004852833660804329,-0.3064753931370245,-0.0008147573142464772,-0.0002779146849122404,0.35986700026965956,0,70,255.0,255.0,255.0
155,7.75,4.5,2.9999,-5.9128,-7.87771219764768e-05,-0.0004843083853926979,-0.2888823312410996,-0.0010915678218984689,0.00031691391242164024,0.3438554755673393,0,70,255.0,255.0,255.0
156,7.800000000000001,4.499995127130323,2.999875470111413,-5.926818496424005,-0.00010752874110574604,-0.0005110993922108072,-0.27194150984731064,-5.849694327228418e-05,-0.0013885541851459953,0.3337773801842082,0,70,255.0,255.0,255.0
157,7.8500000000000005,4.499990108018289,2.9998474688373644,-5.94000254939755,-8.462681630370618e-05,-0.0006231638039072967,-0.25550459322267854,0.0009745739353538819,-0.0030940222827136005,0.32369928480107735,0,70,255.0,255.0,255.0
158,7.9,4.499987525341092,2.999811732507608,-5.952377354159092,-1.0071347570358215e-05,-0.000820501620482166,-0.23957158136720302,0.002007644813980048,-0.004799490380281206,0.3136211894179464,0,70,255.0,255.0,255.0
159,7.95,4.49998996177593,2.9997639974519013,-5.96396810594709,0.00011613766509429793,-0.0011031128419354155,-0.22414247428088405,0.0030407156926062144,-0.006504958477848811,0.3035430940348155,0,70,255.0,255.0,255.0
160,8.0,4.5,2.9997,-5.9748,0.0002940002216902622,-0.0014709974682670449,-0.20921727196372158,0.00407378657123238,-0.008210426575416416,0.2934649986516842,0,70,255.0,255.0,255.0
161,8.05,4.500019785797212,2.9996163816949473,-5.984899364055607,0.0004973027250807695,-0.0018698427022145478,-0.19486392437526587,0.004058313564387797,-0.007743382782483476,0.28066890488653595,0,70,255.0,255.0,255.0
162,8.1,4.500049717378335,2.999513404932939,-5.994297055848998,0.0006998315781290406,-0.00224533574651539,-0.18115038147506807,0.004042840557543214,-0.007276338989550552,0.2678728111213881,0,70,255.0,255.0,255.0
163,8.15,4.500089756060853,2.9993922373234567,-6.003025065614585,0.0009015867808350894,-0.0025974766011696,-0.16807664326312718,0.0040273675506986295,-0.006809295196617612,0.2550767173562399,0,70,255.0,255.0,255.0
164,8.200000000000001,4.500139863162247,2.999254046475983,-6.011115383586782,0.0011025683331989092,-0.002926265266177161,-0.15564270973944372,0.004011894543854046,-0.006342251403684672,0.2422806235910916,0,70,255.0,255.0,255.0
165,8.25,4.5002,2.9991,-6.0186,0.0013027762352204927,-0.003231701741538065,-0.1438485809040181,0.003996421537009468,-0.005875207610751738,0.2294845298259438,0,70,255.0,255.0,255.0
166,8.3,4.500269729680828,2.9989310031087952,-6.025510447353567,0.001478317840789346,-0.0035295297989297596,-0.13266679265162765,0.0030252426857445627,-0.0060379146849158715,0.21778700026966666,0,70,255.0,255.0,255.0
167,8.35,4.50034702246837,2.9987469114308785,-6.03187642720646,0.0016053005037949496,-0.003835493210029649,-0.12206988087705148,0.002054063834479692,-0.006200621759079999,0.20608947071338993,0,70,255.0,255.0,255.0
168,8.4,4.500429450415499,2.998547318198564,-6.037727183382569,0.0016837242242373127,-0.004149591974837758,-0.11205784558028876,0.0010828849832147866,-0.006363328833244132,0.19439194115711278,0,70,255.0,255.0,255.0
169,8.450000000000001,4.500514585575083,2.9983318166441664,-6.043091959705786,0.00171358900211643,-0.004471826093354072,-0.10263068676133993,0.00011170613194988119,-0.006526035907408266,0.1826944116008356,0,70,255.0,255.0,255.0
170,8.5,4.5006,2.9981,-6.048,0.0016948948374323025,-0.004802195565578581,-0.09378840442020525,-0.000859472719314993,-0.00668874298157239,0.17099688204455932,0,70,255.0,255.0,255.0
171,8.55,4.5006844954794785,2.99785080586987,-6.052480446530125,0.0017014259117642692,-0.005180038102064218,-0.0855249050182209,0.0011207156925936582,-0.008424958477852884,0.15954309403480996,0,70,255.0,255.0,255.0
172,8.6,4.5007717927481865,2.997580549343547,-6.056562035325164,0.0018069664066916644,-0.005644691413363863,-0.0778340950167243,0.003100904104502239,-0.010161173974133315,0.14808930602506098,0,70,255.0,255.0,255.0
173,8.65,4.500866842277158,2.9972848898822875,-6.060273400855139,0.0020115163222144956,-0.00619615549947755,-0.07071597441571488,0.005081092516410891,-0.01189738947041381,0.1366355180153116,0,70,255.0,255.0,255.0
174,8.700000000000001,4.500974594537419,2.996959486947352,-6.063643177590077,0.0023150756583327605,-0.006834430360405261,-0.06417054321519294,0.007061280928319542,-0.013633604966694302,0.12518173000556224,0,70,255.0,255.0,255.0
175,8.75,4.5011,2.9966,-6.0667,0.002717644415046444,-0.007559515996146972,-0.05819780141515867,0.009041469340228116,-0.015369820462974783,0.11372794199581354,0,70,255.0,255.0,255.0
176,8.8,4.501246688401263,2.9962033734117215,-6.069472566525932,0.0031399785121487057,-0.00829431779281345,-0.052801587275485895,0.007851894543862134,-0.014022251403683825,0.10212062359109435,0,70,255.0,255.0,255.0
177,8.85,4.501413006538884,2.9957716911949346,-6.071989831492886,0.0035028338694326564,-0.008961741136515353,-0.04798573905604925,0.0066623197474961916,-0.012674682344392918,0.09051330518637557,0,70,255.0,255.0,255.0
178,8.9,4.501595980475876,2.9953083222722863,-6.074280813196874,0.003806210486898321,-0.009561786027252732,-0.0437502567568484,0.005472744951130209,-0.011327113285101963,0.07890598678165639,0,70,255.0,255.0,255.0
179,8.950000000000001,4.501792636275244,2.9948166355664254,-6.076374529933908,0.0040501083645456855,-0.010094452465025565,-0.0400951403778835,0.004283170154764225,-0.009979544225811005,0.0672986683769372,0,70,255.0,255.0,255.0
180,9.0,4.502,2.9943,-6.0783,0.0042345275023747435,-0.010559740449833833,-0.03702038991915468,0.003093595358398267,-0.008631975166520103,0.05569134997221864,0,70,255.0,255.0,255.0
181,9.05,4.502215950915471,2.993760500483241,-6.080086887366147,0.004410660039633653,-0.011034690726682039,-0.034564745879828634,0.003951706131958013,-0.01036603590740785,0.04253441160082148,0,70,255.0,255.0,255.0
182,9.1,4.502441781096275,2.9931950858767142,-6.081767438703292,0.0046296981155705425,-0.011596344040574611,-0.032766948759072524,0.004809816905517728,-0.012100096648295535,0.029377473229424782,0,70,255.0,255.0,255.0
183,9.15,4.502679635819341,2.9925994210285665,-6.083374546357363,0.0048916417301854255,-0.012244700391511591,-0.03162699855688619,0.0056679276790774745,-0.01383415738918328,0.016220534858027623,0,70,255.0,255.0,255.0
184,9.200000000000001,4.502931660361605,2.991969170786946,-6.08494110267429,0.005196490883478297,-0.012979759779492958,-0.031144895273269736,0.006526038452637221,-0.015568218130071029,0.00306359648663046,0,70,255.0,255.0,255.0
185,9.25,4.5032,2.9913,-6.0865,0.005544245575449143,-0.013801522204518687,-0.03132063890822312,0.007384149226196915,-0.017302278870958726,-0.010093341884766183,0,70,255.0,255.0,255.0
186,9.3,4.503486307936847,2.9905882246553124,-6.0880830840094795,0.005905381329312485,-0.014670919300460014,-0.032091429205203255,0.007061280928336545,-0.017473604966693864,-0.02073826999443857,0,70,255.0,255.0,255.0
187,9.35,4.503790269076015,2.9898327652982073,-6.089718013693945,0.0062503736682827955,-0.015548882701188066,-0.033394465907666954,0.006738412630476187,-0.017644931062428995,-0.03138319810411058,0,70,255.0,255.0,255.0
188,9.4,4.504111076246761,2.9890331936134467,-6.091431401373671,0.0065792225923601,-0.016435412406702907,-0.03522974901561431,0.006415544332615816,-0.017816257158164137,-0.04202812621378297,0,70,255.0,255.0,255.0
189,9.450000000000001,4.504447922278337,2.9881890812857907,-6.093249859368932,0.006891928101544387,-0.017330508417004505,-0.037597278529045305,0.006092676034755447,-0.017987583253899275,-0.05267305432345536,0,70,255.0,255.0,255.0
190,9.5,4.5048,2.9873,-6.0952,0.007188490195835643,-0.01823417073209283,-0.040497054447959806,0.005769807736895102,-0.01815890934963446,-0.0633179824331272,0,70,255.0,255.0,255.0
191,9.55,4.5051668173371375,2.9863658008955096,-6.097308776595936,0.007487814643126593,-0.019129632071478747,-0.043949537299363996,0.00620317015474273,-0.017659544225801682,-0.07478133162303843,0,70,255.0,255.0,255.0
192,9.600000000000001,4.505549142599661,2.985387452930455,-6.099604506520929,0.007808807211309925,-0.02000012515467302,-0.04797518761026375,0.006636532572590358,-0.0171601791019689,-0.08624468081294967,0,70,255.0,255.0,255.0
193,9.65,4.505948059193617,2.9843662045176456,-6.102115848147954,0.008151467900385626,-0.020845649981675627,-0.052574005380658914,0.00706989499043797,-0.016660813978136138,-0.0977080300028605,0,70,255.0,255.0,255.0
194,9.700000000000001,4.506364650525048,2.983303304069891,-6.104871459849986,0.00851579671035372,-0.02166620655248663,-0.057745990610549795,0.007503257408285597,-0.016161448854303356,-0.10917137919277174,0,70,255.0,255.0,255.0
195,9.75,4.5068,2.9822,-6.1079,0.008901793641214182,-0.02246179486710596,-0.06349114329993602,0.007936619826133237,-0.01566208373047054,-0.12063472838268252,0,70,255.0,255.0,255.0
196,9.8,4.507255222714605,2.9810565717626485,-6.11123140960678,0.009311360098182911,-0.023290552413619825,-0.06988642159733788,0.008446038452615677,-0.017488218130083576,-0.13517640351338833,0,70,255.0,255.0,255.0
197,9.850000000000001,4.5077315605253405,2.979869422979972,-6.114900760222342,0.009746397486475763,-0.02421061668011434,-0.07700878365127505,0.008955457079098117,-0.019314352529696613,-0.14971807864409414,0,70,255.0,255.0,255.0
198,9.9,4.508230286978773,2.9786339883159707,-6.118944406034516,0.010206905806092717,-0.025221987666589476,-0.08485822946174722,0.00946487570558054,-0.021140486929309584,-0.16425975377479946,0,70,255.0,255.0,255.0
199,9.950000000000001,4.508752675621472,2.9773457024346466,-6.123398701231126,0.010692885057033813,-0.026324665373045297,-0.09343475902875495,0.00997429433206298,-0.02296662132892262,-0.17880142890550527,0,70,255.0,255.0,255.0
200,10.0,4.5093,2.976,-6.1283,0.011204335239299012,-0.027518649799481727,-0.10273837235229766,0.01048371295854543,-0.024792755728535426,-0.1933431040362108,0,70,255.0,255.0,255.0
201,10.05,4.509873091804445,2.974593512053896,-6.133679984976947,0.011714744964132598,-0.028732158274042702,-0.11248877631128916,0.009932676034797666,-0.02374758325390285,-0.19667305432344356,0,70,255.0,255.0,255.0
202,10.100000000000001,4.510471015298976,2.973127655149658,-6.139551652589702,0.012197602842778793,-0.029893408124872043,-0.12240567778464229,0.009381639111049904,-0.022702410779270276,-0.20000300461067635,0,70,255.0,255.0,255.0
203,10.15,4.511092392891285,2.9716050422184717,-6.145923327713984,0.012652908875237585,-0.03100239935196972,-0.13248907677235672,0.00883060218730216,-0.021657238304637737,-0.203332954897909,0,70,255.0,255.0,255.0
204,10.200000000000001,4.511735846989064,2.970028286191523,-6.152803335225511,0.013080663061509006,-0.032059131955335815,-0.14273897327443313,0.008279565263554396,-0.02061206583000516,-0.2066629051851418,0,70,255.0,255.0,255.0
205,10.25,4.5124,2.9684,-6.1602,0.013480865401593023,-0.033063605934970236,-0.15315536729087081,0.007728528339806681,-0.01956689335537254,-0.2099928554723749,0,70,255.0,255.0,255.0
206,10.3,4.513083610067617,2.9667229800217663,-6.168106250485433,0.01386166004529491,-0.03400481449021182,-0.16281447315749953,0.0075032574082685485,-0.018081448854290305,-0.17637137919276796,0,70,255.0,255.0,255.0
207,10.350000000000001,4.5137859782787535,2.9650007564213965,-6.17645342941885,0.014231191142419887,-0.0348717508203993,-0.17079250521014785,0.007277986476730416,-0.016596004353208075,-0.14274990291316103,0,70,255.0,255.0,255.0
208,10.4,4.5145065414560825,2.9632370428101438,-6.185157483109549,0.014589458692967948,-0.03566441492553262,-0.17708946344881565,0.007052715545192291,-0.015110559852125893,-0.10912842663355529,0,70,255.0,255.0,255.0
209,10.450000000000001,4.515244736422273,2.9614355527992604,-6.194134357866831,0.014936462696939113,-0.03638280680561188,-0.1817053478735033,0.006827444613654158,-0.013625115351043661,-0.07550695035394836,0,70,255.0,255.0,255.0
210,10.5,4.516,2.9596,-6.2033,0.015272203154333362,-0.03702692646063699,-0.1846401584842105,0.006602173682116089,-0.012139670849961481,-0.04188547407434262,0,70,255.0,255.0,255.0
211,10.55,4.51677166792509,2.957732967859039,-6.212588613081316,0.015590614854687214,-0.03766458376510923,-0.18698933105870727,0.006134294332037833,-0.01336662132892787,-0.052081428905527596,0,70,255.0,255.0,255.0
212,10.600000000000001,4.51755867158601,2.9558325191647565,-6.222007429734896,0.01588563258753715,-0.0383635885935298,-0.18984830137476333,0.005666414981959579,-0.014593571807894258,-0.06227738373671257,0,70,255.0,255.0,255.0
213,10.65,4.5183598412843855,2.953895586540954,-6.2315819398478185,0.016157256352883172,-0.03912394094589865,-0.1932170694323785,0.00519853563188134,-0.0158205222868606,-0.07247333856789717,0,70,255.0,255.0,255.0
214,10.700000000000001,4.5191740073218405,2.951919102611434,-6.24133763330716,0.016405486150725287,-0.039945640822215855,-0.19709563523155305,0.004730656281803084,-0.017047472765826993,-0.08266929339908216,0,70,255.0,255.0,255.0
215,10.75,4.52,2.9499,-6.2513,0.01663032198106348,-0.040828688222481334,-0.2014839987722867,0.00426277693172486,-0.01827442324479317,-0.09286524823026698,0,70,255.0,255.0,255.0
216,10.8,4.520836918232022,2.947836348542076,-6.261488097189299,0.016847880535946543,-0.041704850449351315,-0.20599620260767168,0.004439565263597464,-0.016772065830005536,-0.08762290518512932,0,70,255.0,255.0,255.0
217,10.850000000000001,4.521684935377205,2.945730766919577,-6.2718952516415625,0.017074278507423234,-0.04250589480548191,-0.21024628929079975,0.004616353595470068,-0.015269708415217898,-0.08238056213999163,0,70,255.0,255.0,255.0
218,10.9,4.522544493406374,2.9435870110260396,-6.282508357499176,0.01730951589549355,-0.0432318212908731,-0.21423425882167083,0.004793141927342666,-0.013767351000430316,-0.07713821909485415,0,70,255.0,255.0,255.0
219,10.950000000000001,4.523416034290363,2.941408836755002,-6.2933143089045265,0.0175535927001575,-0.04388262990552494,-0.21796011120028513,0.00496993025921527,-0.012264993585642682,-0.07189587604971648,0,70,255.0,255.0,255.0
220,11.0,4.5243,2.9392,-6.3043,0.01780650892141507,-0.04445832064943737,-0.22142384642664245,0.005146718591087701,-0.010762636170854878,-0.06665353300457988,0,70,255.0,255.0,255.0
221,11.05,4.52519665914682,2.9369632379726562,-6.315455798161484,0.018057863001533305,-0.04502001443748474,-0.22483385851060608,0.004907444613641534,-0.011705115351039599,-0.06974695035396286,0,70,255.0,255.0,255.0
222,11.100000000000001,4.526105586905172,2.934697213156935,-6.326785963698852,0.01829725338277923,-0.04562883218454134,-0.22839854146203883,0.0046681706361953665,-0.01264759453122432,-0.07284036770334583,0,70,255.0,255.0,255.0
223,11.15,4.527026185090116,2.9323995693548857,-6.338298230155479,0.018524680065152843,-0.046284773890607166,-0.2321178952809406,0.004428896658749208,-0.013590073711409007,-0.0759337850527287,0,70,255.0,255.0,255.0
224,11.200000000000001,4.527957855516707,2.930067950368557,-6.350000331074737,0.01874014304865415,-0.04698783955568225,-0.23599191996731167,0.0041896226813030405,-0.014532552891593728,-0.07902720240211167,0,70,255.0,255.0,255.0
225,11.25,4.5289,2.9277,-6.3619,0.01894364233328314,-0.04773802917976653,-0.24002061552115173,0.003950348703856743,-0.015475032071778305,-0.08212061975149343,0,70,255.0,255.0,255.0
226,11.3,4.529852445180701,2.9252938995672997,-6.374002310164768,0.019160667457924215,-0.04850309180070699,-0.24404436334991553,0.004730656281786061,-0.015127472765839861,-0.07882929339905646,0,70,255.0,255.0,255.0
227,11.350000000000001,4.530816717002107,2.9228499804526846,-6.3863016935630315,0.019416707961461752,-0.04925077645635054,-0.24790354486105748,0.0055109638597153785,-0.014779913459901418,-0.0755379670466195,0,70,255.0,255.0,255.0
228,11.4,4.531794766233164,2.9203691115544195,-6.398789921878913,0.01971176384389575,-0.049981083146697136,-0.25159816005457747,0.006291271437644669,-0.014432354153962988,-0.07224664069418266,0,70,255.0,255.0,255.0
229,11.450000000000001,4.532788543642812,2.9178521617707696,-6.411458766796529,0.020045835105226218,-0.05069401187174683,-0.2551282089304757,0.007071579015573986,-0.014084794848024544,-0.06895531434174568,0,70,255.0,255.0,255.0
230,11.5,4.5338,2.9153,-6.4243,0.020418921745453143,-0.05138956263149958,-0.258493691488752,0.007851886593503166,-0.01373723554208589,-0.06566398798930972,0,70,255.0,255.0,255.0
231,11.55,4.534830360130376,2.9127131637581454,-6.43730776117945,0.020787467166771424,-0.05208761835969247,-0.261836688089728,0.006889930259227748,-0.014184993585629564,-0.0680558760497265,0,70,255.0,255.0,255.0
232,11.600000000000001,4.535877945086399,2.9100908650323274,-6.450485662049023,0.021107914771375927,-0.052808061990062556,-0.26529927909372475,0.00592797392495233,-0.014632751629173237,-0.07044776411014328,0,70,255.0,255.0,255.0
233,11.65,4.536940349977235,2.9074319844274363,-6.463839682328873,0.021380264559266653,-0.0535508935226098,-0.26888146450074224,0.004966017590676945,-0.015080509672716893,-0.07283965217055999,0,70,255.0,255.0,255.0
234,11.700000000000001,4.538015169912047,2.9047354025483636,-6.477375801739148,0.021604516530443617,-0.05431611295733424,-0.27258324431078074,0.004004061256401527,-0.015528267716260567,-0.07523154023097677,0,70,255.0,255.0,255.0
235,11.75,4.5391,2.902,-6.4911,0.021780670684906807,-0.05510372029423584,-0.2764046185238399,0.003042104922126143,-0.015976025759804058,-0.07762342829139346,0,70,255.0,255.0,255.0
236,11.8,4.540193314297798,2.899225445400117,-6.505016245117436,0.02196146387499211,-0.05586643476052079,-0.2802248842911778,0.004189622681285959,-0.014532552891593655,-0.07518720240211976,0,70,255.0,255.0,255.0
237,11.850000000000001,4.541297102652299,2.8964145594180044,-6.519120458240877,0.022199632953035408,-0.05655697558339522,-0.283923338764052,0.005337140440445775,-0.013089080023383251,-0.07275097651284608,0,70,255.0,255.0,255.0
238,11.9,4.542414233857901,2.8935709507358345,-6.5334065488055995,0.022495177919036685,-0.05717534276285912,-0.28749998194246235,0.00648465819960555,-0.011645607155172901,-0.07031475062357247,0,70,255.0,255.0,255.0
239,11.950000000000001,4.543547576709002,2.890698228035776,-6.547868426246883,0.022848098772995963,-0.0577215362989125,-0.29095481382640925,0.007632175958765366,-0.010202134286962497,-0.06787852473429878,0,70,255.0,255.0,255.0
240,12.0,4.5447,2.8878,-6.5625,0.02325839551491322,-0.058195556191555364,-0.29428783441589224,0.008779693717925224,-0.008758661418752034,-0.0654422988450234,0,70,255.0,255.0,255.0
241,12.05,4.545873182678434,2.884878654641386,-6.577296858350808,0.02365467733325113,-0.058670642598225006,-0.2975997747455612,0.007071579015590971,-0.010244794848033421,-0.06703531434173285,0,70,255.0,255.0,255.0
242,12.100000000000001,4.547064044304407,2.881931697295653,-6.5922613049874705,0.023965553416472326,-0.05922003567635872,-0.3009913658500656,0.0053634643132567175,-0.01173092827731481,-0.06862832983844229,0,70,255.0,255.0,255.0
243,12.15,4.548268314591161,2.8789554126292263,-6.607397322448729,0.024191023764576804,-0.05984373542595648,-0.30446260772940537,0.003655349610922525,-0.013217061706596145,-0.07022134533515169,0,70,255.0,255.0,255.0
244,12.200000000000001,4.549481723251945,2.8759460853085326,-6.622708893273325,0.024331088377564574,-0.060541741847018334,-0.3080135003835808,0.0019472349085882714,-0.014703195135877532,-0.07181436083186113,0,70,255.0,255.0,255.0
245,12.25,4.5507,2.8729,-6.6382,0.024385747255435637,-0.06131405493954423,-0.3116440438125915,0.00023912020625421748,-0.016189328565158867,-0.07340737632856964,0,70,255.0,255.0,255.0
246,12.3,4.551920354988467,2.8698143360343367,-6.653873121479333,0.024443826792002143,-0.06210699484657951,-0.3152640167265804,0.0020840612564060708,-0.015528267716251943,-0.07139154023098564,0,70,255.0,255.0,255.0
247,12.350000000000001,4.553145920130075,2.8666898513993826,-6.669724721809245,0.024594153381076247,-0.06286688171116944,-0.31878319783569015,0.003929002306557924,-0.014867206867345021,-0.06937570413340163,0,70,255.0,255.0,255.0
248,12.4,4.55438130777745,2.8635281987472605,-6.685749761399487,0.02483672702265793,-0.06359371553331401,-0.3222015871399206,0.005773943356709712,-0.014206146018438122,-0.06735986803581769,0,70,255.0,255.0,255.0
249,12.450000000000001,4.555631130283217,2.860331030730092,-6.701943200659821,0.02517154771674722,-0.06428749631301325,-0.3255191846392719,0.0076188844068615655,-0.013545085169531198,-0.06534403193823368,0,70,255.0,255.0,255.0
250,12.5,4.5569,2.8571,-6.7183,0.025598615463344087,-0.06494822405026714,-0.3287359903337439,0.009463825457013436,-0.012884024320624188,-0.06332819584065064,0,70,255.0,255.0,255.0
251,12.55,4.5581909973676975,2.8538368012212665,-6.734816255731861,0.02602601549873856,-0.06557337801545692,-0.3319201583481175,0.007632175958765354,-0.012122134286966414,-0.06403852473429056,0,70,255.0,255.0,255.0
252,12.600000000000001,4.559501075175292,2.8505432971068156,-6.751492607775558,0.026361833059220633,-0.06616043747896379,-0.33513984280717307,0.005800526460517272,-0.011360244253308638,-0.06474885362793048,0,70,255.0,255.0,255.0
253,12.65,4.5608256542990375,2.8472213923817313,-6.768330831953323,0.02660606814479029,-0.06670940244078778,-0.33839504371091045,0.003968876962269256,-0.01059835421965089,-0.06545918252157037,0,70,255.0,255.0,255.0
254,12.700000000000001,4.56216015561519,2.8438729917710983,-6.785332704087392,0.026758720755447555,-0.06722027290092888,-0.3416857610593301,0.002137227464021174,-0.009836464185993116,-0.0661695114152103,0,70,255.0,255.0,255.0
255,12.75,4.5635,2.8405,-6.8025,0.026819790891192415,-0.06769304885938707,-0.3450119948524315,0.00030557796577301843,-0.009074574152334813,-0.06687984030885019,0,70,255.0,255.0,255.0
256,12.8,4.564842055540744,2.837103259080597,-6.819833855593226,0.026876111213051022,-0.06819149309159239,-0.3483353498809492,0.0019472349085712616,-0.010863195135877815,-0.06605436083185692,0,70,255.0,255.0,255.0
257,12.850000000000001,4.566188979168758,2.833679360173354,-6.837332847088532,0.02701451438204954,-0.06877936837297487,-0.35161743093561726,0.0035888918513695047,-0.012651816119420817,-0.06522888135486367,0,70,255.0,255.0,255.0
258,12.9,4.5675448750264005,2.8302238317258133,-6.854994910787224,0.02723500039818797,-0.06945667470353446,-0.35485823801643557,0.005230548794167689,-0.014440437102963756,-0.06440340187787043,0,70,255.0,255.0,255.0
259,12.950000000000001,4.568913847256028,2.826732202185515,-6.872817982990611,0.02753756926146631,-0.07022341208327124,-0.3580577711234043,0.006872205736965932,-0.016229058086506758,-0.06357792240087717,0,70,255.0,255.0,255.0
260,13.0,4.5703,2.8232,-6.8908,0.027922220971884557,-0.07107958051218512,-0.36121603025652327,0.008513862679764062,-0.01801767907004892,-0.06275244292388216,0,70,255.0,255.0,255.0
261,13.05,4.57170638046933,2.819624562456345,-6.9089395218952365,0.028325539649050206,-0.07191664961817452,-0.3643704421280768,0.007618884406861568,-0.01546508516952659,-0.06342403193825491,0,70,255.0,255.0,255.0
262,13.100000000000001,4.573131808149677,2.816010462199766,-6.92723760387032,0.028684109412570723,-0.0726260890291378,-0.36755843345034883,0.006723906133959076,-0.012912491269004261,-0.06409562095262766,0,70,255.0,255.0,255.0
263,13.15,4.5745740455953605,2.8123640807150148,-6.945695924897783,0.028997930262446108,-0.07320789874507494,-0.3707800042233395,0.005828927861056614,-0.010359897368482023,-0.06476720996700039,0,70,255.0,255.0,255.0
264,13.200000000000001,4.5760308553606945,2.808691799486842,-6.964316163950166,0.02926700219867638,-0.073662078765986,-0.3740351544470488,0.004933949588154122,-0.007807303467959693,-0.06543879898137314,0,70,255.0,255.0,255.0
265,13.25,4.5775,2.805,-6.9831,0.02949132522126152,-0.0739886290918709,-0.3773238841214768,0.004038971315251577,-0.005254709567437121,-0.06611038799574542,0,70,255.0,255.0,255.0
266,13.3,4.578979622581935,2.801292891094023,-7.002048056825827,0.029693730190744082,-0.07431790843570676,-0.3805828816067504,0.0040572274640508004,-0.007916464185997445,-0.06424951141519758,0,70,255.0,255.0,255.0
267,13.350000000000001,4.580469388232531,2.7975659910275805,-7.021156737430192,0.029897047967666603,-0.07478027551047066,-0.3837488352629967,0.004075483612850023,-0.010578218804557768,-0.06238863483464975,0,70,255.0,255.0,255.0
268,13.4,4.58196934259216,2.7938126454141274,-7.040421389621643,0.03010127855202908,-0.07537573031616253,-0.3868217450902154,0.004093739761649245,-0.013239973423117998,-0.060527758254101977,0,70,255.0,255.0,255.0
269,13.450000000000001,4.583479531301192,2.790026199867115,-7.0598373612087295,0.030306421943831527,-0.07610427285278246,-0.3898016110884069,0.004111995910448469,-0.01590172804167832,-0.05866688167355415,0,70,255.0,255.0,255.0
270,13.5,4.585,2.7862,-7.0794,0.03051247814307393,-0.07696590312033036,-0.39268843325757075,0.00413025205924783,-0.01856348266023833,-0.05680600509300415,0,70,255.0,255.0,255.0
271,13.55,4.5865311292029265,2.7823294731675636,-7.099105850801457,0.030739539587978964,-0.07783571663899898,-0.3955540314449177,0.004952205736953364,-0.016229058086506286,-0.05781792240087233,0,70,255.0,255.0,255.0
272,13.600000000000001,4.5880746389201965,2.7784183736899117,-7.118956246408915,0.031007698716769273,-0.07858880892898101,-0.39847022549765804,0.005774159414658898,-0.013894633512774247,-0.0588298397087405,0,70,255.0,255.0,255.0
273,13.65,4.589632584036002,2.774472537628477,-7.138953716615645,0.03131695552944485,-0.07922517999027641,-0.4014370154157917,0.006596113092364403,-0.011560208939042287,-0.05984175701660864,0,70,255.0,255.0,255.0
274,13.700000000000001,4.591207019434539,2.7704978010446952,-7.159100791214917,0.031667310026005716,-0.07974482982288524,-0.4044544011993189,0.007418066770069938,-0.009225784365310246,-0.06085367432447682,0,70,255.0,255.0,255.0
275,13.75,4.5928,2.7665,-7.1794,0.03205876220645184,-0.08014775842680745,-0.40752238284823933,0.008240020447775442,-0.006891359791578178,-0.06186559163234362,0,70,255.0,255.0,255.0
276,13.8,4.594412660606358,2.762483616235722,-7.199853339968349,0.032436111457349544,-0.08051522500829589,-0.4106089926135825,0.006853949588132516,-0.007807303467959494,-0.06159879898138234,0,70,255.0,255.0,255.0
277,13.850000000000001,4.5960424560866855,2.7584477142127732,-7.22046067693415,0.032744157165265096,-0.08092848877360341,-0.41368226274637765,0.005467878728489589,-0.00872324714434081,-0.06133200633042105,0,70,255.0,255.0,255.0
278,13.9,4.597685921263834,2.7543900040719644,-7.241221343915777,0.032982899330198504,-0.08138754972272998,-0.4167421932466246,0.0040818078688467105,-0.009639190820722093,-0.06106521367945978,0,70,255.0,255.0,255.0
279,13.950000000000001,4.599339590960656,2.7503081959541036,-7.262134673931603,0.033152337952149766,-0.08189240785567563,-0.41978878411432363,0.0026957370092037837,-0.010555134497103411,-0.0607984210284985,0,70,255.0,255.0,255.0
280,14.0,4.601,2.7462,-7.2832,0.03325247303111888,-0.0824430631724403,-0.4228220353494745,0.0013096661495609063,-0.011471078173484583,-0.060531628377536784,0,70,255.0,255.0,255.0
281,14.05,4.6026646283716435,2.7420632618895495,-7.304415989325152,0.03334001458261923,-0.08303138332781938,-0.42580199810075137,0.0021919959104530276,-0.01206172804167865,-0.05866688167353577,0,70,255.0,255.0,255.0
282,14.100000000000001,4.604334736733063,2.7378963694589946,-7.32577864585449,0.03347167262216418,-0.08364923597660817,-0.42868872351682813,0.003074325671345149,-0.01265237790987272,-0.05680213496953476,0,70,255.0,255.0,255.0
283,14.15,4.606012530908661,2.7336978460836656,-7.347283307721248,0.03364744714975375,-0.08429662111880666,-0.43148221159770483,0.003956655432237239,-0.013243027778066766,-0.054937388265533814,0,70,255.0,255.0,255.0
284,14.200000000000001,4.607700216722839,2.72946621513889,-7.368925313058672,0.033867338165387915,-0.08497353875441484,-0.4341824623433815,0.00483898519312936,-0.013833677646260836,-0.0530726415615328,0,70,255.0,255.0,255.0
285,14.25,4.6094,2.7252,-7.3907,0.03413134566906668,-0.08567998888343271,-0.43678947575385807,0.005721314954021561,-0.014424327514454993,-0.05120789485753097,0,70,255.0,255.0,255.0
286,14.3,4.611113625907069,2.7208985362060805,-7.412604302731043,0.03441183021216951,-0.08636724168042685,-0.4393990149834087,0.005498066770091489,-0.01306578436531001,-0.05317367432449365,0,70,255.0,255.0,255.0
287,14.350000000000001,4.612840996981064,2.7165644079512483,-7.434641539647897,0.034681152346075834,-0.08698656731996374,-0.4421068431863075,0.005274818586161417,-0.011707241216165027,-0.055139453791456336,0,70,255.0,255.0,255.0
288,14.4,4.614581555101523,2.7122010115933755,-7.456816625199229,0.03493931207078565,-0.08753796580204334,-0.44491296036255434,0.0050515704022313515,-0.01034869806702009,-0.05710523325841896,0,70,255.0,255.0,255.0
289,14.450000000000001,4.616334742147989,2.7078117434903346,-7.479134473833708,0.03518630938629897,-0.08802143712666573,-0.4478173665121494,0.004828322218301279,-0.00899015491787511,-0.05907101272538164,0,70,255.0,255.0,255.0
290,14.5,4.6181,2.7034,-7.5016,0.03542214429261578,-0.08843698129383087,-0.4508200616350924,0.00460507403437127,-0.007631611768730284,-0.06103679219234115,0,70,255.0,255.0,255.0
291,14.55,4.61987686800008,2.698968193286127,-7.524216399750677,0.03565266456870505,-0.08884364995047661,-0.45381794196561354,0.004615737009199305,-0.008635134497099198,-0.05887842102850224,0,70,255.0,255.0,255.0
292,14.600000000000001,4.621665275342683,2.6945147987360114,-7.546979995553925,0.03588371799353572,-0.0893004947435408,-0.45670790373794273,0.004626399984027341,-0.009638657225468111,-0.05672004986466333,0,70,255.0,255.0,255.0
293,14.65,4.623465248685246,2.6900373075428328,-7.569885391481835,0.036115304567107785,-0.08980751567302342,-0.45948994695207984,0.004637062958855376,-0.01064217995383699,-0.0545616787008245,0,70,255.0,255.0,255.0
294,14.700000000000001,4.625276814685206,2.685533210899769,-7.592927191606497,0.036347424289421254,-0.0903647127389245,-0.4621640716080252,0.004647725933683411,-0.011645702682205904,-0.052403307536985584,0,70,255.0,255.0,255.0
295,14.75,4.6271,2.681,-7.6161,0.03658007716047613,-0.09097208594124402,-0.46473027770577835,0.0046583889085115016,-0.012649225410575116,-0.05024493637314542,0,70,255.0,255.0,255.0
296,14.8,4.628934902092612,2.67643589064941,-7.639399698266251,0.036817511513016724,-0.09158615851766483,-0.46726521715414504,0.004838985193112313,-0.011913677646256782,-0.05115264156152027,0,70,255.0,255.0,255.0
297,14.850000000000001,4.630781901648207,2.671841997104704,-7.6628272781364055,0.03706397567978737,-0.09216345370586972,-0.46984554186193045,0.005019581477713125,-0.01117812988193845,-0.05206034674989513,0,70,255.0,255.0,255.0
298,14.9,4.632641450157494,2.6672201582352932,-7.686385008873435,0.037319469660788036,-0.09270397150585867,-0.4724712518291345,0.00520017776231393,-0.010442582117620142,-0.05296805193826995,0,70,255.0,255.0,255.0
299,14.950000000000001,4.6345139991111886,2.6625722129105878,-7.71007515974031,0.03758399345601876,-0.09320771191763173,-0.4751423470557575,0.005380774046914742,-0.009707034353301808,-0.0538757571266448,0,70,255.0,255.0,255.0
300,15.0,4.6364,2.6579,-7.7339,0.03785754706547951,-0.09367467494118885,-0.477858827541799,0.005561370331515547,-0.00897148658898328,-0.054783462315020515,0,70,255.0,255.0,255.0
301,15.05,4.638299523629475,2.653205044116234,-7.757860807184321,0.038117289379224935,-0.09412371597886074,-0.48056118941780895,0.004828322218301318,-0.008990154917892146,-0.05331101272537706,0,70,255.0,255.0,255.0
302,15.100000000000001,4.640211118064495,2.648487612845173,-7.781954891900456,0.03834037928730965,-0.09457369043297807,-0.48318992881433676,0.0040952741050870895,-0.009008823246801013,-0.05183856313573361,0,70,255.0,255.0,255.0
303,15.15,4.642132950684777,2.643747659515996,-7.806178573024431,0.03852681678973364,-0.09502459830354083,-0.48574504573138233,0.0033622259918728863,-0.009027491575709878,-0.050366113546090205,0,70,255.0,255.0,255.0
304,15.200000000000001,4.6440631888700405,2.6389851374578783,-7.83052816943227,0.03867660188649693,-0.09547643959054906,-0.4882265401689458,0.002629177878658657,-0.009046159904618744,-0.04889366395644676,0,70,255.0,255.0,255.0
305,15.25,4.646,2.6342,-7.855,0.03878973457759951,-0.09592921429400271,-0.4906344121270269,0.0018961297654443432,-0.009064828233527167,-0.047421214366800246,0,70,255.0,255.0,255.0
306,15.3,4.647942203389491,2.629391932885654,-7.879591472996465,0.03890533097007824,-0.09639897756689574,-0.4930340251746213,0.0027277259337049617,-0.009725702682193381,-0.04856330753697559,0,70,255.0,255.0,255.0
307,15.350000000000001,4.649891226093814,2.624559551514603,-7.904304354261772,0.039062507170970005,-0.09690178456222207,-0.49549074288072453,0.0035593221019655803,-0.010386577130859595,-0.04970540070715094,0,70,255.0,255.0,255.0
308,15.4,4.651849147103394,2.619701203700725,-7.929141499028845,0.0392612631802748,-0.09743763527998169,-0.49800456524533643,0.004390918270226168,-0.011047451579525785,-0.05084749387732624,0,70,255.0,255.0,255.0
309,15.450000000000001,4.6538180454086495,2.6148152372578974,-7.954105762530614,0.039501598997992625,-0.09800652972017464,-0.5005754922684571,0.005222514438486787,-0.011708326028191999,-0.05198958704750159,0,70,255.0,255.0,255.0
310,15.5,4.6558,2.6099,-7.9792,0.039783514624123474,-0.09860846788280088,-0.5032035239500865,0.006054110606747265,-0.012369200476858189,-0.05313168021767467,0,70,255.0,255.0,255.0
311,15.55,4.6577964628125645,2.6049544243411487,-8.004426100829823,0.0400693867404646,-0.09920837375355478,-0.505830709883695,0.005380774046897653,-0.011627034353297339,-0.051955757126666655,0,70,255.0,255.0,255.0
312,15.600000000000001,4.659806377560247,2.5999797810964145,-8.02978209105246,0.04032159202881325,-0.09977117131813062,-0.5083990996627532,0.004707437487048042,-0.01088486822973649,-0.05077983403565863,0,70,255.0,255.0,255.0
313,15.65,4.661828060901646,2.594977925681105,-8.055265030860188,0.04054013048916941,-0.10029686057652842,-0.510908693287261,0.004034100927198454,-0.010142702106175665,-0.04960391094465066,0,70,255.0,255.0,255.0
314,15.700000000000001,4.663859829495364,2.5899507135105306,-8.080871980445277,0.04072500212153309,-0.10078544152874819,-0.5133594907572183,0.003360764367348842,-0.009400535982614817,-0.048427987853642634,0,70,255.0,255.0,255.0
315,15.75,4.6659,2.5849,-8.1066,0.04087620692590429,-0.1012369141747899,-0.515751492072625,0.002687427807499143,-0.008658369859053328,-0.04725206476263377,0,70,255.0,255.0,255.0
316,15.8,4.667947145360251,2.5798271697497515,-8.132446523684248,0.041009122068058235,-0.10167952741888212,-0.5181071352906023,0.0026291778786586054,-0.00904615990463536,-0.04697366395645037,0,70,255.0,255.0,255.0
317,15.850000000000001,4.670000863665199,2.574731724099741,-8.158410481528389,0.04113912471377015,-0.10214153016525344,-0.5204488584682702,0.0025709279498180677,-0.009433949950217391,-0.046695263150266966,0,70,255.0,255.0,255.0
318,15.9,4.6720610092900206,2.5696126935748547,-8.184491177530404,0.041266214863040045,-0.10262292241390386,-0.5227766616056289,0.0025126780209775317,-0.009821739995799408,-0.04641686234408358,0,70,255.0,255.0,255.0
319,15.950000000000001,4.674127436609894,2.5644691086999787,-8.21068791568828,0.0413903925158679,-0.1031237041648334,-0.5250905447026785,0.002454428092136994,-0.01020953004138144,-0.046138461537900174,0,70,255.0,255.0,255.0
320,16.0,4.6762,2.5593,-8.237,0.04151165767225373,-0.10364387541804199,-0.5273905077594189,0.002396178163296181,-0.010597320086962903,-0.04586006073171678,0,70,255.0,255.0,255.0
321,16.05,4.678278955746432,2.554104896659847,-8.263427004433185,0.04165412498729885,-0.10415351657092055,-0.5296927489538988,0.00330251443850821,-0.009788326028179372,-0.04622958704747991,0,70,255.0,255.0,255.0
322,16.1,4.680366167778958,2.5488853225046233,-8.289969582833987,0.04184190911610455,-0.10462270802085993,-0.5320134664641669,0.004208850713720239,-0.008979331969395841,-0.04659911336324304,0,70,255.0,255.0,255.0
323,16.150000000000002,4.682463901938271,2.5436433000194762,-8.316628659018198,0.04207501005867088,-0.10505144976786014,-0.5343526602902232,0.005115186988932268,-0.008170337910612311,-0.04696863967900617,0,70,255.0,255.0,255.0
324,16.2,4.6845744240650555,2.5383808516895527,-8.343405156801603,0.04235342781499777,-0.10543974181192116,-0.5367103304320675,0.006021523264144233,-0.0073613438518288395,-0.04733816599476927,0,70,255.0,255.0,255.0
325,16.25,4.6867,2.5331,-8.3703,0.04267716238508528,-0.105787584153043,-0.5390864768897001,0.006927859539356318,-0.006552349793044976,-0.047707692310535066,0,70,255.0,255.0,255.0
326,16.3,4.688841831654023,2.527802043610861,-8.397313458583017,0.042982377982752375,-0.10613840629743439,-0.5414418688938052,0.005280764367327372,-0.007480535982610572,-0.04650798785366382,0,70,255.0,255.0,255.0
327,16.35,4.690996865218966,2.5224853858817653,-8.424443187135667,0.04320523882181802,-0.10653563775130406,-0.5437372756750666,0.0036336691952984254,-0.008408722172176168,-0.04530828339679257,0,70,255.0,255.0,255.0
328,16.400000000000002,4.693160982956895,2.517147706347239,-8.451686186396811,0.04334574490228222,-0.10697927851465201,-0.5459726972334845,0.001986574023269479,-0.009336908361741765,-0.044108578939921324,0,70,255.0,255.0,255.0
329,16.45,4.695330067129884,2.511786684541809,-8.479039457105301,0.04340389622414498,-0.10746932858747822,-0.5481481335690586,0.00033947885124064985,-0.010265094551307294,-0.042908874483050155,0,70,255.0,255.0,255.0
330,16.5,4.6975,2.5064,-8.5065,0.04337969278740629,-0.10800578796978273,-0.5502635846817894,-0.0013076163207880187,-0.011193280740872669,-0.041709170026180686,0,70,255.0,255.0,255.0
331,16.55,4.699668117637475,2.5009861288967095,-8.534065561234753,0.043360363081690126,-0.10854085823933951,-0.5523637754708908,0.0005344280921414186,-0.01020953004139816,-0.042298461537875205,0,70,255.0,255.0,255.0
332,16.6,4.701837571345179,2.4955467339683155,-8.561736868623349,0.04343313559662043,-0.10902674097392256,-0.554493430835577,0.002376472505070856,-0.00922577934192365,-0.042887753049569724,0,70,255.0,255.0,255.0
333,16.650000000000002,4.7040129662341466,2.490084274591567,-8.58951539539457,0.043598010332197214,-0.1094634361735319,-0.5566525507758479,0.004218516918000293,-0.008242028642449141,-0.04347704456126425,0,70,255.0,255.0,255.0
334,16.7,4.70619890741541,2.4846012101432122,-8.617402614777195,0.043854987288420445,-0.10985094383816746,-0.5588411352917033,0.0060605613309296,-0.007258277942974703,-0.04406633607295873,0,70,255.0,255.0,255.0
335,16.75,4.7084,2.4791,-8.6454,0.044204066465290175,-0.11018926396782933,-0.5610591843831436,0.007902605743858981,-0.006274527243500083,-0.04465562758465502,0,70,255.0,255.0,255.0
336,16.8,4.710619297796079,2.4735822408023007,-8.673508296477976,0.04455216969049026,-0.11053016074521234,-0.5632630292226295,0.006021523264144097,-0.007361343851820183,-0.043498165994780166,0,70,255.0,255.0,255.0
337,16.85,4.712853649400317,2.4680460782449716,-8.701725338370938,0.04480621879170459,-0.11092539835301135,-0.5654090009826217,0.004140440784429213,-0.008448160460140283,-0.042340704404905304,0,70,255.0,255.0,255.0
338,16.900000000000002,4.715098352106515,2.4624887952864927,-8.730048232024915,0.044966213768933186,-0.11137497679122638,-0.5674970996631201,0.0022593583047143297,-0.009534977068460383,-0.04118324281503045,0,70,255.0,255.0,255.0
339,16.95,4.717348703208476,2.456907674885342,-8.758474083785925,0.045032154622176024,-0.11187889605985736,-0.5695273252641246,0.00037827582499957903,-0.010621793676780407,-0.04002578122515567,0,70,255.0,255.0,255.0
340,17.0,4.7196,2.4513,-8.787,0.04500404135143313,-0.11243715615890441,-0.5714996777856356,-0.0015028066547153607,-0.011708610285101062,-0.038868319635279036,0,70,255.0,255.0,255.0
341,17.05,4.721849091178213,2.4456641078940873,-8.815623652853347,0.044974958156346265,-0.11298649877981443,-0.573448107638594,0.0003394788512408194,-0.01026509455129885,-0.039068874483058735,0,70,255.0,255.0,255.0
342,17.1,4.724099031053556,2.440002553051796,-8.8443449778929,0.045037989236557205,-0.11346366561403431,-0.5754065652339415,0.0021817643571969995,-0.008821578817496636,-0.03926942933083844,0,70,255.0,255.0,255.0
343,17.150000000000002,4.7263544253397916,2.4343189442624618,-8.873164476505782,0.04519313459206597,-0.1138686566615641,-0.577375050571678,0.004024049863153179,-0.0073780630836944245,-0.03946998417861814,0,70,255.0,255.0,255.0
344,17.2,4.728619879750684,2.428616890315418,-8.902082650079107,0.045440394222872514,-0.11420147192240374,-0.5793535636518032,0.005866335369109229,-0.005934547349892315,-0.03967053902639783,0,70,255.0,255.0,255.0
345,17.25,4.7309,2.4229,-8.9311,0.045779768128976876,-0.11446211139655331,-0.5813421044743177,0.007708620875065242,-0.00449103161608988,-0.039871093874175756,0,70,255.0,255.0,255.0
346,17.3,4.733197937491066,2.4171709276213496,-8.96021709210864,0.046123997684126755,-0.11470784413553002,-0.5833445402229954,0.006060561330929592,-0.005338277942978865,-0.04022633607293394,0,70,255.0,255.0,255.0
347,17.35,4.73551102638546,2.411428509547841,-8.989434750057468,0.046385824262069844,-0.1149959391908512,-0.5853647380816112,0.004412501786793941,-0.00618552426986785,-0.04058157827169212,0,70,255.0,255.0,255.0
348,17.400000000000002,4.73783514653432,2.405670627663658,-9.018753861951968,0.04656524786280616,-0.11532639656251682,-0.5874026980501647,0.00276444224265829,-0.007032770596756835,-0.0409368204704503,0,70,255.0,255.0,255.0
349,17.45,4.740166177788786,2.3998951638529835,-9.048175315897648,0.04666226848633567,-0.11569921625052687,-0.5894584201286561,0.001116382698522757,-0.00788001692364576,-0.04129206266920846,0,70,255.0,255.0,255.0
350,17.5,4.7425,2.3941,-9.0777,0.04667688613265841,-0.11611439825488139,-0.5915319043170855,-0.0005316768456131715,-0.008727263250535189,-0.04164730486796664,0,70,255.0,255.0,255.0
351,17.55,4.744833558857521,2.388283381620515,-9.107327978712087,0.04667305110714307,-0.1165501246780644,-0.5935737314694144,0.0003782758249994652,-0.008701793676785407,-0.040025781225189384,0,70,255.0,255.0,255.0
352,17.6,4.747168063404605,2.382445008756838,-9.13705602187724,0.04671471371515836,-0.11698457762255994,-0.5955344824396045,0.001288228495612102,-0.008676324103035626,-0.03840425758241212,0,70,255.0,255.0,255.0
353,17.650000000000002,4.749505788522931,2.3765849450829037,-9.166880075686347,0.046801873956704286,-0.11741775708836798,-0.5974141572276557,0.0021981811662247384,-0.008650854529285844,-0.03678273393963487,0,70,255.0,255.0,255.0
354,17.7,4.751849009094169,2.3707032542726463,-9.196796086330302,0.046934531831780826,-0.11784966307548851,-0.5992127558335679,0.0031081338368373107,-0.008625384955536065,-0.035161210296857724,0,70,255.0,255.0,255.0
355,17.75,4.7542,2.3648,-9.2268,0.04711268734038802,-0.11828029558392159,-0.6009302782573414,0.004018086507450003,-0.008599915381786838,-0.03353968665408047,0,70,255.0,255.0,255.0
356,17.8,4.756560627078846,2.3588755458965895,-9.256888593043008,0.04731179788730211,-0.11869165715221346,-0.6026165338993528,0.003946335369113672,-0.007854547349887787,-0.033910539026376446,0,70,255.0,255.0,255.0
357,17.85,4.758931119996115,2.3529314554248053,-9.28706196243358,0.047507320877299385,-0.11906575031891038,-0.604321332159979,0.003874584230777343,-0.007109179317988735,-0.03428139139867242,0,70,255.0,255.0,255.0
358,17.900000000000002,4.76131129937396,2.3469695920047253,-9.31732103530265,0.047699256310379856,-0.11940257508401235,-0.6060446730392202,0.003802833092441013,-0.006363811286089684,-0.0346522437709684,0,70,255.0,255.0,255.0
359,17.95,4.763700985834538,2.3409918190564305,-9.347666738781145,0.04788760418654348,-0.11970213144751933,-0.6077865565370758,0.003731081954104688,-0.005618443254190685,-0.03502309614326435,0,70,255.0,255.0,255.0
360,18.0,4.7661,2.335,-9.3781,0.04807236450579031,-0.1199644194094314,-0.6095469826535465,0.003659330815768136,-0.004873075222291634,-0.0353939485155621,0,70,255.0,255.0,255.0
361,18.05,4.768507932827094,2.328995234793125,-9.408621649115885,0.048239757343647466,-0.12023524671307974,-0.6113201329331652,0.0030363826985180054,-0.005960016923641802,-0.03553206266918849,0,70,255.0,255.0,255.0
362,18.1,4.770923456610933,2.322975569543941,-9.439232128388445,0.04837600277564212,-0.12056042110179559,-0.6131001889204654,0.002413434581267875,-0.00704695862499197,-0.035670176822814884,0,70,255.0,255.0,255.0
363,18.150000000000002,4.773345013981227,2.316938286898194,-9.469931783103062,0.04848110080177426,-0.12093994257557894,-0.6148871506154467,0.0017904864640177444,-0.008133900326342139,-0.035808290976441275,0,70,255.0,255.0,255.0
364,18.2,4.77577104756768,2.310880669501632,-9.500720958545118,0.048555051422043895,-0.12137381113442977,-0.6166810180181094,0.001167538346767658,-0.009220842027692229,-0.03594640513006766,0,70,255.0,255.0,255.0
365,18.25,4.7782,2.3048,-9.5316,0.04859785463645102,-0.12186202677834813,-0.6184817911284534,0.0005445902295175276,-0.010307783729041842,-0.036084519283691385,0,70,255.0,255.0,255.0
366,18.3,4.78063084161278,2.2986947149309103,-9.562568810493449,0.04864117273811001,-0.12233535599546301,-0.6202629343679689,0.0011881338368419073,-0.008625384955553227,-0.03516121029692502,0,70,255.0,255.0,255.0
367,18.35,4.7830646535601495,2.2925678663994318,-9.593625524012642,0.04871666802013521,-0.12272456527390348,-0.6219979121581459,0.001831677444166287,-0.006942986182064612,-0.03423790131015864,0,70,255.0,255.0,255.0
368,18.400000000000002,4.785503044701133,2.286423660402498,-9.624767832285109,0.04882434048252664,-0.12302965461366949,-0.6236867244989847,0.0024752210514906664,-0.005260587408575996,-0.033314592323392275,0,70,255.0,255.0,255.0
369,18.45,4.787947623894743,2.280266302937043,-9.655993427038384,0.04896419012528427,-0.12325062401476107,-0.6253293713904851,0.003118764658815001,-0.0035781886350874995,-0.03239128333662597,0,70,255.0,255.0,255.0
370,18.5,4.7904,2.2741,-9.6873,0.04913621694840813,-0.12338747347717823,-0.6269258528326471,0.0037623082661394913,-0.0018957898615988844,-0.03146797434985871,0,70,255.0,255.0,255.0
371,18.55,4.7928615007217905,2.2679275054832337,-9.718685508910317,0.04932355170391424,-0.12352732930507265,-0.6284921295949746,0.003731081954104642,-0.003698443254178233,-0.031183096143240614,0,70,255.0,255.0,255.0
372,18.6,4.795332329148465,2.2617457648583317,-9.750148975560995,0.0495093251438186,-0.12375731780259605,-0.6300441624469713,0.003699855642069793,-0.005501096646757582,-0.03089821793662252,0,70,255.0,255.0,255.0
373,18.650000000000002,4.797812407214246,2.2555502714918134,-9.78168968775651,0.04969353726812122,-0.12407743896974842,-0.6315819513886369,0.0036686293300349435,-0.007303750039336931,-0.030613339730004428,0,70,255.0,255.0,255.0
374,18.7,4.80030165685335,2.249336518750197,-9.81330693330135,0.04987618807682209,-0.12448769280652972,-0.6331054964199716,0.0036374030180000966,-0.009106403431916151,-0.030328461523386356,0,70,255.0,255.0,255.0
375,18.75,4.8028,2.2431,-9.845,0.050057277569921226,-0.12498807931294004,-0.6346147975409755,0.003606176705965136,-0.010909056824495611,-0.030043583316768263,0,70,255.0,255.0,255.0
376,18.8,4.8053071555000635,2.2368376631361544,-9.876768353865286,0.05022462044623943,-0.12549132678424474,-0.636120547252145,0.003087538346763101,-0.00922084202769191,-0.030186405130011452,0,70,255.0,255.0,255.0
377,18.85,4.807822029845992,2.2305522741672394,-9.908612173743393,0.050366031404597535,-0.12591016351570924,-0.6376334380539767,0.002568899987561065,-0.007532627230888208,-0.030329226943254642,0,70,255.0,255.0,255.0
378,18.900000000000002,4.810343326441891,2.224248053630247,-9.940531816688862,0.05048151044499555,-0.12624458950733355,-0.6391534699464705,0.002050261628359029,-0.005844412434084506,-0.030472048756497835,0,70,255.0,255.0,255.0
379,18.95,4.812869748691859,2.2179292220621702,-9.972527639756217,0.05057105756743344,-0.1264946047591177,-0.6406806429296265,0.0015316232691570306,-0.004156197637280925,-0.030614870569741014,0,70,255.0,255.0,255.0
380,19.0,4.8154,2.2116,-10.0046,0.05063467277191124,-0.12666020927106164,-0.6422149570034447,0.0010129849099547727,-0.002467982840477223,-0.030757692382986868,0,70,255.0,255.0,255.0
381,19.05,4.817933077277962,2.205263441972148,-10.03674907562855,0.050689966511130176,-0.12681136355795075,-0.643745681396436,0.0011987646588024119,-0.0035781886350874695,-0.030471283336664174,0,70,255.0,255.0,255.0
382,19.1,4.820469151467571,2.1989179384727087,-10.068974329465439,0.050754549237791484,-0.1270180281345704,-0.6452620853371112,0.001384544407650051,-0.004688394429697716,-0.03018487429034148,0,70,255.0,255.0,255.0
383,19.150000000000002,4.8230086870181985,2.192560713987196,-10.101275045488055,0.05082842095189518,-0.12728020300092052,-0.6467641688254702,0.0015703241564976901,-0.005798600224307962,-0.02989846524401879,0,70,255.0,255.0,255.0
384,19.200000000000003,4.825552148379217,2.1861889930011214,-10.133650507673782,0.05091158165344126,-0.12759788815700118,-0.648251931861513,0.0017561039053453293,-0.006908806018918209,-0.029612056197696097,0,70,255.0,255.0,255.0
385,19.25,4.8281,2.1798,-10.1661,0.05100403134242971,-0.12797108360281237,-0.6497253744452398,0.0019418836541928441,-0.008019011813528154,-0.02932564715137609,0,70,255.0,255.0,255.0
386,19.3,4.830652535388091,2.173391768975251,-10.198622543620523,0.05109551350923507,-0.12835121898394838,-0.651168727162109,0.0017174030180215761,-0.007186403431912002,-0.028408461523390813,0,70,255.0,255.0,255.0
387,19.35,4.833209364283727,2.166965571941923,-10.231216108394856,0.05117577164423187,-0.12868972394600356,-0.652566220597579,0.0014929223818503081,-0.006353795050295851,-0.027491275895405537,0,70,255.0,255.0,255.0
388,19.400000000000002,4.835769925485317,2.160523490420969,-10.263878401358927,0.0512448057474201,-0.12898659848897798,-0.6539178547516495,0.0012684417456790401,-0.005521186668679698,-0.026574090267420265,0,70,255.0,255.0,255.0
389,19.450000000000003,4.838333657791272,2.1540676059333435,-10.296607129548663,0.051302615818799774,-0.12924184261287155,-0.655223629624321,0.0010439611095077721,-0.004688578287063547,-0.02565690463943499,0,70,255.0,255.0,255.0
390,19.5,4.8409,2.1476,-10.3294,0.05134920185837087,-0.12945545631768432,-0.656483545215593,0.0008194804733363537,-0.00385596990544701,-0.024739719011446226,0,70,255.0,255.0,255.0
391,19.55,4.843468781169675,2.141122282126846,-10.362255149889359,0.051407979451932775,-0.12965576050625294,-0.657723409955123,0.0015316232691398803,-0.004156197637297824,-0.024854870569754085,0,70,255.0,255.0,255.0
392,19.6,4.846041391397524,2.1346341737595984,-10.395172436955145,0.05150236418528486,-0.12987107608141413,-0.6589690322725684,0.002243766064943407,-0.00445642536914864,-0.024970022128061944,0,70,255.0,255.0,255.0
393,19.650000000000002,4.848619611040535,2.1281349243289274,-10.428152149076249,0.05163235605842712,-0.1301014030431678,-0.6602204121679293,0.0029559088607469335,-0.004756653100999455,-0.025085173686369804,0,70,255.0,255.0,255.0
394,19.700000000000003,4.851205220455697,2.1216237832655045,-10.46119457413157,0.05179795507135956,-0.13034674139151406,-0.6614775496412055,0.00366805165655046,-0.005056880832850269,-0.025200325244677663,0,70,255.0,255.0,255.0
395,19.75,4.8538,2.1151,-10.4943,0.05199916122408216,-0.13060709112645283,-0.662740444692397,0.004380194452354158,-0.005357108564700619,-0.025315476802985515,0,70,255.0,255.0,255.0
396,19.8,4.856405139933207,2.1085631025173655,-10.527468856822038,0.05220056868302496,-0.130865738991043,-0.6640176330174135,0.003676103905357965,-0.004988806018905518,-0.02577205619767327,0,70,255.0,255.0,255.0
397,19.85,4.85901947012618,2.102013733019684,-10.560702143784571,0.05236677161461796,-0.13110597172834337,-0.6653176503121644,0.0029720133583617716,-0.004620503473110416,-0.02622863559236103,0,70,255.0,255.0,255.0
398,19.900000000000002,4.861641230352547,2.095452812263319,-10.594001002336086,0.05249777001886114,-0.13132778933835404,-0.6666404965766496,0.002267922811365578,-0.004252200927315315,-0.026685214987048785,0,70,255.0,255.0,255.0
399,19.950000000000003,4.864268660385943,2.088881261004636,-10.627366573925068,0.05259356389575452,-0.13153119182107492,-0.6679861718108693,0.0015638322643693847,-0.003883898381520213,-0.027141794381736542,0,70,255.0,255.0,255.0
400,20.0,4.8669,2.0823,-10.6608,0.05265415324529808,-0.13171617917650602,-0.6693546760148232,0.0008597417173733524,-0.003515595835724916,-0.02759837377642249,0,70,255.0,255.0,255.0
401,20.05,4.8695338590974915,2.0757093078036917,-10.694301422822488,0.052701745815970105,-0.13192128352957572,-0.6706860579752196,0.0010439611095076876,-0.004688578287063566,-0.025656904639432883,0,70,255.0,255.0,255.0
402,20.1,4.872170328097757,2.0691068941616666,-10.727866987906577,0.05275854935624885,-0.1321850370052124,-0.6719203664787665,0.001228180501642023,-0.005861560738402216,-0.02371543550244327,0,70,255.0,255.0,255.0
403,20.150000000000002,4.874809867549277,2.062489826617794,-10.761491841579417,0.05282456386613431,-0.13250743960341596,-0.673057601525464,0.0014123998937763584,-0.007034543189740866,-0.021773966365453663,0,70,255.0,255.0,255.0
404,20.200000000000003,4.877452938000531,2.055855172715948,-10.795171130168175,0.05289978934562649,-0.13288849132418648,-0.674097763115312,0.0015966192859106936,-0.008207525641079516,-0.01983249722846405,0,70,255.0,255.0,255.0
405,20.25,4.8801,2.0492,-10.8289,0.05298422579472538,-0.13332819216752387,-0.6750408512483103,0.0017808386780452379,-0.009380508092417417,-0.017891028091468364,0,70,255.0,255.0,255.0
406,20.3,4.882751423676825,2.0425228662678667,-10.86267505188801,0.053072448053089964,-0.13373712689065564,-0.6759741350817142,0.001748051656537996,-0.006976880832854004,-0.019440325244689506,0,70,255.0,255.0,255.0
407,20.35,4.885407217482791,2.0358282903336504,-10.896498704589133,0.05315903096037918,-0.13402588025080928,-0.6769848837727793,0.0017152646350307545,-0.0045732535732905906,-0.020989622397910645,0,70,255.0,255.0,255.0
408,20.400000000000002,4.888067299450345,2.0291222812655016,-10.930374831346253,0.05324397451659304,-0.1341944522479847,-0.6780730973215053,0.0016824776135235127,-0.002169626313727177,-0.022538919551131787,0,70,255.0,255.0,255.0
409,20.450000000000003,4.890731587611932,2.022410848131568,-10.964307305402247,0.053327278721731534,-0.134242842882182,-0.6792387757278924,0.0016496905920162712,0.00023400094583623555,-0.024088216704352926,0,70,255.0,255.0,255.0
410,20.5,4.8934,2.0157,-10.9983,0.05340894357579467,-0.1341710521534011,-0.6804819189919404,0.0016169035705091983,0.002637628205399034,-0.025637513857569516,0,70,255.0,255.0,255.0
411,20.55,4.896072446195209,2.008993627124842,-11.032355169625472,0.05348846197166706,-0.13410620890780395,-0.6817054016979225,0.0015638322643865103,-4.3898381512257664e-05,-0.023301794381710615,0,70,255.0,255.0,255.0
412,20.6,4.898748801971078,2.00228714450373,-11.066468593736897,0.053565326802233325,-0.13417544199155232,-0.6828120984301116,0.0015107609582638221,-0.0027254249684235494,-0.020966074905851718,0,70,255.0,255.0,255.0
413,20.650000000000002,4.901428934649344,1.9955738483201972,-11.100634433035587,0.05363953806749345,-0.13437875140464628,-0.6838020091885076,0.0014576896521411341,-0.005406951555334841,-0.018630355429992817,0,70,255.0,255.0,255.0
414,20.700000000000003,4.904112711551739,1.9888470347577762,-11.134846848222853,0.05371109576744744,-0.13471613714708583,-0.6846751339731109,0.0014046183460184462,-0.008088478142246133,-0.01629463595413392,0,70,255.0,255.0,255.0
415,20.75,4.9068,1.9821,-11.1691,0.053779999902095296,-0.13518759921887086,-0.685431472783921,0.0013515470398957063,-0.010770004729157012,-0.013958916478275185,0,70,255.0,255.0,255.0
416,20.8,4.90949079154234,1.975328225232765,-11.203389869610108,0.05385370406024046,-0.13566203747812686,-0.6861802581265897,0.0015966192859106867,-0.008207525641083232,-0.01599249722847101,0,70,255.0,255.0,255.0
417,20.85,4.912185574632896,1.968535931651427,-11.237719720463286,0.05393966183068637,-0.1360083517829792,-0.6870307225067681,0.001841691531925667,-0.005645046553009452,-0.018026077978666837,0,70,255.0,255.0,255.0
418,20.900000000000002,4.91488496195228,1.961729525453707,-11.27209463651141,0.05403787321343303,-0.13622654213342783,-0.6879828659244563,0.002086763777940647,-0.003082567464935672,-0.02005965872886266,0,70,255.0,255.0,255.0
419,20.950000000000003,4.91758956618111,1.9549154128373245,-11.306519701706357,0.05414833820848044,-0.13631660852947275,-0.6890366883796545,0.0023318360239556277,-0.0005200883768618925,-0.022093239479058484,0,70,255.0,255.0,255.0
420,21.0,4.9203,1.9481,-11.341,0.05427105681582858,-0.13627855097111405,-0.6901921898723623,0.0025769082699704793,0.0020423907112114836,-0.024126820229253276,0,70,255.0,255.0,255.0
421,21.05,4.92301638763543,1.9412878719440976,-11.375538951934102,0.05437672178737825,-0.13622164117968796,-0.6913495657957034,0.0016496905920163265,0.00023400094583163268,-0.022168216704388195,0,70,255.0,255.0,255.0
422,21.1,4.92573689949734,1.9344763288905598,-11.410133324409967,0.05443602587503022,-0.13625515087653087,-0.6924090115428011,0.0007224729140621737,-0.0015743888195482183,-0.020209613179523113,0,70,255.0,255.0,255.0
423,21.150000000000002,4.928459217541534,1.9276608498649732,-11.44477822091878,0.05444896907878447,-0.1363790800616428,-0.6933705271136557,-0.00020474476389197938,-0.003382778584928069,-0.018251009654658028,0,70,255.0,255.0,255.0
424,21.200000000000003,4.93118102372382,1.9208369138929242,-11.47946874495173,0.05441555139864102,-0.1365934287350237,-0.694234112508267,-0.001131962441846132,-0.00519116835030792,-0.016292406129792946,0,70,255.0,255.0,255.0
425,21.25,4.9339,1.914,-11.5142,0.054335772834599866,-0.13689819689667357,-0.694999767726635,-0.00205918011980033,-0.006999558115687643,-0.014333802604926227,0,70,255.0,255.0,255.0
426,21.3,4.9366148579159415,1.9071466869908438,-11.548967922653485,0.05427140879025458,-0.13722739780312182,-0.6957174786906107,-0.0005153816540111713,-0.0061684781422416506,-0.014374635954103888,0,70,255.0,255.0,255.0
427,21.35,4.939328427377748,1.900277952786332,-11.583771781896854,0.05428423466919875,-0.13751504471089776,-0.6964372313220454,0.0010284168117779876,-0.005337398168795658,-0.014415469303281548,0,70,255.0,255.0,255.0
428,21.400000000000002,4.942044567881583,1.8933958750863984,-11.618611679813482,0.05437425047143238,-0.13776113762000136,-0.6971590256209389,0.0025722152775671464,-0.004506318195349666,-0.014456302652459209,0,70,255.0,255.0,255.0
429,21.450000000000003,4.944767138923613,1.8865025315909765,-11.653487718486739,0.05454145619695547,-0.1379656765304327,-0.6978828615872914,0.004116013743356305,-0.0036752382219036733,-0.01449713600163687,0,70,255.0,255.0,255.0
430,21.5,4.9475,1.8796,-11.6884,0.054785851845767994,-0.13812866144219177,-0.6986087392211024,0.005659812209145243,-0.00284415824845885,-0.014537969350810087,0,70,255.0,255.0,255.0
431,21.55,4.950245780700806,1.8726901800925262,-11.723348557451963,0.05503364305159583,-0.1382607676078248,-0.6993325194418487,0.0042518360239681054,-0.002440088376862354,-0.014413239479041448,0,70,255.0,255.0,255.0
432,21.6,4.953002190991671,1.8657742599641103,-11.758333148002626,0.05521103544816481,-0.138372670279878,-0.7000500631690066,0.0028438598387909675,-0.002036018505265857,-0.014288509607272811,0,70,255.0,255.0,255.0
433,21.650000000000002,4.955765710932135,1.8588532497894312,-11.793353459827307,0.05531802903547493,-0.1384643694583514,-0.700761370402576,0.0014358836536138295,-0.0016319486336693605,-0.014163779735504173,0,70,255.0,255.0,255.0
434,21.700000000000003,4.958532820581731,1.8519281597431678,-11.828409181101325,0.055354623813526196,-0.13853586514324492,-0.7014664411425571,2.7907468436691972e-05,-0.001227878762072864,-0.014039049863735536,0,70,255.0,255.0,255.0
435,21.75,4.9613,1.845,-11.8635,0.0553208197823186,-0.1385871573345587,-0.7021652753889495,-0.0013800687167407344,-0.0008238088904779506,-0.013914319991964241,0,70,255.0,255.0,255.0
436,21.8,4.9640644192808345,1.8380693926390508,-11.898625847538662,0.05525801900335477,-0.13864153176557836,-0.7028724435419943,-0.001131962441812114,-0.0013511683503085146,-0.01437240612983129,0,70,255.0,255.0,255.0
437,21.85,4.9668260086555645,1.8311354073572255,-11.93378762609265,0.055207623538137386,-0.13872227416958957,-0.7036025160019326,-0.0008838561668834939,-0.0018785278101390785,-0.014830492267698338,0,70,255.0,255.0,255.0
438,21.900000000000002,4.969585388389877,1.8241967257558749,-11.968986480877305,0.055169633386666424,-0.13882938454659227,-0.7043554927687642,-0.0006357498919548737,-0.0024058872699696423,-0.015288578405565387,0,70,255.0,255.0,255.0
439,21.950000000000003,4.97234317874946,1.8172520294363492,-12.004223557107974,0.05514404854894189,-0.13896286289658652,-0.7051313738424891,-0.00038764361702625346,-0.0029332467298002064,-0.015746664543432435,0,70,255.0,255.0,255.0
440,22.0,4.9751,1.8103,-12.0395,0.05513086902496381,-0.13912270921957232,-0.7059301592231074,-0.00013953734209759538,-0.003460606189630955,-0.016204750681297675,0,70,255.0,255.0,255.0
441,22.05,4.977856542175856,1.8033394493512709,-12.074816052393393,0.055134280934994645,-0.13930110532986067,-0.7066977063901799,0.00027601374333108866,-0.0036752382219039457,-0.01449713600160025,0,70,255.0,255.0,255.0
442,22.1,4.980613774386072,1.796369710606987,-12.110168347626786,0.055158470399296916,-0.13949023304176272,-0.7073798728232674,0.0006915648287597727,-0.0038898702541769366,-0.012789521321902825,0,70,255.0,255.0,255.0
443,22.150000000000002,4.9833727355083575,1.7893902471870675,-12.145552616663487,0.05520343741787062,-0.1396900923552784,-0.7079766585223702,0.0011071159141884568,-0.0041045022864499275,-0.011081906642205402,0,70,255.0,255.0,255.0
444,22.200000000000003,4.98613446442043,1.7824005225114319,-12.180964590466791,0.05526918199071577,-0.13990068327040772,-0.708488063487488,0.0015226669996171408,-0.004319134318722918,-0.009374291962507978,0,70,255.0,255.0,255.0
445,22.25,4.9889,1.7754,-12.2164,0.055355704117832326,-0.14012200578715064,-0.708914087718621,0.0019382180850458508,-0.0045337663509952275,-0.007666677282807122,0,70,255.0,255.0,255.0
446,22.3,4.991670212015742,1.7683888099558658,-12.251855542887778,0.055452857256668854,-0.14031404691497748,-0.7093127308972847,0.0019479074684151,-0.0031478787620774964,-0.00827904986374631,0,70,255.0,255.0,255.0
447,22.35,4.994445293800154,1.761369750214826,-12.287331783400214,0.05555049486467384,-0.1404367936633584,-0.7097419927049956,0.001957596851784349,-0.0017619911731597653,-0.0088914224446855,0,70,255.0,255.0,255.0
448,22.400000000000002,4.9972252695766946,1.754346285495854,-12.322830252468762,0.05564861694184729,-0.14049024603229346,-0.7102018731417533,0.0019672862351535984,-0.0003761035842420341,-0.009503795025624689,0,70,255.0,255.0,255.0
449,22.450000000000003,5.000010163568824,1.7473218805179207,-12.358352481024873,0.055747223488189196,-0.1404744040217826,-0.7106923722075581,0.0019769756185228477,0.001009784004675697,-0.010116167606563876,0,70,255.0,255.0,255.0
450,22.5,5.0028,1.7403,-12.3939,0.05584631450369957,-0.14038926763182588,-0.7112134899024097,0.001986665001891985,0.002395671593592885,-0.010728540187503022,0,70,255.0,255.0,255.0
451,22.55,5.00559460976118,1.7332829108252656,-12.429473776055506,0.055934290038321954,-0.14030670701023099,-0.7117313700206827,0.0015323563830033572,0.00090675327020311,-0.009986664543411718,0,70,255.0,255.0,255.0
452,22.6,5.008393050413316,1.7262680885337072,-12.465072518772367,0.05599955014199991,-0.14029859230480557,-0.712212156356751,0.0010780477641147293,-0.0005821650531866651,-0.009244788899320412,0,70,255.0,255.0,255.0
453,22.650000000000002,5.011194186184864,1.7192518108295154,-12.500694373461476,0.05604209481473343,-0.14036492351554963,-0.7126558489106147,0.0006237391452261017,-0.0020710833765764406,-0.008502913255229106,0,70,255.0,255.0,255.0
454,22.700000000000003,5.013996881304274,1.7122303554168825,-12.536337485433725,0.05606192405652252,-0.14050570064246323,-0.7130624476822738,0.00016943052633747375,-0.0035600016999662153,-0.007761037611137802,0,70,255.0,255.0,255.0
455,22.75,5.0168,1.7052,-12.572,0.056059037867367184,-0.14072092368554623,-0.7134319526717285,-0.00028487809255073326,-0.005048920023354775,-0.007019161967047438,0,70,255.0,255.0,255.0
456,22.8,5.019602548939542,1.6981579467430703,-12.60768055289021,0.05604198259004396,-0.14095512504409816,-0.7137937890199684,-0.0003973330003782765,-0.004319134318722096,-0.007454291962545063,0,70,255.0,255.0,255.0
457,22.85,5.022404104546582,1.6911050956503437,-12.643379741510326,0.056019304567329356,-0.14115283711741844,-0.7141773818679831,-0.0005097879082058197,-0.0035893486140894174,-0.007889421958042687,0,70,255.0,255.0,255.0
458,22.900000000000002,5.0252043856838515,1.6840432711860822,-12.679098653685339,0.05599100379922338,-0.1413140599055071,-0.7145827312157726,-0.0006222428160333629,-0.0028595629094567386,-0.008324551953540312,0,70,255.0,255.0,255.0
459,22.950000000000003,5.028003111214081,1.676974297814547,-12.714838377240234,0.05595708028572602,-0.14143879340836413,-0.7150098370633371,-0.0007346977238609062,-0.00212977720482406,-0.008759681949037937,0,70,255.0,255.0,255.0
460,23.0,5.0308,1.6699,-12.7506,0.05591753402683729,-0.14152703762598953,-0.7154586994106763,-0.0008471526316887745,-0.001399991500191211,-0.009194811944536418,0,70,255.0,255.0,255.0
461,23.05,5.0335951944806565,1.6628221022024523,-12.786384012383659,0.05589777960150782,-0.1415847928133774,-0.715893473899454,5.6975618510026306e-05,-0.0009102159953243413,-0.008196167606569013,0,70,255.0,255.0,255.0
462,23.1,5.03639053140036,1.655741928864916,-12.822188515186332,0.05592323158868829,-0.14161805922552195,-0.7162783161713332,0.0009611038687088271,-0.0004204404904574715,-0.007197523268601607,0,70,255.0,255.0,255.0
463,23.150000000000002,5.039188271079735,1.6486607044261539,-12.858011011797178,0.0559938899883787,-0.14162683686242317,-0.7166132262263141,0.0018652321189076278,6.933501440939817e-05,-0.006198878930634201,0,70,255.0,255.0,255.0
464,23.200000000000003,5.041990673839406,1.6415796533249276,-12.89384900560535,0.05610975480057906,-0.14161112572408102,-0.7168982040643966,0.002769360369106429,0.0005591105192762681,-0.005200234592666796,0,70,255.0,255.0,255.0
465,23.25,5.0448,1.6345,-12.9297,0.056270826025289336,-0.14157092581049555,-0.7171332496855809,0.003673488619304721,0.0010488860241435471,-0.0042015902547021255,0,70,255.0,255.0,255.0
466,23.3,5.0476174731378345,1.6274224444471201,-12.965561797575164,0.056414899003930284,-0.1415377037023911,-0.7173363153822254,0.00208943052633308,0.0002799983000341457,-0.003921037611079821,0,70,255.0,255.0,255.0
467,23.35,5.050440169851982,1.6203455888899907,-13.001433397744355,0.05647976907792265,-0.14154292598049212,-0.7175253534466889,0.0005053724333614388,-0.0004888894240752558,-0.0036404849674575167,0,70,255.0,255.0,255.0
468,23.400000000000002,5.053264129997215,1.6132675111093007,-13.037314099125965,0.05646543624726643,-0.14158659264479864,-0.7177003638789712,-0.0010786856596102018,-0.001257777148184657,-0.003359932323835212,0,70,255.0,255.0,255.0
469,23.450000000000003,5.056085393428298,1.6061862888857406,-13.073203200338384,0.05637190051196163,-0.1416687036953106,-0.7178613466790724,-0.0026627437525818436,-0.0020266648722940587,-0.003079379680212908,0,70,255.0,255.0,255.0
470,23.5,5.0589,1.5991,-13.1091,0.056199161872008255,-0.141789259132028,-0.7180083018469925,-0.004246801845553372,-0.0027955525964022954,-0.002798827036588847,0,70,255.0,255.0,255.0
471,23.55,5.0617053129680105,1.5920073200090663,-13.145003997315692,0.05602662438277258,-0.14191239237705866,-0.7181532645716343,-0.0026546977238735,-0.002129777204823914,-0.0029996819490840237,0,70,255.0,255.0,255.0
472,23.6,5.064503989191713,1.5849093155751202,-13.180915493836258,0.0559336920996209,-0.1420022368525104,-0.7183082700419009,-0.001062593602193628,-0.0014640018132455333,-0.0032005368615792007,0,70,255.0,255.0,255.0
473,23.650000000000002,5.067300008931408,1.5778076511366412,-13.216834991698978,0.055920365022553216,-0.14205879255838322,-0.7184733182577923,0.0005295105194862435,-0.0007982264216671526,-0.0034013917740743776,0,70,255.0,255.0,255.0
474,23.700000000000003,5.0700973524474025,1.570703991132108,-13.252762993041133,0.05598664315156952,-0.1420820594946771,-0.7186484092193083,0.002121614641166116,-0.00013245103008877133,-0.003602246686569555,0,70,255.0,255.0,255.0
475,23.75,5.0729,1.5636,-13.2887,0.056132526486669825,-0.1420720376613921,-0.7188335429264491,0.003713718762846152,0.0005333243614900063,-0.003803101599062053,0,70,255.0,255.0,255.0
476,23.8,5.075710874990122,1.5564970755166148,-13.324646213162069,0.05629460346496906,-0.1420447267893729,-0.7190106263312425,0.002769360369123317,0.0005591105192763738,-0.0032802345926727407,0,70,255.0,255.0,255.0
477,23.85,5.078528673381169,1.5493955488095275,-13.360600626910621,0.056409462523582164,-0.14201612660946447,-0.7191615663857164,0.0018250019754004819,0.0005848966770627414,-0.0027573675862834286,0,70,255.0,255.0,255.0
478,23.900000000000002,5.081351034277153,1.5422954843441328,-13.396561934078138,0.05647710366250911,-0.14198623712166666,-0.7192863630898707,0.0008806435816776466,0.0006106828348491089,-0.0022345005798941166,0,70,255.0,255.0,255.0
479,23.950000000000003,5.084175596782092,1.5351969465858253,-13.432528827497103,0.05649752688174992,-0.14195505832597954,-0.7193850164437058,-6.371481204518834e-05,0.0006364689926354765,-0.0017116335735048041,0,70,255.0,255.0,255.0
480,24.0,5.087,1.5281,-13.4685,0.0564707321813046,-0.1419225902224031,-0.7194575264472213,-0.0010080732057681785,0.0006622551504218421,-0.0011887665671137526,0,70,255.0,255.0,255.0
481,24.05,5.089822387071496,1.521004377924475,-13.504474350036034,0.056426961757346156,-0.14190870046545,-0.7195162301034036,-0.0007427437525693155,-0.00010666487229801216,-0.0011593796801824038,0,70,255.0,255.0,255.0
482,24.1,5.092642917283612,1.5139084891867691,-13.540451598521269,0.05639645780604767,-0.14193325670963292,-0.7195734644152395,-0.0004774142993704525,-0.0008755848950178665,-0.0011299927932510547,0,70,255.0,255.0,255.0
483,24.150000000000002,5.09546225395998,1.5068104114868257,-13.576431671988486,0.056379220327409114,-0.1419962589549518,-0.7196292293827288,-0.00021208484617158936,-0.0016445049177377206,-0.0011006059063197059,0,70,255.0,255.0,255.0
484,24.200000000000003,5.098281060424231,1.4997082225245881,-13.612414496970471,0.0563752493214305,-0.1420977072014067,-0.7196835250058715,5.3244607027273533e-05,-0.002413424940457575,-0.001071219019388357,0,70,255.0,255.0,255.0
485,24.25,5.1011,1.4926,-13.6484,0.056384544788111834,-0.14223760144899755,-0.7197363512846676,0.0003185740602261733,-0.003182344963177375,-0.0010418321324552338,0,70,255.0,255.0,255.0
486,24.3,5.103919576723889,1.4854846127854848,-13.684387586693799,0.05639754950564633,-0.142368471348829,-0.7197564532551435,0.00020161464115368955,-0.0020524510300798777,0.00023775331342347928,0,70,255.0,255.0,255.0
487,24.35,5.106739657484383,1.4783640944433942,-13.720374579004309,0.0564047062522272,-0.14244284655200554,-0.7197125759533253,8.46552220812058e-05,-0.0009225570969823805,0.0015173387593021923,0,70,255.0,255.0,255.0
488,24.400000000000002,5.10955994988293,1.4712412697085617,-13.756357777967924,0.05640601502785445,-0.14246072705852722,-0.7196047193792131,-3.2304196991277925e-05,0.00020733683611511662,0.0027969242051809054,0,70,255.0,255.0,255.0
489,24.450000000000003,5.112380161520985,1.464118963315819,-13.79233398462103,0.056401475832528074,-0.142422112868394,-0.7194328835328071,-0.0001492636160637617,0.0013372307692126138,0.004076509651059618,0,70,255.0,255.0,255.0
490,24.5,5.1152,1.457,-13.8283,0.056391088666248076,-0.14232700398160597,-0.7191970684141072,-0.0002662230351361261,0.0024671247023095866,0.005356095096936464,0,70,255.0,255.0,255.0
491,24.55,5.118019306032944,1.4498867709335852,-13.864253703188782,0.05638284022006854,-0.14220141413923246,-0.7189619568760209,-6.371481204518737e-05,0.002556468992630824,0.004048366426515474,0,70,255.0,255.0,255.0
492,24.6,5.120838452778859,1.4427799330396518,-13.900197285461495,0.05638471718504356,-0.14207135708234286,-0.7187922317714557,0.00013879341104575138,0.002645813282952061,0.0027406377560944845,0,70,255.0,255.0,255.0
493,24.650000000000002,5.123657946508302,1.435679709678926,-13.936134016139821,0.05639671956117312,-0.14193683281093725,-0.7186878931004115,0.0003413016341366901,0.0027351575732732984,0.0014329090856734948,0,70,255.0,255.0,255.0
494,24.700000000000003,5.12647829349183,1.4285863242121333,-13.972067164545429,0.05641884734845722,-0.14179784132501555,-0.7186489408628883,0.0005438098572276289,0.002824501863594536,0.00012518041525250503,0,70,255.0,255.0,255.0
495,24.75,5.1293,1.4215,-14.008,0.05645110054689588,-0.14165438262457783,-0.7186753750588862,0.0007463180803181091,0.0029138461539159888,-0.0011825482551666155,0,70,255.0,255.0,255.0
496,24.8,5.132123199144331,1.414420303480174,-14.04393440055108,0.05647108961407951,-0.14154587209424138,-0.718683719240751,5.324460702703772e-05,0.0014265750595423355,0.000848780980574866,0,70,255.0,255.0,255.0
497,24.85,5.13494653140018,1.407344173397997,-14.079866679149713,0.056456425007598586,-0.1415117251186236,-0.7185904969608288,-0.0006398288662640337,-6.069603483131779e-05,0.0028801102163163476,0,70,255.0,255.0,255.0
498,24.900000000000002,5.137768264083863,1.400267891575733,-14.1157917574728,0.05640710672745311,-0.1415519416977245,-0.7183957082191194,-0.001332902339555105,-0.0015479671292049713,0.004911439452057829,0,70,255.0,255.0,255.0
499,24.950000000000003,5.140586664511698,1.3931877398356458,-14.151704557197261,0.05632313477364308,-0.1416665218315441,-0.7180993530156229,-0.0020259758128461764,-0.0030352382235786244,0.006942768687799311,0,70,255.0,255.0,255.0
500,25.0,5.1434,1.3861,-14.1876,0.05620450914616849,-0.14185546552008235,-0.7177014313503394,-0.002719049286137587,-0.004522509317951728,0.008974097923545088,0,70,255.0,255.0,255.0
501,25.05,5.14620709738973,1.379002415145718,-14.223474294606893,0.05608480132361356,-0.14203109748380083,-0.7172791661609745,-0.00206926361605926,-0.0025027692307870433,0.007916509651050759,0,70,255.0,255.0,255.0
502,25.1,5.14900902162042,1.371898573368359,-14.25932879793966,0.05599758278456256,-0.14210574244316107,-0.7169097803852342,-0.001419477945980933,-0.0004830291436223582,0.00685892137855643,0,70,255.0,255.0,255.0
503,25.150000000000002,5.151807397156245,1.364793524018141,-14.295166153968976,0.055942853529015464,-0.14207940039816308,-0.7165932740231189,-0.0007696922759026059,0.001536710943542327,0.005801333106062101,0,70,255.0,255.0,255.0
504,25.200000000000003,5.154603848461379,1.3576923164452819,-14.330989006665533,0.055920613556972296,-0.14195207134880683,-0.7163296470746281,-0.00011990660582427912,0.003556451030707012,0.004743744833567771,0,70,255.0,255.0,255.0
505,25.25,5.1574,1.3506,-14.3668,0.05593086286843303,-0.1417237552950924,-0.7161188995397619,0.0005298790642538354,0.005576191117871332,0.0036861565610761815,0,70,255.0,255.0,255.0
506,25.3,5.160197211296749,1.3435204359369533,-14.40260122102135,0.055957705091470064,-0.14146573797055587,-0.715927616115353,0.0005438098572274843,0.0047445018635899555,0.003965180415278095,0,70,255.0,255.0,255.0
507,25.35,5.162995782118141,1.3364527331285658,-14.438392529091658,0.05598524385415578,-0.1412493051087334,-0.7157223814982342,0.0005577406502011332,0.003912812609308579,0.004244204269480009,0,70,255.0,255.0,255.0
508,25.400000000000002,5.165795747291159,1.3293948123517014,-14.474173226651294,0.05601347915649018,-0.14107445670962498,-0.715503195688405,0.0005716714431747822,0.0030811233550272024,0.004523228123681922,0,70,255.0,255.0,255.0
509,25.450000000000003,5.168597141642785,1.3223445943832244,-14.50994261614062,0.056042410998473256,-0.14094119277323067,-0.7152700586858659,0.0005856022361484311,0.0022494341007458256,0.004802251977883836,0,70,255.0,255.0,255.0
510,25.5,5.1714,1.3153,-14.5457,0.05607203938010502,-0.1408495132995504,-0.7150229704906168,0.000599533029121857,0.0014177448464651743,0.005081275832088394,0,70,255.0,255.0,255.0
511,25.55,5.174204057423275,1.3082590411064678,-14.581444021307718,0.05608437831051137,-0.140793950633978,-0.7147223693776196,-0.00010597581286791893,0.0008047617764299099,0.006942768687802596,0,70,255.0,255.0,255.0
512,25.6,5.1770078499070165,1.3012200941173768,-14.617170685693717,0.05606144179881823,-0.1407690371219074,-0.7143286936218366,-0.0008114846548576949,0.00019177870639464556,0.008804261543516798,0,70,255.0,255.0,255.0
513,25.650000000000002,5.179809613679121,1.2941816265750519,-14.652875339425856,0.0560032298450256,-0.14077477276333855,-0.7138419432232679,-0.001516993496847471,-0.0004212043636406188,0.010665754399230998,0,70,255.0,255.0,255.0
514,25.700000000000003,5.182607584967484,1.2871421060218178,-14.688553328771997,0.05590974244913348,-0.14081115755827148,-0.7132621181819134,-0.002222502338837247,-0.0010341874336758832,0.012527247254945202,0,70,255.0,255.0,255.0
515,25.75,5.1854,1.2801,-14.7242,0.05578097961114188,-0.14087819150670616,-0.7125892184977733,-0.0029280111808269726,-0.0016471705037122142,0.014388740110662823,0,70,255.0,255.0,255.0
516,25.8,5.188185759010153,1.2730545996371745,-14.759812293747784,0.055656781666476134,-0.14092645949353141,-0.7119189063741671,-0.002039906605802831,-0.0002835489692975897,0.012423744833586497,0,70,255.0,255.0,255.0
517,25.85,5.190966418253793,1.2660084904019253,-14.795393528133483,0.055576988950561595,-0.14090654640363592,-0.7113468440144146,-0.0011518020307786894,0.0010800725651170348,0.010458749556510171,0,70,255.0,255.0,255.0
518,25.900000000000002,5.1937441979923555,1.258965081348089,-14.830948615645289,0.05554160146339827,-0.1408184522370197,-0.7108730314185161,-0.0002636974557545476,0.0024436940995316596,0.008493754279433847,0,70,255.0,255.0,255.0
519,25.950000000000003,5.196521318487278,1.2519277815295018,-14.866482468771398,0.05555061920498614,-0.14066217699368277,-0.7104974685864713,0.0006244071192695938,0.003807315633946284,0.006528759002357519,0,70,255.0,255.0,255.0
520,26.0,5.1993,1.2449,-14.902,0.05560404217532522,-0.14043772067362512,-0.7102201555182802,0.0015125116942936723,0.00517093716836059,0.004563763725283998,0,70,255.0,255.0,255.0
521,26.05,5.20208170653611,1.2378841603448343,-14.937504403701151,0.055656495023586265,-0.14020421139189745,-0.7099380051257019,0.0005856022361483284,0.004169434100746314,0.006722251977845626,0,70,255.0,255.0,255.0
522,26.1,5.20486487707781,1.2308787442749203,-14.97299200177236,0.05566260239894005,-0.1400207772635505,-0.7095479303204957,-0.0003413072219970155,0.0031679310331320367,0.008880740230407254,0,70,255.0,255.0,255.0
523,26.150000000000002,5.207647194351456,1.2238812480325894,-15.008457397992993,0.05562236430138657,-0.13988741828858425,-0.7090499311026612,-0.0012682166801423595,0.0021664279655177606,0.01103922848296888,0,70,255.0,255.0,255.0
524,26.200000000000003,5.210426341083401,1.216889167860172,-15.043895196142419,0.05553578073092581,-0.1398041344669987,-0.7084440074721987,-0.0021951261382877033,0.0011649248979034837,0.013197716735530508,0,70,255.0,255.0,255.0
525,26.25,5.2132,1.2099,-15.0793,0.055402851687557805,-0.13977092579879388,-0.7077301594291082,-0.0031220355964333146,0.0001634218302892787,0.015356204988093758,0,70,255.0,255.0,255.0
526,26.3,5.2159666148454065,1.202911958983488,-15.114667691447611,0.05526923823917603,-0.13974469493887845,-0.7069850731230324,-0.002222502338837327,0.0008858125663276809,0.014447247254942206,0,70,255.0,255.0,255.0
527,26.35,5.218727673434965,1.1959261324983919,-15.149999264777081,0.055180601453674066,-0.1396823445421611,-0.7062854347036139,-0.0013229690812413396,0.001608203302366083,0.013538289521790654,0,70,255.0,255.0,255.0
528,26.400000000000002,5.221485424601822,1.1889443265215516,-15.18529699238275,0.055136941331051896,-0.13958387460864186,-0.7056312441708533,-0.0004234358236453522,0.002330594038404485,0.012629331788639103,0,70,255.0,255.0,255.0
529,26.450000000000003,5.224242117179118,1.1819683470298077,-15.220563146658945,0.055138257871309534,-0.13944928513832067,-0.7050225015247501,0.0004760974339506354,0.0030529847744428873,0.01172037405548755,0,70,255.0,255.0,255.0
530,26.5,5.227,1.175,-15.2558,0.055184551074446954,-0.1392785761311976,-0.7044592067653046,0.0013756306915460592,0.003775375510480128,0.010811416322335177,0,70,255.0,255.0,255.0
531,26.55,5.2297606340822655,1.168040803721213,-15.291008830508412,0.05523455201971734,-0.13908900885258704,-0.7038817023821858,0.0006244071192694327,0.003807315633941411,0.01228875900241386,0,70,255.0,255.0,255.0
532,26.6,5.2325228291823285,1.1610911257315109,-15.32618693911932,0.0552469917863739,-0.13889784456780344,-0.7032303308650633,-0.0001268164530071939,0.003839255757402694,0.013766101682492546,0,70,255.0,255.0,255.0
533,26.650000000000002,5.235284707241259,1.1541510458812019,-15.361330632476019,0.05522187037441662,-0.13870508327684677,-0.7025050922139366,-0.0008780400252838202,0.0038711958808639773,0.015243444362571232,0,70,255.0,255.0,255.0
534,26.700000000000003,5.238044390200127,1.1472206440205954,-15.396436217221815,0.055159187783845515,-0.13851072497971703,-0.701705986428806,-0.001629263597560447,0.00390313600432526,0.016720787042649916,0,70,255.0,255.0,255.0
535,26.75,5.2408,1.1403,-15.4315,0.055058944014660584,-0.1383147696764143,-0.7008330135096716,-0.00238048716983702,0.003935076127786319,0.018198129722728495,0,70,255.0,255.0,255.0
536,26.8,5.243550048825535,1.1333888261316598,-15.466519386518742,0.05494455368195704,-0.13813926965077217,-0.6999521173482154,-0.0021951261383047344,0.0030849248978993206,0.017037716735522308,0,70,255.0,255.0,255.0
537,26.85,5.246294609835722,1.1264853645755646,-15.501496178745644,0.054839431400830106,-0.13800627718662434,-0.6991292418361195,-0.002009765106772449,0.0022347736680123223,0.01587730374831612,0,70,255.0,255.0,255.0
538,26.900000000000002,5.249034146433144,1.1195874899536389,-15.536433277713178,0.05474357717127979,-0.1379157922839709,-0.6983643869733838,-0.0018244040752401634,0.001384622438125324,0.01471689076110993,0,70,255.0,255.0,255.0
539,26.950000000000003,5.251769122020376,1.1126930768878087,-15.571333584453809,0.054656990993306086,-0.13786781494281183,-0.6976575527600084,-0.0016390430437078778,0.0005344712082383258,0.013556477773903742,0,70,255.0,255.0,255.0
540,27.0,5.2545,1.1058,-15.6062,0.05457967286690901,-0.13786234516314708,-0.6970087391959935,-0.00145368201217555,-0.0003156800216490563,0.012396064786696748,0,70,255.0,255.0,255.0
541,27.05,5.257227170615599,1.098907091752147,-15.64103442341662,0.05450723325245349,-0.13784191254432715,-0.6963578282249399,-0.0014439025660451853,0.001132984774446631,0.01364037405544833,0,70,255.0,255.0,255.0
542,27.1,5.259950731474784,1.0920170159662306,-15.675834745898104,0.054435282610304496,-0.13774904668570243,-0.6956447017904486,-0.0014341231199148205,0.0025816495705423183,0.014884683324199913,0,70,255.0,255.0,255.0
543,27.150000000000002,5.262670707026169,1.08513339430424,-15.710597856671276,0.05436382094046201,-0.1375837475872729,-0.6948693598925197,-0.0014243436737844558,0.004030314366638006,0.016128992592951495,0,70,255.0,255.0,255.0
544,27.200000000000003,5.265387121718368,1.0782598484281665,-15.745320644962964,0.054292848242926045,-0.1373460152490386,-0.6940318025311534,-0.001414564227654091,0.005478979162733693,0.017373301861703078,0,70,255.0,255.0,255.0
545,27.25,5.2681,1.0714,-15.78,0.054222364517696596,-0.13703584967099955,-0.6931320297063496,-0.0014047847815241155,0.006927643958828833,0.01861761113045457,0,70,255.0,255.0,255.0
546,27.3,5.270809268712068,1.0645564068597506,-15.814633319814776,0.0541465133082199,-0.1367170801719205,-0.692200569752022,-0.0016292635975434875,0.005823136004333247,0.018640787042645535,0,70,255.0,255.0,255.0
547,27.35,5.2735144642651415,1.0577273715595124,-15.84922003766194,0.054059438157942244,-0.1364535360705662,-0.691267951002085,-0.0018537424135628595,0.004718628049837661,0.0186639629548365,0,70,255.0,255.0,255.0
548,27.400000000000002,5.276215025462181,1.0509101328293986,-15.883760095601724,0.05396113906686362,-0.1362452173669367,-0.6903341734565384,-0.0020782212295822316,0.0036141200953420743,0.018687138867027466,0,70,255.0,255.0,255.0
549,27.450000000000003,5.278910391106147,1.044101929399523,-15.918253435694337,0.05385161603498402,-0.136092124061032,-0.6893992371153822,-0.0023027000456016036,0.0025096121408464886,0.01871031477921843,0,70,255.0,255.0,255.0
550,27.5,5.2816,1.0373,-15.9527,0.05373086906230347,-0.13599425615285207,-0.6884631419786166,-0.0025271788616211266,0.0014051041863509806,0.018733490691412946,0,70,255.0,255.0,255.0
551,27.55,5.284283754536129,1.0305024808088497,-15.987099497324284,0.05362671351467024,-0.13589776676798757,-0.6875118927669822,-0.0016390430437078427,0.0024544712082295622,0.01931647777395914,0,70,255.0,255.0,255.0
552,27.6,5.286963411464649,1.0237110977957193,-16.021450703454132,0.053566964757932684,-0.1357488090320291,-0.6865314942012207,-0.0007509072257945585,0.003503838230108144,0.019899464856505327,0,70,255.0,255.0,255.0
553,27.650000000000002,5.289641191125104,1.0169284743781646,-16.055752160921838,0.05355162279209079,-0.13554738294497673,-0.6855219462813317,0.00013722859211872567,0.004553205251986725,0.02048245193905152,0,70,255.0,255.0,255.0
554,27.700000000000003,5.29231931385704,1.0101572339737397,-16.090002412259697,0.05358068761714456,-0.13529348850683046,-0.6844832490073155,0.0010253644100320096,0.005602572273865307,0.021065439021597708,0,70,255.0,255.0,255.0
555,27.75,5.295,1.0034,-16.1242,0.05365415923309398,-0.1349871257175902,-0.683415402379172,0.0019135002279450086,0.006651939295744924,0.02164842610414386,0,70,255.0,255.0,255.0
556,27.8,5.297684513143416,0.9966584699048514,-16.158343890888094,0.053714632633100716,-0.13468385275612835,-0.6823438591800269,0.0005054357723241166,0.005478979162729464,0.021213301861659234,0,70,255.0,255.0,255.0
557,27.85,5.3003702898762635,0.9899306372576095,-16.19243474852154,0.05370470281032639,-0.13443922780131723,-0.6812940721930061,-0.0009026286832967754,0.004306019029714003,0.02077817761917461,0,70,255.0,255.0,255.0
558,27.900000000000002,5.303053810037403,0.9832135696579419,-16.226473660710933,0.053624369764771036,-0.13425325085315692,-0.6802660414181094,-0.002310693138917668,0.003133058896698543,0.02034305337668998,0,70,255.0,255.0,255.0
559,27.950000000000003,5.305731553465694,0.9765043347055161,-16.260461715266885,0.05347363349643462,-0.1341259219116474,-0.679259766855337,-0.0037187575945385595,0.0019600987636830824,0.019907929134205356,0,70,255.0,255.0,255.0
560,28.0,5.3084,0.9698,-16.2944,0.05325249400531718,-0.1340572409767886,-0.678275248504689,-0.0051268220501595185,0.0007871386306674832,0.019472804891719875,0,70,255.0,255.0,255.0
561,28.05,5.311056592890204,0.9630988395717447,-16.328288939123336,0.053018755952923685,-0.1339748222075006,-0.6772726705129165,-0.004222700045580073,0.0025096121408525263,0.020630314779181463,0,70,255.0,255.0,255.0
562,28.1,5.3137026290302956,0.9564039531738416,-16.362126302459718,0.05283022400075917,-0.13380627976270335,-0.6762122170267708,-0.003318578041000627,0.004232085651037569,0.02178782466664305,0,70,255.0,255.0,255.0
563,28.150000000000002,5.316340368725284,0.9497196469900661,-16.395909196234438,0.05268689814882362,-0.13355161364239682,-0.6750938880462521,-0.0024144560364211813,0.005954559161222612,0.02294533455410464,0,70,255.0,255.0,255.0
564,28.200000000000003,5.318972072280182,0.9430502272041936,-16.429634726672774,0.05258877839711704,-0.13321082384658106,-0.6739176835713603,-0.0015103340318417353,0.0076770326714076555,0.024102844441566226,0,70,255.0,255.0,255.0
565,28.25,5.3216,0.9364,-16.4633,0.052535864745639455,-0.1327839103752561,-0.6726836036020954,-0.0006062120272625204,0.009399506181591466,0.0252603543290304,0,70,255.0,255.0,255.0
566,28.3,5.324225915295764,0.9297717718081692,-16.49690275261857,0.052498343555208375,-0.1323608584138697,-0.6714294587683283,-0.0008946355899807786,0.00752257227386532,0.024905439021657646,0,70,255.0,255.0,255.0
567,28.35,5.326849594002552,0.9231623500470231,-16.530443241639592,0.05244640118664137,-0.13203165314786958,-0.6701930596999296,-0.0011830591526990368,0.005645638366139174,0.02455052371428489,0,70,255.0,255.0,255.0
